{"resourceType":"Bundle","id":"d9543ff3-3970-4aae-8583-af8c9b6008ae","type":"transaction","entry":[{"fullUrl":"Patient/dc3be7c8-e9bc-4744-887e-906dc05651aa","resource":{"resourceType":"Patient","id":"dc3be7c8-e9bc-4744-887e-906dc05651aa","identifier":[{"type":{"coding":[{"system":"http://terminology.hl7.org/CodeSystem/v2-0203","code":"MR"}]},"system":"urn:fhirgen:mrn","value":"378-66-1500"}],"name":[{"family":"Scott","given":["Thomas"]}],"telecom":[{"system":"phone","value":"001-859-813-5544"}],"gender":"male","birthDate":"1967-02-23","address":[{"line":["95392 Christian Rue Apt. 710"],"city":"North Anna","state":"Minnesota","postalCode":"69510"}]},"request":{"method":"POST","url":"Patient"}},{"fullUrl":"Observation/6123f102-e7c3-4f7f-ab46-7f8005ba7a3a","resource":{"resourceType":"Observation","id":"6123f102-e7c3-4f7f-ab46-7f8005ba7a3a","status":"final","code":{"coding":[{"system":"http://loinc.org","code":"71793-4"}]},"subject":{"reference":"Patient/dc3be7c8-e9bc-4744-887e-906dc05651aa"},"effectiveDateTime":"2022-01-30T00:00:00+00:00","valueRatio":{"numerator":{"value":1},"denominator":{"value":32}}},"request":{"method":"POST","url":"Observation"}},{"fullUrl":"Observation/04b63e84-783d-4fc2-8968-524a803ffc34","resource":{"resourceType":"Observation","id":"04b63e84-783d-4fc2-8968-524a803ffc34","status":"final","code":{"coding":[{"system":"http://loinc.org","code":"31147-2"}]},"subject":{"reference":"Patient/dc3be7c8-e9bc-4744-887e-906dc05651aa"},"effectiveDateTime":"2022-04-24T00:00:00+00:00","valueRatio":{"numerator":{"value":1},"denominator":{"value":32}}},"request":{"method":"POST","url":"Observation"}},{"fullUrl":"Observation/ad778dae-2d2b-4e3a-a0c7-54fae024cd3c","resource":{"resourceType":"Observation","id":"ad778dae-2d2b-4e3a-a0c7-54fae024cd3c","status":"final","code":{"coding":[{"system":"http://loinc.org","code":"5394-2"}]},"subject":{"reference":"Patient/dc3be7c8-e9bc-4744-887e-906dc05651aa"},"effectiveDateTime":"2022-04-20T00:00:00+00:00","valueRatio":{"numerator":{"value":1},"denominator":{"value":4}}},"request":{"method":"POST","url":"Observation"}},{"fullUrl":"Condition/5851ee54-159d-426e-9871-bf4d6990cd29","resource":{"resourceType":"Condition","id":"5851ee54-159d-426e-9871-bf4d6990cd29","code":{"coding":[{"system":"http://snomed.info/sct","code":"56317004"}]},"subject":{"reference":"Patient/dc3be7c8-e9bc-4744-887e-906dc05651aa"},"onsetDateTime":"2022-08-21T00:00:00+00:00"},"request":{"method":"POST","url":"Condition"}},{"fullUrl":"Condition/9b0ceb48-5fa0-4c64-a08b-dfed1083fbbe","resource":{"resourceType":"Condition","id":"9b0ceb48-5fa0-4c64-a08b-dfed1083fbbe","code":{"coding":[{"system":"http://snomed.info/sct","code":"736686006"}]},"subject":{"reference":"Patient/dc3be7c8-e9bc-4744-887e-906dc05651aa"},"onsetDateTime":"2022-03-31T00:00:00+00:00"},"request":{"method":"POST","url":"Condition"}},{"fullUrl":"Condition/f44767b0-9fdb-49ed-a6ae-67d13b36580d","resource":{"resourceType":"Condition","id":"f44767b0-9fdb-49ed-a6ae-67d13b36580d","code":{"coding":[{"system":"http://snomed.info/sct","code":"71315007"}]},"subject":{"reference":"Patient/dc3be7c8-e9bc-4744-887e-906dc05651aa"},"onsetDateTime":"2022-08-14T00:00:00+00:00"},"request":{"method":"POST","url":"Condition"}},{"fullUrl":"Observation/9f287e2c-ae32-4ca0-bb03-76b5252dca3a","resource":{"resourceType":"Observation","id":"9f287e2c-ae32-4ca0-bb03-76b5252dca3a","status":"final","code":{"coding":[{"system":"http://loinc.org","code":"49498-9"}]},"subject":{"reference":"Patient/dc3be7c8-e9bc-4744-887e-906dc05651aa"},"effectiveDateTime":"2022-09-23T00:00:00+00:00","valueQuantity":{"value":10.4}},"request":{"method":"POST","url":"Observation"}},{"fullUrl":"Observation/3c9a31c8-fb09-4abb-92bd-7b5392c84e8c","resource":{"resourceType":"Observation","id":"3c9a31c8-fb09-4abb-92bd-7b5392c84e8c","status":"final","code":{"coding":[{"system":"http://loinc.org","code":"49498-9"}]},"subject":{"reference":"Patient/dc3be7c8-e9bc-4744-887e-906dc05651aa"},"effectiveDateTime":"2022-02-05T00:00:00+00:00","valueQuantity":{"value":7.5}},"request":{"method":"POST","url":"Observation"}},{"fullUrl":"Observation/a1745ae2-277d-423f-ad2e-80ef6a8cdfde","resource":{"resourceType":"Observation","id":"a1745ae2-277d-423f-ad2e-80ef6a8cdfde","status":"final","code":{"coding":[{"system":"http://loinc.org","code":"804-5"}]},"subject":{"reference":"Patient/dc3be7c8-e9bc-4744-887e-906dc05651aa"},"effectiveDateTime":"2022-12-08T00:00:00+00:00","valueQuantity":{"value":4.4}},"request":{"method":"POST","url":"Observation"}},{"fullUrl":"Observation/d8e772f7-68c9-4414-9782-c25bf79a3cd5","resource":{"resourceType":"Observation","id":"d8e772f7-68c9-4414-9782-c25bf79a3cd5","status":"final","code":{"coding":[{"system":"http://loinc.org","code":"49498-9"}]},"subject":{"reference":"Patient/dc3be7c8-e9bc-4744-887e-906dc05651aa"},"effectiveDateTime":"2022-04-07T00:00:00+00:00"},"request":{"method":"POST","url":"Observation"}},{"fullUrl":"Observation/737ca2cd-1d15-46b1-967e-3a29bd58161e","resource":{"resourceType":"Observation","id":"737ca2cd-1d15-46b1-967e-3a29bd58161e","status":"final","code":{"coding":[{"system":"http://loinc.org","code":"49498-9"}]},"subject":{"reference":"Patient/dc3be7c8-e9bc-4744-887e-906dc05651aa"},"effectiveDateTime":"2022-04-15T00:00:00+00:00"},"request":{"method":"POST","url":"Observation"}},{"fullUrl":"Observation/6a13d367-45d5-42e9-9bc6-16ce8ccbae2e","resource":{"resourceType":"Observation","id":"6a13d367-45d5-42e9-9bc6-16ce8ccbae2e","status":"final","code":{"coding":[{"system":"http://loinc.org","code":"49498-9"}]},"subject":{"reference":"Patient/dc3be7c8-e9bc-4744-887e-906dc05651aa"},"effectiveDateTime":"2022-05-24T00:00:00+00:00"},"request":{"method":"POST","url":"Observation"}},{"fullUrl":"Procedure/dbf52ac1-1275-427c-9c39-a7bfcdf9483a","resource":{"resourceType":"Procedure","id":"dbf52ac1-1275-427c-9c39-a7bfcdf9483a","status":"completed","code":{"coding":[{"system":"http://snomed.info/sct","code":"115006"}]},"subject":{"reference":"Patient/dc3be7c8-e9bc-4744-887e-906dc05651aa"},"performedDateTime":"2022-05-30T00:00:00+00:00"},"request":{"method":"POST","url":"Procedure"}},{"fullUrl":"Procedure/903ba8f2-9663-430c-8e19-652626cfe73d","resource":{"resourceType":"Procedure","id":"903ba8f2-9663-430c-8e19-652626cfe73d","status":"completed","code":{"coding":[{"system":"http://snomed.info/sct","code":"115006"}]},"subject":{"reference":"Patient/dc3be7c8-e9bc-4744-887e-906dc05651aa"},"performedDateTime":"2022-06-20T00:00:00+00:00"},"request":{"method":"POST","url":"Procedure"}},{"fullUrl":"Procedure/6d1181ce-9d57-48dd-be4e-7cda99645ae3","resource":{"resourceType":"Procedure","id":"6d1181ce-9d57-48dd-be4e-7cda99645ae3","status":"completed","code":{"coding":[{"system":"http://snomed.info/sct","code":"146005"}]},"subject":{"reference":"Patient/dc3be7c8-e9bc-4744-887e-906dc05651aa"},"performedDateTime":"2022-11-21T00:00:00+00:00"},"request":{"method":"POST","url":"Procedure"}},{"fullUrl":"MedicationStatement/0670b736-d397-436c-b370-20cdc89d05fc","resource":{"resourceType":"MedicationStatement","id":"0670b736-d397-436c-b370-20cdc89d05fc","status":"completed","medicationCodeableConcept":{"coding":[{"system":"http://www.nlm.nih.gov/research/umls/rxnorm","code":"7984"}]},"subject":{"reference":"Patient/dc3be7c8-e9bc-4744-887e-906dc05651aa"},"effectiveDateTime":"2022-04-10T00:00:00+00:00","dosage":[{"doseAndRate":[{"doseQuantity":{"value":2,"unit":"TAB","system":"http://terminology.hl7.org/CodeSystem/v3-orderableDrugForm","code":"TAB"}}]}]},"request":{"method":"POST","url":"MedicationStatement"}},{"fullUrl":"MedicationStatement/71afde2f-0be9-4056-a3fb-b25727435c96","resource":{"resourceType":"MedicationStatement","id":"71afde2f-0be9-4056-a3fb-b25727435c96","status":"completed","medicationCodeableConcept":{"coding":[{"system":"http://www.nlm.nih.gov/research/umls/rxnorm","code":"7984"}]},"subject":{"reference":"Patient/dc3be7c8-e9bc-4744-887e-906dc05651aa"},"effectiveDateTime":"2022-10-24T00:00:00+00:00","dosage":[{"doseAndRate":[{"doseQuantity":{"value":1,"unit":"TAB","system":"http://terminology.hl7.org/CodeSystem/v3-orderableDrugForm","code":"TAB"}}]}]},"request":{"method":"POST","url":"MedicationStatement"}},{"fullUrl":"MedicationStatement/3bebceb4-ae8e-40f9-8826-1251fb7cd0ff","resource":{"resourceType":"MedicationStatement","id":"3bebceb4-ae8e-40f9-8826-1251fb7cd0ff","status":"completed","medicationCodeableConcept":{"coding":[{"system":"http://www.nlm.nih.gov/research/umls/rxnorm","code":"7980"}]},"subject":{"reference":"Patient/dc3be7c8-e9bc-4744-887e-906dc05651aa"},"effectiveDateTime":"2022-12-14T00:00:00+00:00","dosage":[{"doseAndRate":[{"doseQuantity":{"value":1,"unit":"TAB","system":"http://terminology.hl7.org/CodeSystem/v3-orderableDrugForm","code":"TAB"}}]}]},"request":{"method":"POST","url":"MedicationStatement"}},{"fullUrl":"MedicationStatement/4acd2392-c1ec-4d24-bd2f-c93eb852ce51","resource":{"resourceType":"MedicationStatement","id":"4acd2392-c1ec-4d24-bd2f-c93eb852ce51","status":"completed","medicationCodeableConcept":{"coding":[{"system":"http://www.nlm.nih.gov/research/umls/rxnorm","code":"3640"}]},"subject":{"reference":"Patient/dc3be7c8-e9bc-4744-887e-906dc05651aa"},"effectiveDateTime":"2022-12-08T00:00:00+00:00","dosage":[{"doseAndRate":[{"doseQuantity":{"value":1,"unit":"TAB","system":"http://terminology.hl7.org/CodeSystem/v3-orderableDrugForm","code":"TAB"}}]}]},"request":{"method":"POST","url":"MedicationStatement"}},{"fullUrl":"MedicationStatement/20fa9ebf-4c72-441e-a278-030d3656808b","resource":{"resourceType":"MedicationStatement","id":"20fa9ebf-4c72-441e-a278-030d3656808b","status":"completed","medicationCodeableConcept":{"coding":[{"system":"http://www.nlm.nih.gov/research/umls/rxnorm","code":"3640"}]},"subject":{"reference":"Patient/dc3be7c8-e9bc-4744-887e-906dc05651aa"},"effectiveDateTime":"2022-02-12T00:00:00+00:00","dosage":[{"doseAndRate":[{"doseQuantity":{"value":2,"unit":"TAB","system":"http://terminology.hl7.org/CodeSystem/v3-orderableDrugForm","code":"TAB"}}]}]},"request":{"method":"POST","url":"MedicationStatement"}},{"fullUrl":"MedicationStatement/a857781d-43cb-49c8-b5e4-ce75b0e1266f","resource":{"resourceType":"MedicationStatement","id":"a857781d-43cb-49c8-b5e4-ce75b0e1266f","status":"completed","medicationCodeableConcept":{"coding":[{"system":"http://www.nlm.nih.gov/research/umls/rxnorm","code":"8698"}]},"subject":{"reference":"Patient/dc3be7c8-e9bc-4744-887e-906dc05651aa"},"effectiveDateTime":"2022-09-10T00:00:00+00:00","dosage":[{"doseAndRate":[{"doseQuantity":{"value":1,"unit":"TAB","system":"http://terminology.hl7.org/CodeSystem/v3-orderableDrugForm","code":"TAB"}}]}]},"request":{"method":"POST","url":"MedicationStatement"}},{"fullUrl":"MedicationStatement/8ed48570-629b-4764-b743-1ba6d5f7670a","resource":{"resourceType":"MedicationStatement","id":"8ed48570-629b-4764-b743-1ba6d5f7670a","status":"completed","medicationCodeableConcept":{"coding":[{"system":"http://www.nlm.nih.gov/research/umls/rxnorm","code":"3640"}]},"subject":{"reference":"Patient/dc3be7c8-e9bc-4744-887e-906dc05651aa"},"effectiveDateTime":"2022-04-30T00:00:00+00:00","dosage":[{"doseAndRate":[{"doseQuantity":{"value":1,"unit":"TAB","system":"http://terminology.hl7.org/CodeSystem/v3-orderableDrugForm","code":"TAB"}}]}]},"request":{"method":"POST","url":"MedicationStatement"}},{"fullUrl":"MedicationStatement/89d1e511-90b1-4e75-98f3-72fb71554467","resource":{"resourceType":"MedicationStatement","id":"89d1e511-90b1-4e75-98f3-72fb71554467","status":"completed","medicationCodeableConcept":{"coding":[{"system":"http://www.nlm.nih.gov/research/umls/rxnorm","code":"7984"}]},"subject":{"reference":"Patient/dc3be7c8-e9bc-4744-887e-906dc05651aa"},"effectiveDateTime":"2022-06-04T00:00:00+00:00","dosage":[{"doseAndRate":[{"doseQuantity":{"value":1,"unit":"TAB","system":"http://terminology.hl7.org/CodeSystem/v3-orderableDrugForm","code":"TAB"}}]}]},"request":{"method":"POST","url":"MedicationStatement"}},{"fullUrl":"MedicationStatement/48fe97fc-136e-4c76-a691-a28bad893aaf","resource":{"resourceType":"MedicationStatement","id":"48fe97fc-136e-4c76-a691-a28bad893aaf","status":"completed","medicationCodeableConcept":{"coding":[{"system":"http://www.nlm.nih.gov/research/umls/rxnorm","code":"10395"}]},"subject":{"reference":"Patient/dc3be7c8-e9bc-4744-887e-906dc05651aa"},"effectiveDateTime":"2022-11-23T00:00:00+00:00","dosage":[{"doseAndRate":[{"doseQuantity":{"value":6,"unit":"TAB","system":"http://terminology.hl7.org/CodeSystem/v3-orderableDrugForm","code":"TAB"}}]}]},"request":{"method":"POST","url":"MedicationStatement"}},{"fullUrl":"MedicationStatement/61c099e7-7bee-4649-a4d7-9d8cc65b4f48","resource":{"resourceType":"MedicationStatement","id":"61c099e7-7bee-4649-a4d7-9d8cc65b4f48","status":"completed","medicationCodeableConcept":{"coding":[{"system":"http://www.nlm.nih.gov/research/umls/rxnorm","code":"10395"}]},"subject":{"reference":"Patient/dc3be7c8-e9bc-4744-887e-906dc05651aa"},"effectiveDateTime":"2022-09-05T00:00:00+00:00","dosage":[{"doseAndRate":[{"doseQuantity":{"value":5.9,"unit":"TAB","system":"http://terminology.hl7.org/CodeSystem/v3-orderableDrugForm","code":"TAB"}}]}]},"request":{"method":"POST","url":"MedicationStatement"}},{"fullUrl":"MedicationStatement/d07ae6f4-2d62-4fbc-8151-f3cff8688635","resource":{"resourceType":"MedicationStatement","id":"d07ae6f4-2d62-4fbc-8151-f3cff8688635","status":"completed","medicationCodeableConcept":{"coding":[{"system":"http://www.nlm.nih.gov/research/umls/rxnorm","code":"7980"}]},"subject":{"reference":"Patient/dc3be7c8-e9bc-4744-887e-906dc05651aa"},"effectiveDateTime":"2022-01-05T00:00:00+00:00","dosage":[{"doseAndRate":[{"doseQuantity":{"value":5.7,"unit":"TAB","system":"http://terminology.hl7.org/CodeSystem/v3-orderableDrugForm","code":"TAB"}}]}]},"request":{"method":"POST","url":"MedicationStatement"}},{"fullUrl":"Encounter/1df09016-1de9-4444-b0d2-49a8549e027e","resource":{"resourceType":"Encounter","id":"1df09016-1de9-4444-b0d2-49a8549e027e","status":"finished","class":{"system":"http://terminology.hl7.org/CodeSystem/v3-ActCode","code":"IMP","display":"inpatient encounter"},"type":[{"coding":[{"system":"http://terminology.hl7.org/CodeSystem/encounter-type","code":"ADMS"}]}],"subject":{"reference":"Patient/dc3be7c8-e9bc-4744-887e-906dc05651aa"},"period":{"start":"2022-08-06T00:00:00+00:00","end":"2022-08-12T00:00:00+00:00"}},"request":{"method":"POST","url":"Encounter"}},{"fullUrl":"Encounter/6be6dc45-7b64-4714-aa0b-6ce98f71d5af","resource":{"resourceType":"Encounter","id":"6be6dc45-7b64-4714-aa0b-6ce98f71d5af","status":"finished","class":{"system":"http://terminology.hl7.org/CodeSystem/v3-ActCode","code":"IMP","display":"inpatient encounter"},"type":[{"coding":[{"system":"http://terminology.hl7.org/CodeSystem/encounter-type","code":"OKI"}]}],"subject":{"reference":"Patient/dc3be7c8-e9bc-4744-887e-906dc05651aa"},"period":{"start":"2022-06-08T00:00:00+00:00","end":"2022-06-08T00:00:00+00:00"}},"request":{"method":"POST","url":"Encounter"}},{"fullUrl":"Encounter/c4cbacb8-5693-4af6-83ce-7d5716e48de5","resource":{"resourceType":"Encounter","id":"c4cbacb8-5693-4af6-83ce-7d5716e48de5","status":"finished","class":{"system":"http://terminology.hl7.org/CodeSystem/v3-ActCode","code":"IMP","display":"inpatient encounter"},"type":[{"coding":[{"system":"http://terminology.hl7.org/CodeSystem/encounter-type","code":"ADMS"}]}],"subject":{"reference":"Patient/dc3be7c8-e9bc-4744-887e-906dc05651aa"},"period":{"start":"2022-07-01T00:00:00+00:00","end":"2022-07-04T00:00:00+00:00"}},"request":{"method":"POST","url":"Encounter"}},{"fullUrl":"Encounter/1e9f80dd-7d07-42b2-af3f-419f640b0ad2","resource":{"resourceType":"Encounter","id":"1e9f80dd-7d07-42b2-af3f-419f640b0ad2","status":"finished","class":{"system":"http://terminology.hl7.org/CodeSystem/v3-ActCode","code":"HH","display":"home health"},"type":[{"coding":[{"system":"http://terminology.hl7.org/CodeSystem/encounter-type","code":"OKI"}]}],"subject":{"reference":"Patient/dc3be7c8-e9bc-4744-887e-906dc05651aa"},"period":{"start":"2022-05-28T00:00:00+00:00","end":"2022-05-31T00:00:00+00:00"}},"request":{"method":"POST","url":"Encounter"}},{"fullUrl":"Encounter/8438ac2d-e34e-4d71-95bd-7b59a1b5f325","resource":{"resourceType":"Encounter","id":"8438ac2d-e34e-4d71-95bd-7b59a1b5f325","status":"finished","class":{"system":"http://terminology.hl7.org/CodeSystem/v3-ActCode","code":"EMER","display":"emergency"},"type":[{"coding":[{"system":"http://terminology.hl7.org/CodeSystem/encounter-type","code":"CCS60"}]}],"subject":{"reference":"Patient/dc3be7c8-e9bc-4744-887e-906dc05651aa"},"period":{"start":"2022-06-18T00:00:00+00:00","end":"2022-06-25T00:00:00+00:00"}},"request":{"method":"POST","url":"Encounter"}},{"fullUrl":"Patient/13d01e0f-f4a0-45ba-b05f-6c0c11f2dbbd","resource":{"resourceType":"Patient","id":"13d01e0f-f4a0-45ba-b05f-6c0c11f2dbbd","identifier":[{"type":{"coding":[{"system":"http://terminology.hl7.org/CodeSystem/v2-0203","code":"MR"}]},"system":"urn:fhirgen:mrn","value":"278-31-6363"}],"name":[{"family":"Hoover","given":["Gary"]}],"telecom":[{"system":"phone","value":"0721260886"}],"gender":"male","birthDate":"1969-08-12","address":[{"line":["72468 Swanson Walks"],"city":"Cervantesmouth","state":"Iowa","postalCode":"00358"}]},"request":{"method":"POST","url":"Patient"}},{"fullUrl":"Observation/33e4329a-2d5e-42ba-88da-35e339d053c5","resource":{"resourceType":"Observation","id":"33e4329a-2d5e-42ba-88da-35e339d053c5","status":"final","code":{"coding":[{"system":"http://loinc.org","code":"50690-7"}]},"subject":{"reference":"Patient/13d01e0f-f4a0-45ba-b05f-6c0c11f2dbbd"},"effectiveDateTime":"2022-02-05T00:00:00+00:00","valueRatio":{"numerator":{"value":1},"denominator":{"value":32}}},"request":{"method":"POST","url":"Observation"}},{"fullUrl":"Observation/72ff908a-905d-4908-88fa-6b98d26c1515","resource":{"resourceType":"Observation","id":"72ff908a-905d-4908-88fa-6b98d26c1515","status":"final","code":{"coding":[{"system":"http://loinc.org","code":"31147-2"}]},"subject":{"reference":"Patient/13d01e0f-f4a0-45ba-b05f-6c0c11f2dbbd"},"effectiveDateTime":"2022-04-13T00:00:00+00:00","valueRatio":{"numerator":{"value":1},"denominator":{"value":32}}},"request":{"method":"POST","url":"Observation"}},{"fullUrl":"Observation/6a265203-cc86-4619-b479-1d5e14b65263","resource":{"resourceType":"Observation","id":"6a265203-cc86-4619-b479-1d5e14b65263","status":"final","code":{"coding":[{"system":"http://loinc.org","code":"11084-1"}]},"subject":{"reference":"Patient/13d01e0f-f4a0-45ba-b05f-6c0c11f2dbbd"},"effectiveDateTime":"2022-02-20T00:00:00+00:00","valueRatio":{"numerator":{"value":1},"denominator":{"value":32}}},"request":{"method":"POST","url":"Observation"}},{"fullUrl":"Condition/556339f0-8789-48bb-a495-2462e9bb83ff","resource":{"resourceType":"Condition","id":"556339f0-8789-48bb-a495-2462e9bb83ff","code":{"coding":[{"system":"http://snomed.info/sct","code":"386661006"}]},"subject":{"reference":"Patient/13d01e0f-f4a0-45ba-b05f-6c0c11f2dbbd"},"onsetDateTime":"2022-10-31T00:00:00+00:00"},"request":{"method":"POST","url":"Condition"}},{"fullUrl":"Condition/d6793ffe-7854-4c04-bce3-b896afbde507","resource":{"resourceType":"Condition","id":"d6793ffe-7854-4c04-bce3-b896afbde507","code":{"coding":[{"system":"http://snomed.info/sct","code":"297123002"}]},"subject":{"reference":"Patient/13d01e0f-f4a0-45ba-b05f-6c0c11f2dbbd"},"onsetDateTime":"2022-03-23T00:00:00+00:00"},"request":{"method":"POST","url":"Condition"}},{"fullUrl":"Condition/e486fdea-3e80-4803-a640-56205175684f","resource":{"resourceType":"Condition","id":"e486fdea-3e80-4803-a640-56205175684f","code":{"coding":[{"system":"http://snomed.info/sct","code":"297123002"}]},"subject":{"reference":"Patient/13d01e0f-f4a0-45ba-b05f-6c0c11f2dbbd"},"onsetDateTime":"2022-08-08T00:00:00+00:00"},"request":{"method":"POST","url":"Condition"}},{"fullUrl":"Observation/c4d16b12-b878-4eb0-808f-4d415adec9e8","resource":{"resourceType":"Observation","id":"c4d16b12-b878-4eb0-808f-4d415adec9e8","status":"final","code":{"coding":[{"system":"http://loinc.org","code":"49498-9"}]},"subject":{"reference":"Patient/13d01e0f-f4a0-45ba-b05f-6c0c11f2dbbd"},"effectiveDateTime":"2022-03-11T00:00:00+00:00","valueQuantity":{"value":6.3}},"request":{"method":"POST","url":"Observation"}},{"fullUrl":"Observation/bc898cd9-9ac2-4f54-99d8-bf3b7f4a79ab","resource":{"resourceType":"Observation","id":"bc898cd9-9ac2-4f54-99d8-bf3b7f4a79ab","status":"final","code":{"coding":[{"system":"http://loinc.org","code":"804-5"}]},"subject":{"reference":"Patient/13d01e0f-f4a0-45ba-b05f-6c0c11f2dbbd"},"effectiveDateTime":"2022-05-07T00:00:00+00:00","valueQuantity":{"value":5.7}},"request":{"method":"POST","url":"Observation"}},{"fullUrl":"Observation/3c232cdc-9305-45c0-ba85-1d641a366638","resource":{"resourceType":"Observation","id":"3c232cdc-9305-45c0-ba85-1d641a366638","status":"final","code":{"coding":[{"system":"http://loinc.org","code":"804-5"}]},"subject":{"reference":"Patient/13d01e0f-f4a0-45ba-b05f-6c0c11f2dbbd"},"effectiveDateTime":"2022-03-10T00:00:00+00:00","valueQuantity":{"value":6.8}},"request":{"method":"POST","url":"Observation"}},{"fullUrl":"Observation/647d15a6-0212-44a7-8ed4-ddecdf02ebf8","resource":{"resourceType":"Observation","id":"647d15a6-0212-44a7-8ed4-ddecdf02ebf8","status":"final","code":{"coding":[{"system":"http://loinc.org","code":"49498-9"}]},"subject":{"reference":"Patient/13d01e0f-f4a0-45ba-b05f-6c0c11f2dbbd"},"effectiveDateTime":"2022-07-27T00:00:00+00:00"},"request":{"method":"POST","url":"Observation"}},{"fullUrl":"Observation/ae0f8cd3-bead-4941-a2a8-ec171704ae79","resource":{"resourceType":"Observation","id":"ae0f8cd3-bead-4941-a2a8-ec171704ae79","status":"final","code":{"coding":[{"system":"http://loinc.org","code":"49498-9"}]},"subject":{"reference":"Patient/13d01e0f-f4a0-45ba-b05f-6c0c11f2dbbd"},"effectiveDateTime":"2022-07-27T00:00:00+00:00"},"request":{"method":"POST","url":"Observation"}},{"fullUrl":"Observation/45b038a8-d499-4651-a87f-731abcf4d114","resource":{"resourceType":"Observation","id":"45b038a8-d499-4651-a87f-731abcf4d114","status":"final","code":{"coding":[{"system":"http://loinc.org","code":"49498-9"}]},"subject":{"reference":"Patient/13d01e0f-f4a0-45ba-b05f-6c0c11f2dbbd"},"effectiveDateTime":"2022-01-30T00:00:00+00:00"},"request":{"method":"POST","url":"Observation"}},{"fullUrl":"Procedure/e1cfb851-fadd-4527-a376-37a6e704f4f4","resource":{"resourceType":"Procedure","id":"e1cfb851-fadd-4527-a376-37a6e704f4f4","status":"completed","code":{"coding":[{"system":"http://snomed.info/sct","code":"647000"}]},"subject":{"reference":"Patient/13d01e0f-f4a0-45ba-b05f-6c0c11f2dbbd"},"performedDateTime":"2022-07-20T00:00:00+00:00"},"request":{"method":"POST","url":"Procedure"}},{"fullUrl":"Procedure/67c676f0-1496-462e-ba57-bd4e87a41bf5","resource":{"resourceType":"Procedure","id":"67c676f0-1496-462e-ba57-bd4e87a41bf5","status":"completed","code":{"coding":[{"system":"http://snomed.info/sct","code":"104001"}]},"subject":{"reference":"Patient/13d01e0f-f4a0-45ba-b05f-6c0c11f2dbbd"},"performedDateTime":"2022-10-16T00:00:00+00:00"},"request":{"method":"POST","url":"Procedure"}},{"fullUrl":"Procedure/e0028aab-2cda-4cb2-b48f-3ad296a4ff73","resource":{"resourceType":"Procedure","id":"e0028aab-2cda-4cb2-b48f-3ad296a4ff73","status":"completed","code":{"coding":[{"system":"http://snomed.info/sct","code":"647000"}]},"subject":{"reference":"Patient/13d01e0f-f4a0-45ba-b05f-6c0c11f2dbbd"},"performedDateTime":"2022-05-13T00:00:00+00:00"},"request":{"method":"POST","url":"Procedure"}},{"fullUrl":"MedicationStatement/bdcbe5db-1e52-4f47-a4c4-cccf31005fae","resource":{"resourceType":"MedicationStatement","id":"bdcbe5db-1e52-4f47-a4c4-cccf31005fae","status":"completed","medicationCodeableConcept":{"coding":[{"system":"http://www.nlm.nih.gov/research/umls/rxnorm","code":"3640"}]},"subject":{"reference":"Patient/13d01e0f-f4a0-45ba-b05f-6c0c11f2dbbd"},"effectiveDateTime":"2022-04-17T00:00:00+00:00","dosage":[{"doseAndRate":[{"doseQuantity":{"value":1,"unit":"TAB","system":"http://terminology.hl7.org/CodeSystem/v3-orderableDrugForm","code":"TAB"}}]}]},"request":{"method":"POST","url":"MedicationStatement"}},{"fullUrl":"MedicationStatement/0e587989-3c17-4a0e-bc3b-65a19fa9151a","resource":{"resourceType":"MedicationStatement","id":"0e587989-3c17-4a0e-bc3b-65a19fa9151a","status":"completed","medicationCodeableConcept":{"coding":[{"system":"http://www.nlm.nih.gov/research/umls/rxnorm","code":"18631"}]},"subject":{"reference":"Patient/13d01e0f-f4a0-45ba-b05f-6c0c11f2dbbd"},"effectiveDateTime":"2022-11-08T00:00:00+00:00","dosage":[{"doseAndRate":[{"doseQuantity":{"value":2,"unit":"TAB","system":"http://terminology.hl7.org/CodeSystem/v3-orderableDrugForm","code":"TAB"}}]}]},"request":{"method":"POST","url":"MedicationStatement"}},{"fullUrl":"MedicationStatement/fc5c7765-6f6e-4fa9-b9ed-e6f524d5192a","resource":{"resourceType":"MedicationStatement","id":"fc5c7765-6f6e-4fa9-b9ed-e6f524d5192a","status":"completed","medicationCodeableConcept":{"coding":[{"system":"http://www.nlm.nih.gov/research/umls/rxnorm","code":"2193"}]},"subject":{"reference":"Patient/13d01e0f-f4a0-45ba-b05f-6c0c11f2dbbd"},"effectiveDateTime":"2022-03-07T00:00:00+00:00","dosage":[{"doseAndRate":[{"doseQuantity":{"value":1,"unit":"TAB","system":"http://terminology.hl7.org/CodeSystem/v3-orderableDrugForm","code":"TAB"}}]}]},"request":{"method":"POST","url":"MedicationStatement"}},{"fullUrl":"MedicationStatement/236e3679-66e5-4b07-983b-9258dc644d9b","resource":{"resourceType":"MedicationStatement","id":"236e3679-66e5-4b07-983b-9258dc644d9b","status":"completed","medicationCodeableConcept":{"coding":[{"system":"http://www.nlm.nih.gov/research/umls/rxnorm","code":"10395"}]},"subject":{"reference":"Patient/13d01e0f-f4a0-45ba-b05f-6c0c11f2dbbd"},"effectiveDateTime":"2022-07-08T00:00:00+00:00","dosage":[{"doseAndRate":[{"doseQuantity":{"value":2,"unit":"TAB","system":"http://terminology.hl7.org/CodeSystem/v3-orderableDrugForm","code":"TAB"}}]}]},"request":{"method":"POST","url":"MedicationStatement"}},{"fullUrl":"MedicationStatement/28242299-9161-4c7f-8381-38cee795f63a","resource":{"resourceType":"MedicationStatement","id":"28242299-9161-4c7f-8381-38cee795f63a","status":"completed","medicationCodeableConcept":{"coding":[{"system":"http://www.nlm.nih.gov/research/umls/rxnorm","code":"2193"}]},"subject":{"reference":"Patient/13d01e0f-f4a0-45ba-b05f-6c0c11f2dbbd"},"effectiveDateTime":"2022-07-01T00:00:00+00:00","dosage":[{"doseAndRate":[{"doseQuantity":{"value":1,"unit":"TAB","system":"http://terminology.hl7.org/CodeSystem/v3-orderableDrugForm","code":"TAB"}}]}]},"request":{"method":"POST","url":"MedicationStatement"}},{"fullUrl":"MedicationStatement/4db4dd5b-de08-4c2e-93d5-4367f9078074","resource":{"resourceType":"MedicationStatement","id":"4db4dd5b-de08-4c2e-93d5-4367f9078074","status":"completed","medicationCodeableConcept":{"coding":[{"system":"http://www.nlm.nih.gov/research/umls/rxnorm","code":"8698"}]},"subject":{"reference":"Patient/13d01e0f-f4a0-45ba-b05f-6c0c11f2dbbd"},"effectiveDateTime":"2022-03-18T00:00:00+00:00","dosage":[{"doseAndRate":[{"doseQuantity":{"value":4,"unit":"TAB","system":"http://terminology.hl7.org/CodeSystem/v3-orderableDrugForm","code":"TAB"}}]}]},"request":{"method":"POST","url":"MedicationStatement"}},{"fullUrl":"MedicationStatement/57d1d533-c7c0-49ca-81e2-25bec112dc48","resource":{"resourceType":"MedicationStatement","id":"57d1d533-c7c0-49ca-81e2-25bec112dc48","status":"completed","medicationCodeableConcept":{"coding":[{"system":"http://www.nlm.nih.gov/research/umls/rxnorm","code":"8698"}]},"subject":{"reference":"Patient/13d01e0f-f4a0-45ba-b05f-6c0c11f2dbbd"},"effectiveDateTime":"2022-06-20T00:00:00+00:00","dosage":[{"doseAndRate":[{"doseQuantity":{"value":3.6,"unit":"TAB","system":"http://terminology.hl7.org/CodeSystem/v3-orderableDrugForm","code":"TAB"}}]}]},"request":{"method":"POST","url":"MedicationStatement"}},{"fullUrl":"MedicationStatement/c6bc6af0-e19b-487f-ac03-49a0b5fe43ff","resource":{"resourceType":"MedicationStatement","id":"c6bc6af0-e19b-487f-ac03-49a0b5fe43ff","status":"completed","medicationCodeableConcept":{"coding":[{"system":"http://www.nlm.nih.gov/research/umls/rxnorm","code":"3640"}]},"subject":{"reference":"Patient/13d01e0f-f4a0-45ba-b05f-6c0c11f2dbbd"},"effectiveDateTime":"2022-01-28T00:00:00+00:00","dosage":[{"doseAndRate":[{"doseQuantity":{"value":7,"unit":"TAB","system":"http://terminology.hl7.org/CodeSystem/v3-orderableDrugForm","code":"TAB"}}]}]},"request":{"method":"POST","url":"MedicationStatement"}},{"fullUrl":"MedicationStatement/a2eae288-e3b3-438a-9bb3-8dbb5b5f73d6","resource":{"resourceType":"MedicationStatement","id":"a2eae288-e3b3-438a-9bb3-8dbb5b5f73d6","status":"completed","medicationCodeableConcept":{"coding":[{"system":"http://www.nlm.nih.gov/research/umls/rxnorm","code":"10395"}]},"subject":{"reference":"Patient/13d01e0f-f4a0-45ba-b05f-6c0c11f2dbbd"},"effectiveDateTime":"2022-03-03T00:00:00+00:00","dosage":[{"doseAndRate":[{"doseQuantity":{"value":3.2,"unit":"TAB","system":"http://terminology.hl7.org/CodeSystem/v3-orderableDrugForm","code":"TAB"}}]}]},"request":{"method":"POST","url":"MedicationStatement"}},{"fullUrl":"MedicationStatement/7a37c7eb-8061-4aeb-9d50-ddcd26e827b6","resource":{"resourceType":"MedicationStatement","id":"7a37c7eb-8061-4aeb-9d50-ddcd26e827b6","status":"completed","medicationCodeableConcept":{"coding":[{"system":"http://www.nlm.nih.gov/research/umls/rxnorm","code":"7984"}]},"subject":{"reference":"Patient/13d01e0f-f4a0-45ba-b05f-6c0c11f2dbbd"},"effectiveDateTime":"2022-02-14T00:00:00+00:00","dosage":[{"doseAndRate":[{"doseQuantity":{"value":5.4,"unit":"TAB","system":"http://terminology.hl7.org/CodeSystem/v3-orderableDrugForm","code":"TAB"}}]}]},"request":{"method":"POST","url":"MedicationStatement"}},{"fullUrl":"MedicationStatement/007babdc-9fae-4e31-9111-9907fc40b8fe","resource":{"resourceType":"MedicationStatement","id":"007babdc-9fae-4e31-9111-9907fc40b8fe","status":"completed","medicationCodeableConcept":{"coding":[{"system":"http://www.nlm.nih.gov/research/umls/rxnorm","code":"7984"}]},"subject":{"reference":"Patient/13d01e0f-f4a0-45ba-b05f-6c0c11f2dbbd"},"effectiveDateTime":"2022-08-21T00:00:00+00:00","dosage":[{"doseAndRate":[{"doseQuantity":{"value":3.3,"unit":"TAB","system":"http://terminology.hl7.org/CodeSystem/v3-orderableDrugForm","code":"TAB"}}]}]},"request":{"method":"POST","url":"MedicationStatement"}},{"fullUrl":"MedicationStatement/9526f5eb-155b-45f3-ac05-ce6bdafd16fb","resource":{"resourceType":"MedicationStatement","id":"9526f5eb-155b-45f3-ac05-ce6bdafd16fb","status":"completed","medicationCodeableConcept":{"coding":[{"system":"http://www.nlm.nih.gov/research/umls/rxnorm","code":"2193"}]},"subject":{"reference":"Patient/13d01e0f-f4a0-45ba-b05f-6c0c11f2dbbd"},"effectiveDateTime":"2022-08-06T00:00:00+00:00","dosage":[{"doseAndRate":[{"doseQuantity":{"value":6.5,"unit":"TAB","system":"http://terminology.hl7.org/CodeSystem/v3-orderableDrugForm","code":"TAB"}}]}]},"request":{"method":"POST","url":"MedicationStatement"}},{"fullUrl":"Encounter/1ae7a43c-529a-4c5d-8269-d10912f6be51","resource":{"resourceType":"Encounter","id":"1ae7a43c-529a-4c5d-8269-d10912f6be51","status":"finished","class":{"system":"http://terminology.hl7.org/CodeSystem/v3-ActCode","code":"IMP","display":"inpatient encounter"},"type":[{"coding":[{"system":"http://terminology.hl7.org/CodeSystem/encounter-type","code":"ADMS"}]}],"subject":{"reference":"Patient/13d01e0f-f4a0-45ba-b05f-6c0c11f2dbbd"},"period":{"start":"2022-12-27T00:00:00+00:00","end":"2022-12-27T00:00:00+00:00"}},"request":{"method":"POST","url":"Encounter"}},{"fullUrl":"Encounter/c9ce4c9a-0e23-4676-bf41-8c33bc58cca5","resource":{"resourceType":"Encounter","id":"c9ce4c9a-0e23-4676-bf41-8c33bc58cca5","status":"finished","class":{"system":"http://terminology.hl7.org/CodeSystem/v3-ActCode","code":"IMP","display":"inpatient encounter"},"type":[{"coding":[{"system":"http://terminology.hl7.org/CodeSystem/encounter-type","code":"OKI"}]}],"subject":{"reference":"Patient/13d01e0f-f4a0-45ba-b05f-6c0c11f2dbbd"},"period":{"start":"2022-12-23T00:00:00+00:00","end":"2022-12-29T00:00:00+00:00"}},"request":{"method":"POST","url":"Encounter"}},{"fullUrl":"Encounter/7e704b9b-70d1-47c2-b9f3-4144a37f239a","resource":{"resourceType":"Encounter","id":"7e704b9b-70d1-47c2-b9f3-4144a37f239a","status":"finished","class":{"system":"http://terminology.hl7.org/CodeSystem/v3-ActCode","code":"FLD","display":"field"},"type":[{"coding":[{"system":"http://terminology.hl7.org/CodeSystem/encounter-type","code":"OKI"}]}],"subject":{"reference":"Patient/13d01e0f-f4a0-45ba-b05f-6c0c11f2dbbd"},"period":{"start":"2022-10-11T00:00:00+00:00","end":"2022-10-17T00:00:00+00:00"}},"request":{"method":"POST","url":"Encounter"}},{"fullUrl":"Encounter/b9f2f07a-36e1-4145-a722-451acf0d5f7e","resource":{"resourceType":"Encounter","id":"b9f2f07a-36e1-4145-a722-451acf0d5f7e","status":"finished","class":{"system":"http://terminology.hl7.org/CodeSystem/v3-ActCode","code":"VR","display":"virtual"},"type":[{"coding":[{"system":"http://terminology.hl7.org/CodeSystem/encounter-type","code":"BD/BM-clin"}]}],"subject":{"reference":"Patient/13d01e0f-f4a0-45ba-b05f-6c0c11f2dbbd"},"period":{"start":"2022-05-27T00:00:00+00:00","end":"2022-05-27T00:00:00+00:00"}},"request":{"method":"POST","url":"Encounter"}},{"fullUrl":"Patient/0f176cf6-cf71-4e92-b557-c8f40243bdf7","resource":{"resourceType":"Patient","id":"0f176cf6-cf71-4e92-b557-c8f40243bdf7","identifier":[{"type":{"coding":[{"system":"http://terminology.hl7.org/CodeSystem/v2-0203","code":"MR"}]},"system":"urn:fhirgen:mrn","value":"088-55-8875"}],"name":[{"family":"Jackson","given":["Heidi"]}],"telecom":[{"system":"phone","value":"970.721.0471x0056"}],"gender":"female","birthDate":"1990-01-28","address":[{"line":["1941 Natasha Vista Suite 737"],"city":"Lambburgh","state":"Oklahoma","postalCode":"05892"}]},"request":{"method":"POST","url":"Patient"}},{"fullUrl":"Observation/582f1af7-c4be-4348-85ab-59ea04c3ceba","resource":{"resourceType":"Observation","id":"582f1af7-c4be-4348-85ab-59ea04c3ceba","status":"final","code":{"coding":[{"system":"http://loinc.org","code":"71793-4"}]},"subject":{"reference":"Patient/0f176cf6-cf71-4e92-b557-c8f40243bdf7"},"effectiveDateTime":"2022-09-26T00:00:00+00:00","valueRatio":{"numerator":{"value":1},"denominator":{"value":32}}},"request":{"method":"POST","url":"Observation"}},{"fullUrl":"Observation/f4fb6af6-8ad5-41d7-9c8b-8c76465f972f","resource":{"resourceType":"Observation","id":"f4fb6af6-8ad5-41d7-9c8b-8c76465f972f","status":"final","code":{"coding":[{"system":"http://loinc.org","code":"47235-7"}]},"subject":{"reference":"Patient/0f176cf6-cf71-4e92-b557-c8f40243bdf7"},"effectiveDateTime":"2022-11-08T00:00:00+00:00","valueRatio":{"numerator":{"value":1},"denominator":{"value":64}}},"request":{"method":"POST","url":"Observation"}},{"fullUrl":"Condition/01a6c014-0050-417f-a70a-3b978f31e2d5","resource":{"resourceType":"Condition","id":"01a6c014-0050-417f-a70a-3b978f31e2d5","code":{"coding":[{"system":"http://snomed.info/sct","code":"198199009"}]},"subject":{"reference":"Patient/0f176cf6-cf71-4e92-b557-c8f40243bdf7"},"onsetDateTime":"2022-07-18T00:00:00+00:00"},"request":{"method":"POST","url":"Condition"}},{"fullUrl":"Condition/5dda2b7c-1663-4d57-bdb4-29944aabc71f","resource":{"resourceType":"Condition","id":"5dda2b7c-1663-4d57-bdb4-29944aabc71f","code":{"coding":[{"system":"http://snomed.info/sct","code":"271807003"}]},"subject":{"reference":"Patient/0f176cf6-cf71-4e92-b557-c8f40243bdf7"},"onsetDateTime":"2022-02-07T00:00:00+00:00"},"request":{"method":"POST","url":"Condition"}},{"fullUrl":"Condition/d8390ded-70ec-421e-9c95-fe85f97ba2fa","resource":{"resourceType":"Condition","id":"d8390ded-70ec-421e-9c95-fe85f97ba2fa","code":{"coding":[{"system":"http://snomed.info/sct","code":"44882003"}]},"subject":{"reference":"Patient/0f176cf6-cf71-4e92-b557-c8f40243bdf7"},"onsetDateTime":"2022-07-31T00:00:00+00:00"},"request":{"method":"POST","url":"Condition"}},{"fullUrl":"Condition/8d078b2d-19a6-4c4f-9f49-b2f7449c3840","resource":{"resourceType":"Condition","id":"8d078b2d-19a6-4c4f-9f49-b2f7449c3840","code":{"coding":[{"system":"http://snomed.info/sct","code":"18165001"}]},"subject":{"reference":"Patient/0f176cf6-cf71-4e92-b557-c8f40243bdf7"},"onsetDateTime":"2022-09-01T00:00:00+00:00"},"request":{"method":"POST","url":"Condition"}},{"fullUrl":"Condition/f50d376a-8605-4ffa-82d3-6155bb6f9af4","resource":{"resourceType":"Condition","id":"f50d376a-8605-4ffa-82d3-6155bb6f9af4","code":{"coding":[{"system":"http://snomed.info/sct","code":"297123002"}]},"subject":{"reference":"Patient/0f176cf6-cf71-4e92-b557-c8f40243bdf7"},"onsetDateTime":"2022-01-25T00:00:00+00:00"},"request":{"method":"POST","url":"Condition"}},{"fullUrl":"Observation/676e9cdb-5bc1-4866-8d1b-d0d9d5975a25","resource":{"resourceType":"Observation","id":"676e9cdb-5bc1-4866-8d1b-d0d9d5975a25","status":"final","code":{"coding":[{"system":"http://loinc.org","code":"49498-9"}]},"subject":{"reference":"Patient/0f176cf6-cf71-4e92-b557-c8f40243bdf7"},"effectiveDateTime":"2022-07-24T00:00:00+00:00","valueQuantity":{"value":8}},"request":{"method":"POST","url":"Observation"}},{"fullUrl":"Observation/6ce1bacc-8d4a-4b1a-bda2-9f47c2c6f239","resource":{"resourceType":"Observation","id":"6ce1bacc-8d4a-4b1a-bda2-9f47c2c6f239","status":"final","code":{"coding":[{"system":"http://loinc.org","code":"804-5"}]},"subject":{"reference":"Patient/0f176cf6-cf71-4e92-b557-c8f40243bdf7"},"effectiveDateTime":"2022-05-24T00:00:00+00:00","valueQuantity":{"value":5.4}},"request":{"method":"POST","url":"Observation"}},{"fullUrl":"Observation/54c8cbba-7f94-4d11-80d4-99c30413ac97","resource":{"resourceType":"Observation","id":"54c8cbba-7f94-4d11-80d4-99c30413ac97","status":"final","code":{"coding":[{"system":"http://loinc.org","code":"49498-9"}]},"subject":{"reference":"Patient/0f176cf6-cf71-4e92-b557-c8f40243bdf7"},"effectiveDateTime":"2022-10-17T00:00:00+00:00","valueQuantity":{"value":7.9}},"request":{"method":"POST","url":"Observation"}},{"fullUrl":"Observation/322b162d-e72f-4b9e-94df-d33740683622","resource":{"resourceType":"Observation","id":"322b162d-e72f-4b9e-94df-d33740683622","status":"final","code":{"coding":[{"system":"http://loinc.org","code":"49498-9"}]},"subject":{"reference":"Patient/0f176cf6-cf71-4e92-b557-c8f40243bdf7"},"effectiveDateTime":"2022-04-25T00:00:00+00:00"},"request":{"method":"POST","url":"Observation"}},{"fullUrl":"Observation/63659a36-227c-427f-b75d-32584c45970b","resource":{"resourceType":"Observation","id":"63659a36-227c-427f-b75d-32584c45970b","status":"final","code":{"coding":[{"system":"http://loinc.org","code":"49498-9"}]},"subject":{"reference":"Patient/0f176cf6-cf71-4e92-b557-c8f40243bdf7"},"effectiveDateTime":"2022-09-27T00:00:00+00:00"},"request":{"method":"POST","url":"Observation"}},{"fullUrl":"Procedure/8a4dee42-b6a8-4df2-97d9-494e682e18a1","resource":{"resourceType":"Procedure","id":"8a4dee42-b6a8-4df2-97d9-494e682e18a1","status":"completed","code":{"coding":[{"system":"http://snomed.info/sct","code":"189009"}]},"subject":{"reference":"Patient/0f176cf6-cf71-4e92-b557-c8f40243bdf7"},"performedDateTime":"2022-01-05T00:00:00+00:00"},"request":{"method":"POST","url":"Procedure"}},{"fullUrl":"Procedure/824b7ac4-a7ee-4822-9eea-7f2df8e05d4a","resource":{"resourceType":"Procedure","id":"824b7ac4-a7ee-4822-9eea-7f2df8e05d4a","status":"completed","code":{"coding":[{"system":"http://snomed.info/sct","code":"146005"}]},"subject":{"reference":"Patient/0f176cf6-cf71-4e92-b557-c8f40243bdf7"},"performedDateTime":"2022-10-22T00:00:00+00:00"},"request":{"method":"POST","url":"Procedure"}},{"fullUrl":"Procedure/b7f381a6-5462-4ac4-9778-01e452e2df46","resource":{"resourceType":"Procedure","id":"b7f381a6-5462-4ac4-9778-01e452e2df46","status":"completed","code":{"coding":[{"system":"http://snomed.info/sct","code":"189009"}]},"subject":{"reference":"Patient/0f176cf6-cf71-4e92-b557-c8f40243bdf7"},"performedDateTime":"2022-03-13T00:00:00+00:00"},"request":{"method":"POST","url":"Procedure"}},{"fullUrl":"MedicationStatement/9002fd12-9fde-43c9-95a5-9936b1d8f4e8","resource":{"resourceType":"MedicationStatement","id":"9002fd12-9fde-43c9-95a5-9936b1d8f4e8","status":"completed","medicationCodeableConcept":{"coding":[{"system":"http://www.nlm.nih.gov/research/umls/rxnorm","code":"18631"}]},"subject":{"reference":"Patient/0f176cf6-cf71-4e92-b557-c8f40243bdf7"},"effectiveDateTime":"2022-06-07T00:00:00+00:00","dosage":[{"doseAndRate":[{"doseQuantity":{"value":2,"unit":"TAB","system":"http://terminology.hl7.org/CodeSystem/v3-orderableDrugForm","code":"TAB"}}]}]},"request":{"method":"POST","url":"MedicationStatement"}},{"fullUrl":"MedicationStatement/fc6439f0-b8d9-4c42-8310-a7734447adcd","resource":{"resourceType":"MedicationStatement","id":"fc6439f0-b8d9-4c42-8310-a7734447adcd","status":"completed","medicationCodeableConcept":{"coding":[{"system":"http://www.nlm.nih.gov/research/umls/rxnorm","code":"3640"}]},"subject":{"reference":"Patient/0f176cf6-cf71-4e92-b557-c8f40243bdf7"},"effectiveDateTime":"2022-05-22T00:00:00+00:00","dosage":[{"doseAndRate":[{"doseQuantity":{"value":1,"unit":"TAB","system":"http://terminology.hl7.org/CodeSystem/v3-orderableDrugForm","code":"TAB"}}]}]},"request":{"method":"POST","url":"MedicationStatement"}},{"fullUrl":"MedicationStatement/04d79f8c-2f18-49de-8ab4-58ef2c12fb93","resource":{"resourceType":"MedicationStatement","id":"04d79f8c-2f18-49de-8ab4-58ef2c12fb93","status":"completed","medicationCodeableConcept":{"coding":[{"system":"http://www.nlm.nih.gov/research/umls/rxnorm","code":"10395"}]},"subject":{"reference":"Patient/0f176cf6-cf71-4e92-b557-c8f40243bdf7"},"effectiveDateTime":"2022-12-12T00:00:00+00:00","dosage":[{"doseAndRate":[{"doseQuantity":{"value":1,"unit":"TAB","system":"http://terminology.hl7.org/CodeSystem/v3-orderableDrugForm","code":"TAB"}}]}]},"request":{"method":"POST","url":"MedicationStatement"}},{"fullUrl":"MedicationStatement/b71a59e4-4805-49d7-99ee-f2ff3bc8a158","resource":{"resourceType":"MedicationStatement","id":"b71a59e4-4805-49d7-99ee-f2ff3bc8a158","status":"completed","medicationCodeableConcept":{"coding":[{"system":"http://www.nlm.nih.gov/research/umls/rxnorm","code":"3640"}]},"subject":{"reference":"Patient/0f176cf6-cf71-4e92-b557-c8f40243bdf7"},"effectiveDateTime":"2022-12-19T00:00:00+00:00","dosage":[{"doseAndRate":[{"doseQuantity":{"value":2,"unit":"TAB","system":"http://terminology.hl7.org/CodeSystem/v3-orderableDrugForm","code":"TAB"}}]}]},"request":{"method":"POST","url":"MedicationStatement"}},{"fullUrl":"MedicationStatement/8d1a90d6-ce27-4205-b7bf-86fbce055716","resource":{"resourceType":"MedicationStatement","id":"8d1a90d6-ce27-4205-b7bf-86fbce055716","status":"completed","medicationCodeableConcept":{"coding":[{"system":"http://www.nlm.nih.gov/research/umls/rxnorm","code":"7984"}]},"subject":{"reference":"Patient/0f176cf6-cf71-4e92-b557-c8f40243bdf7"},"effectiveDateTime":"2022-02-23T00:00:00+00:00","dosage":[{"doseAndRate":[{"doseQuantity":{"value":2,"unit":"TAB","system":"http://terminology.hl7.org/CodeSystem/v3-orderableDrugForm","code":"TAB"}}]}]},"request":{"method":"POST","url":"MedicationStatement"}},{"fullUrl":"MedicationStatement/1ed663d0-366d-4c0e-abbf-e3a098dc4991","resource":{"resourceType":"MedicationStatement","id":"1ed663d0-366d-4c0e-abbf-e3a098dc4991","status":"completed","medicationCodeableConcept":{"coding":[{"system":"http://www.nlm.nih.gov/research/umls/rxnorm","code":"10395"}]},"subject":{"reference":"Patient/0f176cf6-cf71-4e92-b557-c8f40243bdf7"},"effectiveDateTime":"2022-04-02T00:00:00+00:00","dosage":[{"doseAndRate":[{"doseQuantity":{"value":2,"unit":"TAB","system":"http://terminology.hl7.org/CodeSystem/v3-orderableDrugForm","code":"TAB"}}]}]},"request":{"method":"POST","url":"MedicationStatement"}},{"fullUrl":"MedicationStatement/c062f35e-3300-46c4-9334-bfa98db64a06","resource":{"resourceType":"MedicationStatement","id":"c062f35e-3300-46c4-9334-bfa98db64a06","status":"completed","medicationCodeableConcept":{"coding":[{"system":"http://www.nlm.nih.gov/research/umls/rxnorm","code":"8698"}]},"subject":{"reference":"Patient/0f176cf6-cf71-4e92-b557-c8f40243bdf7"},"effectiveDateTime":"2022-10-18T00:00:00+00:00","dosage":[{"doseAndRate":[{"doseQuantity":{"value":2,"unit":"TAB","system":"http://terminology.hl7.org/CodeSystem/v3-orderableDrugForm","code":"TAB"}}]}]},"request":{"method":"POST","url":"MedicationStatement"}},{"fullUrl":"MedicationStatement/071f7ca9-43ef-4b19-a527-41e3cab3de87","resource":{"resourceType":"MedicationStatement","id":"071f7ca9-43ef-4b19-a527-41e3cab3de87","status":"completed","medicationCodeableConcept":{"coding":[{"system":"http://www.nlm.nih.gov/research/umls/rxnorm","code":"3640"}]},"subject":{"reference":"Patient/0f176cf6-cf71-4e92-b557-c8f40243bdf7"},"effectiveDateTime":"2022-12-27T00:00:00+00:00","dosage":[{"doseAndRate":[{"doseQuantity":{"value":2,"unit":"TAB","system":"http://terminology.hl7.org/CodeSystem/v3-orderableDrugForm","code":"TAB"}}]}]},"request":{"method":"POST","url":"MedicationStatement"}},{"fullUrl":"MedicationStatement/11a7ea07-1f44-46ad-bf4f-09d6d8d30b23","resource":{"resourceType":"MedicationStatement","id":"11a7ea07-1f44-46ad-bf4f-09d6d8d30b23","status":"completed","medicationCodeableConcept":{"coding":[{"system":"http://www.nlm.nih.gov/research/umls/rxnorm","code":"18631"}]},"subject":{"reference":"Patient/0f176cf6-cf71-4e92-b557-c8f40243bdf7"},"effectiveDateTime":"2022-01-11T00:00:00+00:00","dosage":[{"doseAndRate":[{"doseQuantity":{"value":4,"unit":"TAB","system":"http://terminology.hl7.org/CodeSystem/v3-orderableDrugForm","code":"TAB"}}]}]},"request":{"method":"POST","url":"MedicationStatement"}},{"fullUrl":"MedicationStatement/f294aa54-c9fb-4b41-b52f-1e347c583de8","resource":{"resourceType":"MedicationStatement","id":"f294aa54-c9fb-4b41-b52f-1e347c583de8","status":"completed","medicationCodeableConcept":{"coding":[{"system":"http://www.nlm.nih.gov/research/umls/rxnorm","code":"7980"}]},"subject":{"reference":"Patient/0f176cf6-cf71-4e92-b557-c8f40243bdf7"},"effectiveDateTime":"2022-10-02T00:00:00+00:00","dosage":[{"doseAndRate":[{"doseQuantity":{"value":6.4,"unit":"TAB","system":"http://terminology.hl7.org/CodeSystem/v3-orderableDrugForm","code":"TAB"}}]}]},"request":{"method":"POST","url":"MedicationStatement"}},{"fullUrl":"MedicationStatement/3ce5e81c-49e8-46fa-b27a-632f1f80c425","resource":{"resourceType":"MedicationStatement","id":"3ce5e81c-49e8-46fa-b27a-632f1f80c425","status":"completed","medicationCodeableConcept":{"coding":[{"system":"http://www.nlm.nih.gov/research/umls/rxnorm","code":"10395"}]},"subject":{"reference":"Patient/0f176cf6-cf71-4e92-b557-c8f40243bdf7"},"effectiveDateTime":"2022-01-23T00:00:00+00:00","dosage":[{"doseAndRate":[{"doseQuantity":{"value":3.7,"unit":"TAB","system":"http://terminology.hl7.org/CodeSystem/v3-orderableDrugForm","code":"TAB"}}]}]},"request":{"method":"POST","url":"MedicationStatement"}},{"fullUrl":"MedicationStatement/efd7e917-c001-45fa-b655-3ac493898700","resource":{"resourceType":"MedicationStatement","id":"efd7e917-c001-45fa-b655-3ac493898700","status":"completed","medicationCodeableConcept":{"coding":[{"system":"http://www.nlm.nih.gov/research/umls/rxnorm","code":"10395"}]},"subject":{"reference":"Patient/0f176cf6-cf71-4e92-b557-c8f40243bdf7"},"effectiveDateTime":"2022-01-15T00:00:00+00:00","dosage":[{"doseAndRate":[{"doseQuantity":{"value":6.6,"unit":"TAB","system":"http://terminology.hl7.org/CodeSystem/v3-orderableDrugForm","code":"TAB"}}]}]},"request":{"method":"POST","url":"MedicationStatement"}},{"fullUrl":"Encounter/9087b83f-5eb3-44b5-854e-a9cd0ab169d0","resource":{"resourceType":"Encounter","id":"9087b83f-5eb3-44b5-854e-a9cd0ab169d0","status":"finished","class":{"system":"http://terminology.hl7.org/CodeSystem/v3-ActCode","code":"IMP","display":"inpatient encounter"},"type":[{"coding":[{"system":"http://terminology.hl7.org/CodeSystem/encounter-type","code":"BD/BM-clin"}]}],"subject":{"reference":"Patient/0f176cf6-cf71-4e92-b557-c8f40243bdf7"},"period":{"start":"2022-12-27T00:00:00+00:00","end":"2022-12-27T00:00:00+00:00"}},"request":{"method":"POST","url":"Encounter"}},{"fullUrl":"Encounter/a3128d66-eec1-4d70-9787-2c7c34ef2ce1","resource":{"resourceType":"Encounter","id":"a3128d66-eec1-4d70-9787-2c7c34ef2ce1","status":"finished","class":{"system":"http://terminology.hl7.org/CodeSystem/v3-ActCode","code":"IMP","display":"inpatient encounter"},"type":[{"coding":[{"system":"http://terminology.hl7.org/CodeSystem/encounter-type","code":"OKI"}]}],"subject":{"reference":"Patient/0f176cf6-cf71-4e92-b557-c8f40243bdf7"},"period":{"start":"2022-06-02T00:00:00+00:00","end":"2022-06-09T00:00:00+00:00"}},"request":{"method":"POST","url":"Encounter"}},{"fullUrl":"Encounter/5a340a6d-9588-4db4-ac52-1ed854e7165e","resource":{"resourceType":"Encounter","id":"5a340a6d-9588-4db4-ac52-1ed854e7165e","status":"finished","class":{"system":"http://terminology.hl7.org/CodeSystem/v3-ActCode","code":"AMB","display":"ambulatory"},"type":[{"coding":[{"system":"http://terminology.hl7.org/CodeSystem/encounter-type","code":"ADMS"}]}],"subject":{"reference":"Patient/0f176cf6-cf71-4e92-b557-c8f40243bdf7"},"period":{"start":"2022-12-13T00:00:00+00:00","end":"2022-12-19T00:00:00+00:00"}},"request":{"method":"POST","url":"Encounter"}},{"fullUrl":"Encounter/03d8c2ae-bcf7-4f94-81dc-16ce273344b8","resource":{"resourceType":"Encounter","id":"03d8c2ae-bcf7-4f94-81dc-16ce273344b8","status":"finished","class":{"system":"http://terminology.hl7.org/CodeSystem/v3-ActCode","code":"PRENC","display":"pre-admission"},"type":[{"coding":[{"system":"http://terminology.hl7.org/CodeSystem/encounter-type","code":"BD/BM-clin"}]}],"subject":{"reference":"Patient/0f176cf6-cf71-4e92-b557-c8f40243bdf7"},"period":{"start":"2022-07-26T00:00:00+00:00","end":"2022-08-03T00:00:00+00:00"}},"request":{"method":"POST","url":"Encounter"}},{"fullUrl":"Patient/df9d6dca-9f19-4dfd-ba05-365e5eb9b221","resource":{"resourceType":"Patient","id":"df9d6dca-9f19-4dfd-ba05-365e5eb9b221","identifier":[{"type":{"coding":[{"system":"http://terminology.hl7.org/CodeSystem/v2-0203","code":"MR"}]},"system":"urn:fhirgen:mrn","value":"145-95-8378"}],"name":[{"family":"Hunt","given":["Laura"]}],"telecom":[{"system":"phone","value":"9814242670"}],"gender":"female","birthDate":"1982-08-12","address":[{"line":["78782 Tanya Place Apt. 959"],"city":"Adamsburgh","state":"Texas","postalCode":"47212"}]},"request":{"method":"POST","url":"Patient"}},{"fullUrl":"Observation/d52b1246-dcf2-4d88-a608-8f9009c3f201","resource":{"resourceType":"Observation","id":"d52b1246-dcf2-4d88-a608-8f9009c3f201","status":"final","code":{"coding":[{"system":"http://loinc.org","code":"31147-2"}]},"subject":{"reference":"Patient/df9d6dca-9f19-4dfd-ba05-365e5eb9b221"},"effectiveDateTime":"2022-04-19T00:00:00+00:00","valueRatio":{"numerator":{"value":1},"denominator":{"value":4}}},"request":{"method":"POST","url":"Observation"}},{"fullUrl":"Observation/b6199263-2255-472b-927d-51e7672fbdbc","resource":{"resourceType":"Observation","id":"b6199263-2255-472b-927d-51e7672fbdbc","status":"final","code":{"coding":[{"system":"http://loinc.org","code":"50690-7"}]},"subject":{"reference":"Patient/df9d6dca-9f19-4dfd-ba05-365e5eb9b221"},"effectiveDateTime":"2022-04-18T00:00:00+00:00","valueRatio":{"numerator":{"value":1},"denominator":{"value":32}}},"request":{"method":"POST","url":"Observation"}},{"fullUrl":"Observation/2cc3fe84-8eac-48c8-b8c7-14a2cfb5b4de","resource":{"resourceType":"Observation","id":"2cc3fe84-8eac-48c8-b8c7-14a2cfb5b4de","status":"final","code":{"coding":[{"system":"http://loinc.org","code":"31146-4"}]},"subject":{"reference":"Patient/df9d6dca-9f19-4dfd-ba05-365e5eb9b221"},"effectiveDateTime":"2022-03-13T00:00:00+00:00","valueRatio":{"numerator":{"value":1},"denominator":{"value":4}}},"request":{"method":"POST","url":"Observation"}},{"fullUrl":"Condition/3af9a091-202b-4f6d-ada9-09b4856bc114","resource":{"resourceType":"Condition","id":"3af9a091-202b-4f6d-ada9-09b4856bc114","code":{"coding":[{"system":"http://snomed.info/sct","code":"18165001"}]},"subject":{"reference":"Patient/df9d6dca-9f19-4dfd-ba05-365e5eb9b221"},"onsetDateTime":"2022-01-21T00:00:00+00:00"},"request":{"method":"POST","url":"Condition"}},{"fullUrl":"Condition/5c9d6d72-d4ac-4361-ac33-304ff85bc85d","resource":{"resourceType":"Condition","id":"5c9d6d72-d4ac-4361-ac33-304ff85bc85d","code":{"coding":[{"system":"http://snomed.info/sct","code":"30746006"}]},"subject":{"reference":"Patient/df9d6dca-9f19-4dfd-ba05-365e5eb9b221"},"onsetDateTime":"2022-03-03T00:00:00+00:00"},"request":{"method":"POST","url":"Condition"}},{"fullUrl":"Condition/25c0abb3-96e8-41c2-8312-c81339d3b0fc","resource":{"resourceType":"Condition","id":"25c0abb3-96e8-41c2-8312-c81339d3b0fc","code":{"coding":[{"system":"http://snomed.info/sct","code":"71315007"}]},"subject":{"reference":"Patient/df9d6dca-9f19-4dfd-ba05-365e5eb9b221"},"onsetDateTime":"2022-06-29T00:00:00+00:00"},"request":{"method":"POST","url":"Condition"}},{"fullUrl":"Condition/5646e4dc-a665-491b-b3fa-4eaaa67d9142","resource":{"resourceType":"Condition","id":"5646e4dc-a665-491b-b3fa-4eaaa67d9142","code":{"coding":[{"system":"http://snomed.info/sct","code":"386661006"}]},"subject":{"reference":"Patient/df9d6dca-9f19-4dfd-ba05-365e5eb9b221"},"onsetDateTime":"2022-04-27T00:00:00+00:00"},"request":{"method":"POST","url":"Condition"}},{"fullUrl":"Condition/4a1aa241-2b72-4f2d-9e29-b507d7acd4b9","resource":{"resourceType":"Condition","id":"4a1aa241-2b72-4f2d-9e29-b507d7acd4b9","code":{"coding":[{"system":"http://snomed.info/sct","code":"248980004"}]},"subject":{"reference":"Patient/df9d6dca-9f19-4dfd-ba05-365e5eb9b221"},"onsetDateTime":"2022-03-22T00:00:00+00:00"},"request":{"method":"POST","url":"Condition"}},{"fullUrl":"Observation/c18a6fac-d191-48aa-8bbf-54c9e9618179","resource":{"resourceType":"Observation","id":"c18a6fac-d191-48aa-8bbf-54c9e9618179","status":"final","code":{"coding":[{"system":"http://loinc.org","code":"49498-9"}]},"subject":{"reference":"Patient/df9d6dca-9f19-4dfd-ba05-365e5eb9b221"},"effectiveDateTime":"2022-10-03T00:00:00+00:00","valueQuantity":{"value":8.3}},"request":{"method":"POST","url":"Observation"}},{"fullUrl":"Observation/43426c9a-1828-4efd-b69d-412301f0dac7","resource":{"resourceType":"Observation","id":"43426c9a-1828-4efd-b69d-412301f0dac7","status":"final","code":{"coding":[{"system":"http://loinc.org","code":"49498-9"}]},"subject":{"reference":"Patient/df9d6dca-9f19-4dfd-ba05-365e5eb9b221"},"effectiveDateTime":"2022-06-13T00:00:00+00:00","valueQuantity":{"value":7.4}},"request":{"method":"POST","url":"Observation"}},{"fullUrl":"Observation/c77f617c-911a-456c-83d9-c7e55c1e50dd","resource":{"resourceType":"Observation","id":"c77f617c-911a-456c-83d9-c7e55c1e50dd","status":"final","code":{"coding":[{"system":"http://loinc.org","code":"6690-2"}]},"subject":{"reference":"Patient/df9d6dca-9f19-4dfd-ba05-365e5eb9b221"},"effectiveDateTime":"2022-09-13T00:00:00+00:00","valueQuantity":{"value":6.2}},"request":{"method":"POST","url":"Observation"}},{"fullUrl":"Observation/df5c4f31-13a1-434d-b9e2-dc64a26dc778","resource":{"resourceType":"Observation","id":"df5c4f31-13a1-434d-b9e2-dc64a26dc778","status":"final","code":{"coding":[{"system":"http://loinc.org","code":"49498-9"}]},"subject":{"reference":"Patient/df9d6dca-9f19-4dfd-ba05-365e5eb9b221"},"effectiveDateTime":"2022-04-28T00:00:00+00:00"},"request":{"method":"POST","url":"Observation"}},{"fullUrl":"Observation/973ae920-df9b-4f3d-8f9c-2da5c2f7a0ea","resource":{"resourceType":"Observation","id":"973ae920-df9b-4f3d-8f9c-2da5c2f7a0ea","status":"final","code":{"coding":[{"system":"http://loinc.org","code":"49498-9"}]},"subject":{"reference":"Patient/df9d6dca-9f19-4dfd-ba05-365e5eb9b221"},"effectiveDateTime":"2022-07-10T00:00:00+00:00"},"request":{"method":"POST","url":"Observation"}},{"fullUrl":"Observation/6f9c31d1-e063-437a-be0b-559842704ff6","resource":{"resourceType":"Observation","id":"6f9c31d1-e063-437a-be0b-559842704ff6","status":"final","code":{"coding":[{"system":"http://loinc.org","code":"49498-9"}]},"subject":{"reference":"Patient/df9d6dca-9f19-4dfd-ba05-365e5eb9b221"},"effectiveDateTime":"2022-04-21T00:00:00+00:00"},"request":{"method":"POST","url":"Observation"}},{"fullUrl":"Procedure/5bfb196d-afd6-4612-a6e2-4ebba00c31d4","resource":{"resourceType":"Procedure","id":"5bfb196d-afd6-4612-a6e2-4ebba00c31d4","status":"completed","code":{"coding":[{"system":"http://snomed.info/sct","code":"146005"}]},"subject":{"reference":"Patient/df9d6dca-9f19-4dfd-ba05-365e5eb9b221"},"performedDateTime":"2022-03-03T00:00:00+00:00"},"request":{"method":"POST","url":"Procedure"}},{"fullUrl":"Procedure/4575e6f5-01f7-4b50-8e62-12e1f566c4d0","resource":{"resourceType":"Procedure","id":"4575e6f5-01f7-4b50-8e62-12e1f566c4d0","status":"completed","code":{"coding":[{"system":"http://snomed.info/sct","code":"647000"}]},"subject":{"reference":"Patient/df9d6dca-9f19-4dfd-ba05-365e5eb9b221"},"performedDateTime":"2022-01-03T00:00:00+00:00"},"request":{"method":"POST","url":"Procedure"}},{"fullUrl":"Procedure/eb998094-4b58-4f3f-9cb9-cb3e2b2b6f6e","resource":{"resourceType":"Procedure","id":"eb998094-4b58-4f3f-9cb9-cb3e2b2b6f6e","status":"completed","code":{"coding":[{"system":"http://snomed.info/sct","code":"189009"}]},"subject":{"reference":"Patient/df9d6dca-9f19-4dfd-ba05-365e5eb9b221"},"performedDateTime":"2022-12-21T00:00:00+00:00"},"request":{"method":"POST","url":"Procedure"}},{"fullUrl":"MedicationStatement/ac791009-ab08-4b51-870b-55016cd0686d","resource":{"resourceType":"MedicationStatement","id":"ac791009-ab08-4b51-870b-55016cd0686d","status":"completed","medicationCodeableConcept":{"coding":[{"system":"http://www.nlm.nih.gov/research/umls/rxnorm","code":"7980"}]},"subject":{"reference":"Patient/df9d6dca-9f19-4dfd-ba05-365e5eb9b221"},"effectiveDateTime":"2022-04-14T00:00:00+00:00","dosage":[{"doseAndRate":[{"doseQuantity":{"value":1,"unit":"TAB","system":"http://terminology.hl7.org/CodeSystem/v3-orderableDrugForm","code":"TAB"}}]}]},"request":{"method":"POST","url":"MedicationStatement"}},{"fullUrl":"MedicationStatement/b90d72d7-6de2-4710-ace8-dba4d1e6f411","resource":{"resourceType":"MedicationStatement","id":"b90d72d7-6de2-4710-ace8-dba4d1e6f411","status":"completed","medicationCodeableConcept":{"coding":[{"system":"http://www.nlm.nih.gov/research/umls/rxnorm","code":"3640"}]},"subject":{"reference":"Patient/df9d6dca-9f19-4dfd-ba05-365e5eb9b221"},"effectiveDateTime":"2022-01-27T00:00:00+00:00","dosage":[{"doseAndRate":[{"doseQuantity":{"value":6,"unit":"TAB","system":"http://terminology.hl7.org/CodeSystem/v3-orderableDrugForm","code":"TAB"}}]}]},"request":{"method":"POST","url":"MedicationStatement"}},{"fullUrl":"Encounter/9506d0e7-53ff-4e66-aa2d-84d53e4603af","resource":{"resourceType":"Encounter","id":"9506d0e7-53ff-4e66-aa2d-84d53e4603af","status":"finished","class":{"system":"http://terminology.hl7.org/CodeSystem/v3-ActCode","code":"IMP","display":"inpatient encounter"},"type":[{"coding":[{"system":"http://terminology.hl7.org/CodeSystem/encounter-type","code":"ADMS"}]}],"subject":{"reference":"Patient/df9d6dca-9f19-4dfd-ba05-365e5eb9b221"},"period":{"start":"2022-11-25T00:00:00+00:00","end":"2022-12-04T00:00:00+00:00"}},"request":{"method":"POST","url":"Encounter"}},{"fullUrl":"Encounter/1815cf67-8e10-4985-9dc4-69f30c6ee40d","resource":{"resourceType":"Encounter","id":"1815cf67-8e10-4985-9dc4-69f30c6ee40d","status":"finished","class":{"system":"http://terminology.hl7.org/CodeSystem/v3-ActCode","code":"IMP","display":"inpatient encounter"},"type":[{"coding":[{"system":"http://terminology.hl7.org/CodeSystem/encounter-type","code":"BD/BM-clin"}]}],"subject":{"reference":"Patient/df9d6dca-9f19-4dfd-ba05-365e5eb9b221"},"period":{"start":"2022-02-05T00:00:00+00:00","end":"2022-02-05T00:00:00+00:00"}},"request":{"method":"POST","url":"Encounter"}},{"fullUrl":"Encounter/64bb78f7-2698-4f20-84de-70097b56790f","resource":{"resourceType":"Encounter","id":"64bb78f7-2698-4f20-84de-70097b56790f","status":"finished","class":{"system":"http://terminology.hl7.org/CodeSystem/v3-ActCode","code":"OBSENC","display":"observation encounter"},"type":[{"coding":[{"system":"http://terminology.hl7.org/CodeSystem/encounter-type","code":"CCS60"}]}],"subject":{"reference":"Patient/df9d6dca-9f19-4dfd-ba05-365e5eb9b221"},"period":{"start":"2022-03-05T00:00:00+00:00","end":"2022-03-11T00:00:00+00:00"}},"request":{"method":"POST","url":"Encounter"}},{"fullUrl":"Encounter/78d1bbae-6390-49ac-b5ed-4baabe917e50","resource":{"resourceType":"Encounter","id":"78d1bbae-6390-49ac-b5ed-4baabe917e50","status":"finished","class":{"system":"http://terminology.hl7.org/CodeSystem/v3-ActCode","code":"EMER","display":"emergency"},"type":[{"coding":[{"system":"http://terminology.hl7.org/CodeSystem/encounter-type","code":"CCS60"}]}],"subject":{"reference":"Patient/df9d6dca-9f19-4dfd-ba05-365e5eb9b221"},"period":{"start":"2022-03-20T00:00:00+00:00","end":"2022-03-23T00:00:00+00:00"}},"request":{"method":"POST","url":"Encounter"}},{"fullUrl":"Patient/5de4db69-0014-4a03-a632-a0276ad06ea1","resource":{"resourceType":"Patient","id":"5de4db69-0014-4a03-a632-a0276ad06ea1","identifier":[{"type":{"coding":[{"system":"http://terminology.hl7.org/CodeSystem/v2-0203","code":"MR"}]},"system":"urn:fhirgen:mrn","value":"790-20-1768"}],"name":[{"family":"Wright","given":["Michelle"]}],"telecom":[{"system":"phone","value":"330.600.2872"}],"gender":"other","birthDate":"1945-07-06","address":[{"line":["1358 Alexandra Orchard"],"city":"Morrisonborough","state":"Maryland","postalCode":"66760"}]},"request":{"method":"POST","url":"Patient"}},{"fullUrl":"Observation/6a6a9f98-4eaf-422c-87a3-4a4cfcd7424b","resource":{"resourceType":"Observation","id":"6a6a9f98-4eaf-422c-87a3-4a4cfcd7424b","status":"final","code":{"coding":[{"system":"http://loinc.org","code":"71793-4"}]},"subject":{"reference":"Patient/5de4db69-0014-4a03-a632-a0276ad06ea1"},"effectiveDateTime":"2022-12-06T00:00:00+00:00","valueRatio":{"numerator":{"value":1},"denominator":{"value":32}}},"request":{"method":"POST","url":"Observation"}},{"fullUrl":"Observation/d416efce-3454-4ab3-ad65-89e9e10bbf8c","resource":{"resourceType":"Observation","id":"d416efce-3454-4ab3-ad65-89e9e10bbf8c","status":"final","code":{"coding":[{"system":"http://loinc.org","code":"31147-2"}]},"subject":{"reference":"Patient/5de4db69-0014-4a03-a632-a0276ad06ea1"},"effectiveDateTime":"2022-12-15T00:00:00+00:00","valueRatio":{"numerator":{"value":1},"denominator":{"value":4}}},"request":{"method":"POST","url":"Observation"}},{"fullUrl":"Observation/4aba70f1-09eb-455a-8a8b-b3c005b62f09","resource":{"resourceType":"Observation","id":"4aba70f1-09eb-455a-8a8b-b3c005b62f09","status":"final","code":{"coding":[{"system":"http://loinc.org","code":"47235-7"}]},"subject":{"reference":"Patient/5de4db69-0014-4a03-a632-a0276ad06ea1"},"effectiveDateTime":"2022-08-16T00:00:00+00:00","valueRatio":{"numerator":{"value":1},"denominator":{"value":64}}},"request":{"method":"POST","url":"Observation"}},{"fullUrl":"Condition/84322ab0-f04e-430a-bbef-87c7e9ac8af9","resource":{"resourceType":"Condition","id":"84322ab0-f04e-430a-bbef-87c7e9ac8af9","code":{"coding":[{"system":"http://snomed.info/sct","code":"71315007"}]},"subject":{"reference":"Patient/5de4db69-0014-4a03-a632-a0276ad06ea1"},"onsetDateTime":"2022-10-09T00:00:00+00:00"},"request":{"method":"POST","url":"Condition"}},{"fullUrl":"Condition/f5e6b728-4a11-46bd-a529-5ce715635eae","resource":{"resourceType":"Condition","id":"f5e6b728-4a11-46bd-a529-5ce715635eae","code":{"coding":[{"system":"http://snomed.info/sct","code":"709977002"}]},"subject":{"reference":"Patient/5de4db69-0014-4a03-a632-a0276ad06ea1"},"onsetDateTime":"2022-07-31T00:00:00+00:00"},"request":{"method":"POST","url":"Condition"}},{"fullUrl":"Condition/d7c4b8a7-45eb-4661-829d-1f36cd693fdd","resource":{"resourceType":"Condition","id":"d7c4b8a7-45eb-4661-829d-1f36cd693fdd","code":{"coding":[{"system":"http://snomed.info/sct","code":"18165001"}]},"subject":{"reference":"Patient/5de4db69-0014-4a03-a632-a0276ad06ea1"},"onsetDateTime":"2022-05-25T00:00:00+00:00"},"request":{"method":"POST","url":"Condition"}},{"fullUrl":"Condition/ab777c0a-da57-4460-ae90-9544073eb396","resource":{"resourceType":"Condition","id":"ab777c0a-da57-4460-ae90-9544073eb396","code":{"coding":[{"system":"http://snomed.info/sct","code":"736686006"}]},"subject":{"reference":"Patient/5de4db69-0014-4a03-a632-a0276ad06ea1"},"onsetDateTime":"2022-08-21T00:00:00+00:00"},"request":{"method":"POST","url":"Condition"}},{"fullUrl":"Condition/93b09b5e-be18-4072-9414-ee8039197e41","resource":{"resourceType":"Condition","id":"93b09b5e-be18-4072-9414-ee8039197e41","code":{"coding":[{"system":"http://snomed.info/sct","code":"31070006"}]},"subject":{"reference":"Patient/5de4db69-0014-4a03-a632-a0276ad06ea1"},"onsetDateTime":"2022-06-02T00:00:00+00:00"},"request":{"method":"POST","url":"Condition"}},{"fullUrl":"Observation/336d5b77-5cce-44a4-8fc6-681d573aa9ac","resource":{"resourceType":"Observation","id":"336d5b77-5cce-44a4-8fc6-681d573aa9ac","status":"final","code":{"coding":[{"system":"http://loinc.org","code":"49498-9"}]},"subject":{"reference":"Patient/5de4db69-0014-4a03-a632-a0276ad06ea1"},"effectiveDateTime":"2022-06-01T00:00:00+00:00","valueQuantity":{"value":8.2}},"request":{"method":"POST","url":"Observation"}},{"fullUrl":"Observation/2cc0b6c5-a358-46dc-b09d-426ce0c0b20c","resource":{"resourceType":"Observation","id":"2cc0b6c5-a358-46dc-b09d-426ce0c0b20c","status":"final","code":{"coding":[{"system":"http://www.ama-assn.org/go/cpt","code":"85048"}]},"subject":{"reference":"Patient/5de4db69-0014-4a03-a632-a0276ad06ea1"},"effectiveDateTime":"2022-06-22T00:00:00+00:00","valueQuantity":{"value":8.9}},"request":{"method":"POST","url":"Observation"}},{"fullUrl":"Observation/1a044f18-dc81-47d7-884b-a19f4cf66423","resource":{"resourceType":"Observation","id":"1a044f18-dc81-47d7-884b-a19f4cf66423","status":"final","code":{"coding":[{"system":"http://loinc.org","code":"804-5"}]},"subject":{"reference":"Patient/5de4db69-0014-4a03-a632-a0276ad06ea1"},"effectiveDateTime":"2022-01-10T00:00:00+00:00","valueQuantity":{"value":4.1}},"request":{"method":"POST","url":"Observation"}},{"fullUrl":"Observation/2f4785c6-2012-4a9f-aefa-bd269d178dd4","resource":{"resourceType":"Observation","id":"2f4785c6-2012-4a9f-aefa-bd269d178dd4","status":"final","code":{"coding":[{"system":"http://loinc.org","code":"49498-9"}]},"subject":{"reference":"Patient/5de4db69-0014-4a03-a632-a0276ad06ea1"},"effectiveDateTime":"2022-04-09T00:00:00+00:00"},"request":{"method":"POST","url":"Observation"}},{"fullUrl":"Observation/3127dcff-2540-4a9b-95c3-af120210bd4e","resource":{"resourceType":"Observation","id":"3127dcff-2540-4a9b-95c3-af120210bd4e","status":"final","code":{"coding":[{"system":"http://loinc.org","code":"49498-9"}]},"subject":{"reference":"Patient/5de4db69-0014-4a03-a632-a0276ad06ea1"},"effectiveDateTime":"2022-01-20T00:00:00+00:00"},"request":{"method":"POST","url":"Observation"}},{"fullUrl":"Procedure/7ccbcbe0-5489-42d2-abac-6827615479f6","resource":{"resourceType":"Procedure","id":"7ccbcbe0-5489-42d2-abac-6827615479f6","status":"completed","code":{"coding":[{"system":"http://snomed.info/sct","code":"104001"}]},"subject":{"reference":"Patient/5de4db69-0014-4a03-a632-a0276ad06ea1"},"performedDateTime":"2022-05-16T00:00:00+00:00"},"request":{"method":"POST","url":"Procedure"}},{"fullUrl":"Procedure/2157f713-0de4-4721-8a86-1861bfb2f998","resource":{"resourceType":"Procedure","id":"2157f713-0de4-4721-8a86-1861bfb2f998","status":"completed","code":{"coding":[{"system":"http://snomed.info/sct","code":"146005"}]},"subject":{"reference":"Patient/5de4db69-0014-4a03-a632-a0276ad06ea1"},"performedDateTime":"2022-09-08T00:00:00+00:00"},"request":{"method":"POST","url":"Procedure"}},{"fullUrl":"Procedure/2c8eb32a-a658-46e1-b275-fa0cc4a10b78","resource":{"resourceType":"Procedure","id":"2c8eb32a-a658-46e1-b275-fa0cc4a10b78","status":"completed","code":{"coding":[{"system":"http://snomed.info/sct","code":"104001"}]},"subject":{"reference":"Patient/5de4db69-0014-4a03-a632-a0276ad06ea1"},"performedDateTime":"2022-10-01T00:00:00+00:00"},"request":{"method":"POST","url":"Procedure"}},{"fullUrl":"MedicationStatement/559eb729-8da1-4d1e-b019-ea9e82f3e553","resource":{"resourceType":"MedicationStatement","id":"559eb729-8da1-4d1e-b019-ea9e82f3e553","status":"completed","medicationCodeableConcept":{"coding":[{"system":"http://www.nlm.nih.gov/research/umls/rxnorm","code":"10395"}]},"subject":{"reference":"Patient/5de4db69-0014-4a03-a632-a0276ad06ea1"},"effectiveDateTime":"2022-10-17T00:00:00+00:00","dosage":[{"doseAndRate":[{"doseQuantity":{"value":1,"unit":"TAB","system":"http://terminology.hl7.org/CodeSystem/v3-orderableDrugForm","code":"TAB"}}]}]},"request":{"method":"POST","url":"MedicationStatement"}},{"fullUrl":"MedicationStatement/f1e0903a-793d-4fb1-af0e-64d3431067d3","resource":{"resourceType":"MedicationStatement","id":"f1e0903a-793d-4fb1-af0e-64d3431067d3","status":"completed","medicationCodeableConcept":{"coding":[{"system":"http://www.nlm.nih.gov/research/umls/rxnorm","code":"7984"}]},"subject":{"reference":"Patient/5de4db69-0014-4a03-a632-a0276ad06ea1"},"effectiveDateTime":"2022-10-21T00:00:00+00:00","dosage":[{"doseAndRate":[{"doseQuantity":{"value":2,"unit":"TAB","system":"http://terminology.hl7.org/CodeSystem/v3-orderableDrugForm","code":"TAB"}}]}]},"request":{"method":"POST","url":"MedicationStatement"}},{"fullUrl":"MedicationStatement/28dd7465-85ec-4e54-b275-67fe6d898b12","resource":{"resourceType":"MedicationStatement","id":"28dd7465-85ec-4e54-b275-67fe6d898b12","status":"completed","medicationCodeableConcept":{"coding":[{"system":"http://www.nlm.nih.gov/research/umls/rxnorm","code":"7980"}]},"subject":{"reference":"Patient/5de4db69-0014-4a03-a632-a0276ad06ea1"},"effectiveDateTime":"2022-08-04T00:00:00+00:00","dosage":[{"doseAndRate":[{"doseQuantity":{"value":2,"unit":"TAB","system":"http://terminology.hl7.org/CodeSystem/v3-orderableDrugForm","code":"TAB"}}]}]},"request":{"method":"POST","url":"MedicationStatement"}},{"fullUrl":"MedicationStatement/6512ed45-0ab0-47cd-abe7-579268c95402","resource":{"resourceType":"MedicationStatement","id":"6512ed45-0ab0-47cd-abe7-579268c95402","status":"completed","medicationCodeableConcept":{"coding":[{"system":"http://www.nlm.nih.gov/research/umls/rxnorm","code":"3640"}]},"subject":{"reference":"Patient/5de4db69-0014-4a03-a632-a0276ad06ea1"},"effectiveDateTime":"2022-07-31T00:00:00+00:00","dosage":[{"doseAndRate":[{"doseQuantity":{"value":1,"unit":"TAB","system":"http://terminology.hl7.org/CodeSystem/v3-orderableDrugForm","code":"TAB"}}]}]},"request":{"method":"POST","url":"MedicationStatement"}},{"fullUrl":"MedicationStatement/d3ce3f7c-5713-40ff-8b66-4e8bdb6c290f","resource":{"resourceType":"MedicationStatement","id":"d3ce3f7c-5713-40ff-8b66-4e8bdb6c290f","status":"completed","medicationCodeableConcept":{"coding":[{"system":"http://www.nlm.nih.gov/research/umls/rxnorm","code":"2193"}]},"subject":{"reference":"Patient/5de4db69-0014-4a03-a632-a0276ad06ea1"},"effectiveDateTime":"2022-10-30T00:00:00+00:00","dosage":[{"doseAndRate":[{"doseQuantity":{"value":6.7,"unit":"TAB","system":"http://terminology.hl7.org/CodeSystem/v3-orderableDrugForm","code":"TAB"}}]}]},"request":{"method":"POST","url":"MedicationStatement"}},{"fullUrl":"MedicationStatement/3f0aa296-d9d5-455f-aba8-92e27fbc6df6","resource":{"resourceType":"MedicationStatement","id":"3f0aa296-d9d5-455f-aba8-92e27fbc6df6","status":"completed","medicationCodeableConcept":{"coding":[{"system":"http://www.nlm.nih.gov/research/umls/rxnorm","code":"2193"}]},"subject":{"reference":"Patient/5de4db69-0014-4a03-a632-a0276ad06ea1"},"effectiveDateTime":"2022-12-16T00:00:00+00:00","dosage":[{"doseAndRate":[{"doseQuantity":{"value":5.8,"unit":"TAB","system":"http://terminology.hl7.org/CodeSystem/v3-orderableDrugForm","code":"TAB"}}]}]},"request":{"method":"POST","url":"MedicationStatement"}},{"fullUrl":"MedicationStatement/83d52e7c-53e3-4166-b0ac-5be85fce5fba","resource":{"resourceType":"MedicationStatement","id":"83d52e7c-53e3-4166-b0ac-5be85fce5fba","status":"completed","medicationCodeableConcept":{"coding":[{"system":"http://www.nlm.nih.gov/research/umls/rxnorm","code":"8698"}]},"subject":{"reference":"Patient/5de4db69-0014-4a03-a632-a0276ad06ea1"},"effectiveDateTime":"2022-08-24T00:00:00+00:00","dosage":[{"doseAndRate":[{"doseQuantity":{"value":3.7,"unit":"TAB","system":"http://terminology.hl7.org/CodeSystem/v3-orderableDrugForm","code":"TAB"}}]}]},"request":{"method":"POST","url":"MedicationStatement"}},{"fullUrl":"MedicationStatement/940375c4-5f20-4ee5-b04c-f2f044637b11","resource":{"resourceType":"MedicationStatement","id":"940375c4-5f20-4ee5-b04c-f2f044637b11","status":"completed","medicationCodeableConcept":{"coding":[{"system":"http://www.nlm.nih.gov/research/umls/rxnorm","code":"3640"}]},"subject":{"reference":"Patient/5de4db69-0014-4a03-a632-a0276ad06ea1"},"effectiveDateTime":"2022-10-07T00:00:00+00:00","dosage":[{"doseAndRate":[{"doseQuantity":{"value":4.5,"unit":"TAB","system":"http://terminology.hl7.org/CodeSystem/v3-orderableDrugForm","code":"TAB"}}]}]},"request":{"method":"POST","url":"MedicationStatement"}},{"fullUrl":"MedicationStatement/879da886-e6d5-49b1-bbfb-b300e0caef00","resource":{"resourceType":"MedicationStatement","id":"879da886-e6d5-49b1-bbfb-b300e0caef00","status":"completed","medicationCodeableConcept":{"coding":[{"system":"http://www.nlm.nih.gov/research/umls/rxnorm","code":"7984"}]},"subject":{"reference":"Patient/5de4db69-0014-4a03-a632-a0276ad06ea1"},"effectiveDateTime":"2022-08-12T00:00:00+00:00","dosage":[{"doseAndRate":[{"doseQuantity":{"value":4.1,"unit":"TAB","system":"http://terminology.hl7.org/CodeSystem/v3-orderableDrugForm","code":"TAB"}}]}]},"request":{"method":"POST","url":"MedicationStatement"}},{"fullUrl":"MedicationStatement/f390ff59-0793-4d58-ad73-81dc23e257c3","resource":{"resourceType":"MedicationStatement","id":"f390ff59-0793-4d58-ad73-81dc23e257c3","status":"completed","medicationCodeableConcept":{"coding":[{"system":"http://www.nlm.nih.gov/research/umls/rxnorm","code":"3640"}]},"subject":{"reference":"Patient/5de4db69-0014-4a03-a632-a0276ad06ea1"},"effectiveDateTime":"2022-10-24T00:00:00+00:00","dosage":[{"doseAndRate":[{"doseQuantity":{"value":6.7,"unit":"TAB","system":"http://terminology.hl7.org/CodeSystem/v3-orderableDrugForm","code":"TAB"}}]}]},"request":{"method":"POST","url":"MedicationStatement"}},{"fullUrl":"MedicationStatement/b69c9ce3-d481-410e-9b68-995c5441224a","resource":{"resourceType":"MedicationStatement","id":"b69c9ce3-d481-410e-9b68-995c5441224a","status":"completed","medicationCodeableConcept":{"coding":[{"system":"http://www.nlm.nih.gov/research/umls/rxnorm","code":"7984"}]},"subject":{"reference":"Patient/5de4db69-0014-4a03-a632-a0276ad06ea1"},"effectiveDateTime":"2022-02-11T00:00:00+00:00","dosage":[{"doseAndRate":[{"doseQuantity":{"value":5.2,"unit":"TAB","system":"http://terminology.hl7.org/CodeSystem/v3-orderableDrugForm","code":"TAB"}}]}]},"request":{"method":"POST","url":"MedicationStatement"}},{"fullUrl":"MedicationStatement/6ca0dd81-ec8c-483a-bf96-5811a2afbd90","resource":{"resourceType":"MedicationStatement","id":"6ca0dd81-ec8c-483a-bf96-5811a2afbd90","status":"completed","medicationCodeableConcept":{"coding":[{"system":"http://www.nlm.nih.gov/research/umls/rxnorm","code":"10395"}]},"subject":{"reference":"Patient/5de4db69-0014-4a03-a632-a0276ad06ea1"},"effectiveDateTime":"2022-11-04T00:00:00+00:00","dosage":[{"doseAndRate":[{"doseQuantity":{"value":5.2,"unit":"TAB","system":"http://terminology.hl7.org/CodeSystem/v3-orderableDrugForm","code":"TAB"}}]}]},"request":{"method":"POST","url":"MedicationStatement"}},{"fullUrl":"Encounter/0ba1daff-3c8b-4274-82a7-d4c901f2077b","resource":{"resourceType":"Encounter","id":"0ba1daff-3c8b-4274-82a7-d4c901f2077b","status":"finished","class":{"system":"http://terminology.hl7.org/CodeSystem/v3-ActCode","code":"IMP","display":"inpatient encounter"},"type":[{"coding":[{"system":"http://terminology.hl7.org/CodeSystem/encounter-type","code":"ADMS"}]}],"subject":{"reference":"Patient/5de4db69-0014-4a03-a632-a0276ad06ea1"},"period":{"start":"2022-08-25T00:00:00+00:00","end":"2022-08-28T00:00:00+00:00"}},"request":{"method":"POST","url":"Encounter"}},{"fullUrl":"Encounter/7cb22afc-1311-47d0-9679-e00cbe402146","resource":{"resourceType":"Encounter","id":"7cb22afc-1311-47d0-9679-e00cbe402146","status":"finished","class":{"system":"http://terminology.hl7.org/CodeSystem/v3-ActCode","code":"IMP","display":"inpatient encounter"},"type":[{"coding":[{"system":"http://terminology.hl7.org/CodeSystem/encounter-type","code":"ADMS"}]}],"subject":{"reference":"Patient/5de4db69-0014-4a03-a632-a0276ad06ea1"},"period":{"start":"2022-11-23T00:00:00+00:00","end":"2022-11-27T00:00:00+00:00"}},"request":{"method":"POST","url":"Encounter"}},{"fullUrl":"Encounter/9fb8182b-c6b5-4e39-aba9-0f4b72e66824","resource":{"resourceType":"Encounter","id":"9fb8182b-c6b5-4e39-aba9-0f4b72e66824","status":"finished","class":{"system":"http://terminology.hl7.org/CodeSystem/v3-ActCode","code":"VR","display":"virtual"},"type":[{"coding":[{"system":"http://terminology.hl7.org/CodeSystem/encounter-type","code":"OKI"}]}],"subject":{"reference":"Patient/5de4db69-0014-4a03-a632-a0276ad06ea1"},"period":{"start":"2022-07-18T00:00:00+00:00","end":"2022-07-21T00:00:00+00:00"}},"request":{"method":"POST","url":"Encounter"}},{"fullUrl":"Encounter/f6a90d38-f7d0-48c9-8c09-c6897194a4d6","resource":{"resourceType":"Encounter","id":"f6a90d38-f7d0-48c9-8c09-c6897194a4d6","status":"finished","class":{"system":"http://terminology.hl7.org/CodeSystem/v3-ActCode","code":"SS","display":"short-stay"},"type":[{"coding":[{"system":"http://terminology.hl7.org/CodeSystem/encounter-type","code":"ADMS"}]}],"subject":{"reference":"Patient/5de4db69-0014-4a03-a632-a0276ad06ea1"},"period":{"start":"2022-03-30T00:00:00+00:00","end":"2022-03-30T00:00:00+00:00"}},"request":{"method":"POST","url":"Encounter"}},{"fullUrl":"Encounter/ebf17612-048f-4164-801b-3dddc13b4e91","resource":{"resourceType":"Encounter","id":"ebf17612-048f-4164-801b-3dddc13b4e91","status":"finished","class":{"system":"http://terminology.hl7.org/CodeSystem/v3-ActCode","code":"HH","display":"home health"},"type":[{"coding":[{"system":"http://terminology.hl7.org/CodeSystem/encounter-type","code":"OKI"}]}],"subject":{"reference":"Patient/5de4db69-0014-4a03-a632-a0276ad06ea1"},"period":{"start":"2022-11-14T00:00:00+00:00","end":"2022-11-19T00:00:00+00:00"}},"request":{"method":"POST","url":"Encounter"}}]}