{"resourceType":"Bundle","id":"a477e4ae-ac6b-46e6-81b1-9246c4299f05","type":"transaction","entry":[{"fullUrl":"Patient/0afa827b-07ec-4375-ab1d-dceb74f5f2eb","resource":{"resourceType":"Patient","id":"0afa827b-07ec-4375-ab1d-dceb74f5f2eb","identifier":[{"type":{"coding":[{"system":"http://terminology.hl7.org/CodeSystem/v2-0203","code":"MR"}]},"system":"urn:fhirgen:mrn","value":"771-45-2926"}],"name":[{"family":"Macdonald","given":["Matthew"]}],"gender":"male","birthDate":"1963-12-16","address":[{"line":["2962 Goodwin Mall Apt. 041"],"city":"Patelchester","state":"Mississippi"}]},"request":{"method":"POST","url":"Patient"}},{"fullUrl":"Observation/75c16b03-20ce-48a6-80da-8069e79d7955","resource":{"resourceType":"Observation","id":"75c16b03-20ce-48a6-80da-8069e79d7955","status":"final","code":{"coding":[{"system":"http://loinc.org","code":"34382-2"}]},"subject":{"reference":"Patient/0afa827b-07ec-4375-ab1d-dceb74f5f2eb"},"effectiveDateTime":"2022-02-23T00:00:00+00:00","valueRatio":{"numerator":{"value":1.0},"denominator":{"value":4.0}}},"request":{"method":"POST","url":"Observation"}},{"fullUrl":"Observation/0ffd5716-ff50-4a40-8313-62ceb042fe3c","resource":{"resourceType":"Observation","id":"0ffd5716-ff50-4a40-8313-62ceb042fe3c","status":"final","code":{"coding":[{"system":"http://loinc.org","code":"31147-2"}]},"subject":{"reference":"Patient/0afa827b-07ec-4375-ab1d-dceb74f5f2eb"},"effectiveDateTime":"2022-08-21T00:00:00+00:00","valueRatio":{"numerator":{"value":1.0},"denominator":{"value":4.0}}},"request":{"method":"POST","url":"Observation"}},{"fullUrl":"Observation/fc3bf394-da56-4b30-a6b2-96f2fcd17130","resource":{"resourceType":"Observation","id":"fc3bf394-da56-4b30-a6b2-96f2fcd17130","status":"final","code":{"coding":[{"system":"http://loinc.org","code":"11084-1"}]},"subject":{"reference":"Patient/0afa827b-07ec-4375-ab1d-dceb74f5f2eb"},"effectiveDateTime":"2022-09-19T00:00:00+00:00","valueRatio":{"numerator":{"value":1.0},"denominator":{"value":4.0}}},"request":{"method":"POST","url":"Observation"}},{"fullUrl":"Condition/15b39635-e9a7-4c42-8c2c-d35a26566dc5","resource":{"resourceType":"Condition","id":"15b39635-e9a7-4c42-8c2c-d35a26566dc5","code":{"coding":[{"system":"http://snomed.info/sct","code":"248980004"}]},"subject":{"reference":"Patient/0afa827b-07ec-4375-ab1d-dceb74f5f2eb"},"onsetDateTime":"2022-07-01T00:00:00+00:00"},"request":{"method":"POST","url":"Condition"}},{"fullUrl":"Condition/8b141100-0fd1-4062-ad43-f497030bbd09","resource":{"resourceType":"Condition","id":"8b141100-0fd1-4062-ad43-f497030bbd09","code":{"coding":[{"system":"http://snomed.info/sct","code":"736686006"}]},"subject":{"reference":"Patient/0afa827b-07ec-4375-ab1d-dceb74f5f2eb"},"onsetDateTime":"2022-09-15T00:00:00+00:00"},"request":{"method":"POST","url":"Condition"}},{"fullUrl":"Condition/f9e81953-061f-4d96-8f1b-32349c9789b8","resource":{"resourceType":"Condition","id":"f9e81953-061f-4d96-8f1b-32349c9789b8","code":{"coding":[{"system":"http://snomed.info/sct","code":"44882003"}]},"subject":{"reference":"Patient/0afa827b-07ec-4375-ab1d-dceb74f5f2eb"},"onsetDateTime":"2022-03-14T00:00:00+00:00"},"request":{"method":"POST","url":"Condition"}},{"fullUrl":"Condition/4b1abaa6-674a-44d4-9df4-483269e72187","resource":{"resourceType":"Condition","id":"4b1abaa6-674a-44d4-9df4-483269e72187","code":{"coding":[{"system":"http://snomed.info/sct","code":"198199009"}]},"subject":{"reference":"Patient/0afa827b-07ec-4375-ab1d-dceb74f5f2eb"},"onsetDateTime":"2022-10-03T00:00:00+00:00"},"request":{"method":"POST","url":"Condition"}},{"fullUrl":"Condition/fb50d5e6-a6e4-45fd-8d26-ddf07faf3dbc","resource":{"resourceType":"Condition","id":"fb50d5e6-a6e4-45fd-8d26-ddf07faf3dbc","code":{"coding":[{"system":"http://snomed.info/sct","code":"3951002"}]},"subject":{"reference":"Patient/0afa827b-07ec-4375-ab1d-dceb74f5f2eb"},"onsetDateTime":"2022-02-07T00:00:00+00:00"},"request":{"method":"POST","url":"Condition"}},{"fullUrl":"Condition/8b47cc5b-3b46-4910-b8c9-d4ce3a20510a","resource":{"resourceType":"Condition","id":"8b47cc5b-3b46-4910-b8c9-d4ce3a20510a","code":{"coding":[{"system":"http://snomed.info/sct","code":"418290006"}]},"subject":{"reference":"Patient/0afa827b-07ec-4375-ab1d-dceb74f5f2eb"},"onsetDateTime":"2022-09-26T00:00:00+00:00"},"request":{"method":"POST","url":"Condition"}},{"fullUrl":"Observation/d85f6c29-78a0-46e9-9afb-0d3be1b70414","resource":{"resourceType":"Observation","id":"d85f6c29-78a0-46e9-9afb-0d3be1b70414","status":"final","code":{"coding":[{"system":"http://www.ama-assn.org/go/cpt","code":"85048"}]},"subject":{"reference":"Patient/0afa827b-07ec-4375-ab1d-dceb74f5f2eb"},"effectiveDateTime":"2022-11-20T00:00:00+00:00","valueQuantity":{"value":4.4}},"request":{"method":"POST","url":"Observation"}},{"fullUrl":"Observation/93323f70-fbad-447f-9357-f1a6225fffc7","resource":{"resourceType":"Observation","id":"93323f70-fbad-447f-9357-f1a6225fffc7","status":"final","code":{"coding":[{"system":"http://loinc.org","code":"49498-9"}]},"subject":{"reference":"Patient/0afa827b-07ec-4375-ab1d-dceb74f5f2eb"},"effectiveDateTime":"2022-02-16T00:00:00+00:00","valueQuantity":{"value":4.4}},"request":{"method":"POST","url":"Observation"}},{"fullUrl":"Patient/eeb7d2ff-e125-40f2-9659-8293997df757","resource":{"resourceType":"Patient","id":"eeb7d2ff-e125-40f2-9659-8293997df757","identifier":[{"type":{"coding":[{"system":"http://terminology.hl7.org/CodeSystem/v2-0203","code":"MR"}]},"system":"urn:fhirgen:mrn","value":"255-83-6347"}],"name":[{"family":"Adams","given":["Tom"]}],"gender":"male","birthDate":"2000-03-12","address":[{"line":["5584 Aaron Villages"],"city":"Mikaylaland","state":"New Hampshire"}]},"request":{"method":"POST","url":"Patient"}},{"fullUrl":"Observation/e689fd85-d3a1-42e7-9e8f-3a8df408bca5","resource":{"resourceType":"Observation","id":"e689fd85-d3a1-42e7-9e8f-3a8df408bca5","status":"final","code":{"coding":[{"system":"http://loinc.org","code":"50690-7"}]},"subject":{"reference":"Patient/eeb7d2ff-e125-40f2-9659-8293997df757"},"effectiveDateTime":"2022-08-15T00:00:00+00:00","valueRatio":{"numerator":{"value":1.0},"denominator":{"value":32.0}}},"request":{"method":"POST","url":"Observation"}},{"fullUrl":"Observation/72f076ff-7e22-47d8-8b20-6a09647d7d90","resource":{"resourceType":"Observation","id":"72f076ff-7e22-47d8-8b20-6a09647d7d90","status":"final","code":{"coding":[{"system":"http://loinc.org","code":"26009-1"}]},"subject":{"reference":"Patient/eeb7d2ff-e125-40f2-9659-8293997df757"},"effectiveDateTime":"2022-09-16T00:00:00+00:00","valueRatio":{"numerator":{"value":1.0},"denominator":{"value":32.0}}},"request":{"method":"POST","url":"Observation"}},{"fullUrl":"Condition/c94a72ce-32fb-45f4-ad45-1e165c726da5","resource":{"resourceType":"Condition","id":"c94a72ce-32fb-45f4-ad45-1e165c726da5","code":{"coding":[{"system":"http://snomed.info/sct","code":"30746006"}]},"subject":{"reference":"Patient/eeb7d2ff-e125-40f2-9659-8293997df757"},"onsetDateTime":"2022-09-03T00:00:00+00:00"},"request":{"method":"POST","url":"Condition"}},{"fullUrl":"Condition/cc02f0bf-9db4-4cee-ace7-98f6c6b8d3c3","resource":{"resourceType":"Condition","id":"cc02f0bf-9db4-4cee-ace7-98f6c6b8d3c3","code":{"coding":[{"system":"http://snomed.info/sct","code":"56317004"}]},"subject":{"reference":"Patient/eeb7d2ff-e125-40f2-9659-8293997df757"},"onsetDateTime":"2022-08-17T00:00:00+00:00"},"request":{"method":"POST","url":"Condition"}},{"fullUrl":"Condition/744905c9-80e9-44f2-914d-a73f4f6502e8","resource":{"resourceType":"Condition","id":"744905c9-80e9-44f2-914d-a73f4f6502e8","code":{"coding":[{"system":"http://snomed.info/sct","code":"736686006"}]},"subject":{"reference":"Patient/eeb7d2ff-e125-40f2-9659-8293997df757"},"onsetDateTime":"2022-11-01T00:00:00+00:00"},"request":{"method":"POST","url":"Condition"}},{"fullUrl":"Condition/69a6a57a-94c4-45bf-9c59-0455fa681b8d","resource":{"resourceType":"Condition","id":"69a6a57a-94c4-45bf-9c59-0455fa681b8d","code":{"coding":[{"system":"http://snomed.info/sct","code":"91554004"}]},"subject":{"reference":"Patient/eeb7d2ff-e125-40f2-9659-8293997df757"},"onsetDateTime":"2022-03-14T00:00:00+00:00"},"request":{"method":"POST","url":"Condition"}},{"fullUrl":"Condition/26815d2c-725e-4a72-ba8f-dbe21b4c19f1","resource":{"resourceType":"Condition","id":"26815d2c-725e-4a72-ba8f-dbe21b4c19f1","code":{"coding":[{"system":"http://snomed.info/sct","code":"18165001"}]},"subject":{"reference":"Patient/eeb7d2ff-e125-40f2-9659-8293997df757"},"onsetDateTime":"2022-08-04T00:00:00+00:00"},"request":{"method":"POST","url":"Condition"}},{"fullUrl":"Condition/3560fede-40be-4f4c-9125-bc76a53c467b","resource":{"resourceType":"Condition","id":"3560fede-40be-4f4c-9125-bc76a53c467b","code":{"coding":[{"system":"http://snomed.info/sct","code":"271807003"}]},"subject":{"reference":"Patient/eeb7d2ff-e125-40f2-9659-8293997df757"},"onsetDateTime":"2022-01-05T00:00:00+00:00"},"request":{"method":"POST","url":"Condition"}},{"fullUrl":"Condition/95f02dca-de61-4ae9-96fb-5f835fb01831","resource":{"resourceType":"Condition","id":"95f02dca-de61-4ae9-96fb-5f835fb01831","code":{"coding":[{"system":"http://snomed.info/sct","code":"31070006"}]},"subject":{"reference":"Patient/eeb7d2ff-e125-40f2-9659-8293997df757"},"onsetDateTime":"2022-10-17T00:00:00+00:00"},"request":{"method":"POST","url":"Condition"}},{"fullUrl":"Condition/bff5e49c-8bdd-4969-8d0a-88a51bedebe0","resource":{"resourceType":"Condition","id":"bff5e49c-8bdd-4969-8d0a-88a51bedebe0","code":{"coding":[{"system":"http://snomed.info/sct","code":"271807003"}]},"subject":{"reference":"Patient/eeb7d2ff-e125-40f2-9659-8293997df757"},"onsetDateTime":"2022-09-17T00:00:00+00:00"},"request":{"method":"POST","url":"Condition"}},{"fullUrl":"Observation/9ab4500a-63fc-41a4-bb5e-7b7c5f066ab7","resource":{"resourceType":"Observation","id":"9ab4500a-63fc-41a4-bb5e-7b7c5f066ab7","status":"final","code":{"coding":[{"system":"http://loinc.org","code":"6690-2"}]},"subject":{"reference":"Patient/eeb7d2ff-e125-40f2-9659-8293997df757"},"effectiveDateTime":"2022-05-03T00:00:00+00:00","valueQuantity":{"value":8.8}},"request":{"method":"POST","url":"Observation"}},{"fullUrl":"Observation/3aec3c0d-efac-4448-a33b-9994df5a1c6d","resource":{"resourceType":"Observation","id":"3aec3c0d-efac-4448-a33b-9994df5a1c6d","status":"final","code":{"coding":[{"system":"http://www.ama-assn.org/go/cpt","code":"85048"}]},"subject":{"reference":"Patient/eeb7d2ff-e125-40f2-9659-8293997df757"},"effectiveDateTime":"2022-07-22T00:00:00+00:00","valueQuantity":{"value":6.7}},"request":{"method":"POST","url":"Observation"}},{"fullUrl":"Patient/43f21bec-68ae-4b4d-a1f1-f12da6b1bfc7","resource":{"resourceType":"Patient","id":"43f21bec-68ae-4b4d-a1f1-f12da6b1bfc7","identifier":[{"type":{"coding":[{"system":"http://terminology.hl7.org/CodeSystem/v2-0203","code":"MR"}]},"system":"urn:fhirgen:mrn","value":"254-23-7583"}],"name":[{"family":"Stark","given":["Brenda"]}],"gender":"female","birthDate":"1972-08-03","address":[{"line":["4478 Payne Skyway Apt. 597"],"city":"Gilesstad","state":"Montana"}]},"request":{"method":"POST","url":"Patient"}},{"fullUrl":"Observation/2b7d9e46-25d6-4e48-8bfb-f664258421c1","resource":{"resourceType":"Observation","id":"2b7d9e46-25d6-4e48-8bfb-f664258421c1","status":"final","code":{"coding":[{"system":"http://loinc.org","code":"47235-7"}]},"subject":{"reference":"Patient/43f21bec-68ae-4b4d-a1f1-f12da6b1bfc7"},"effectiveDateTime":"2022-08-27T00:00:00+00:00","valueRatio":{"numerator":{"value":1.0},"denominator":{"value":64.0}}},"request":{"method":"POST","url":"Observation"}},{"fullUrl":"Observation/ddbee5ce-6ed2-4836-af9d-89c264fbff57","resource":{"resourceType":"Observation","id":"ddbee5ce-6ed2-4836-af9d-89c264fbff57","status":"final","code":{"coding":[{"system":"http://loinc.org","code":"5394-2"}]},"subject":{"reference":"Patient/43f21bec-68ae-4b4d-a1f1-f12da6b1bfc7"},"effectiveDateTime":"2022-04-24T00:00:00+00:00","valueRatio":{"numerator":{"value":1.0},"denominator":{"value":32.0}}},"request":{"method":"POST","url":"Observation"}},{"fullUrl":"Condition/f46edd6c-5806-4a2f-9cd0-00e1f38483bf","resource":{"resourceType":"Condition","id":"f46edd6c-5806-4a2f-9cd0-00e1f38483bf","code":{"coding":[{"system":"http://snomed.info/sct","code":"709977002"}]},"subject":{"reference":"Patient/43f21bec-68ae-4b4d-a1f1-f12da6b1bfc7"},"onsetDateTime":"2022-11-04T00:00:00+00:00"},"request":{"method":"POST","url":"Condition"}},{"fullUrl":"Condition/f86d4769-fe94-418a-8105-df2943bbe6af","resource":{"resourceType":"Condition","id":"f86d4769-fe94-418a-8105-df2943bbe6af","code":{"coding":[{"system":"http://snomed.info/sct","code":"31070006"}]},"subject":{"reference":"Patient/43f21bec-68ae-4b4d-a1f1-f12da6b1bfc7"},"onsetDateTime":"2022-11-16T00:00:00+00:00"},"request":{"method":"POST","url":"Condition"}},{"fullUrl":"Condition/6807d87e-0875-48b1-a099-6218ab6094ca","resource":{"resourceType":"Condition","id":"6807d87e-0875-48b1-a099-6218ab6094ca","code":{"coding":[{"system":"http://snomed.info/sct","code":"297123002"}]},"subject":{"reference":"Patient/43f21bec-68ae-4b4d-a1f1-f12da6b1bfc7"},"onsetDateTime":"2022-08-28T00:00:00+00:00"},"request":{"method":"POST","url":"Condition"}},{"fullUrl":"Observation/b2fccd11-b88c-4dc0-bec7-ee6ba9074b34","resource":{"resourceType":"Observation","id":"b2fccd11-b88c-4dc0-bec7-ee6ba9074b34","status":"final","code":{"coding":[{"system":"http://loinc.org","code":"804-5"}]},"subject":{"reference":"Patient/43f21bec-68ae-4b4d-a1f1-f12da6b1bfc7"},"effectiveDateTime":"2022-04-02T00:00:00+00:00","valueQuantity":{"value":4.0}},"request":{"method":"POST","url":"Observation"}},{"fullUrl":"Observation/eb25717f-c440-4c89-9b5c-5ffca04eef43","resource":{"resourceType":"Observation","id":"eb25717f-c440-4c89-9b5c-5ffca04eef43","status":"final","code":{"coding":[{"system":"http://loinc.org","code":"26464-8"}]},"subject":{"reference":"Patient/43f21bec-68ae-4b4d-a1f1-f12da6b1bfc7"},"effectiveDateTime":"2022-04-04T00:00:00+00:00","valueQuantity":{"value":10.2}},"request":{"method":"POST","url":"Observation"}},{"fullUrl":"Patient/6a6a40ca-5016-4d5e-bda3-98a8c45297c9","resource":{"resourceType":"Patient","id":"6a6a40ca-5016-4d5e-bda3-98a8c45297c9","identifier":[{"type":{"coding":[{"system":"http://terminology.hl7.org/CodeSystem/v2-0203","code":"MR"}]},"system":"urn:fhirgen:mrn","value":"876-23-0688"}],"name":[{"family":"Martinez","given":["Heather"]}],"gender":"female","birthDate":"1952-03-06","address":[{"line":["1567 Robert Points"],"city":"Andrewburgh","state":"Florida"}]},"request":{"method":"POST","url":"Patient"}},{"fullUrl":"Observation/c7e03673-57ad-46e7-aa3c-d4494fcd1d68","resource":{"resourceType":"Observation","id":"c7e03673-57ad-46e7-aa3c-d4494fcd1d68","status":"final","code":{"coding":[{"system":"http://loinc.org","code":"46203-6"}]},"subject":{"reference":"Patient/6a6a40ca-5016-4d5e-bda3-98a8c45297c9"},"effectiveDateTime":"2022-08-23T00:00:00+00:00","valueRatio":{"numerator":{"value":1.0},"denominator":{"value":64.0}}},"request":{"method":"POST","url":"Observation"}},{"fullUrl":"Observation/92b9472f-3b8c-4cae-b03f-66ecff6cddb9","resource":{"resourceType":"Observation","id":"92b9472f-3b8c-4cae-b03f-66ecff6cddb9","status":"final","code":{"coding":[{"system":"http://loinc.org","code":"26009-1"}]},"subject":{"reference":"Patient/6a6a40ca-5016-4d5e-bda3-98a8c45297c9"},"effectiveDateTime":"2022-07-04T00:00:00+00:00","valueRatio":{"numerator":{"value":1.0},"denominator":{"value":32.0}}},"request":{"method":"POST","url":"Observation"}},{"fullUrl":"Observation/9225b776-dbc7-480c-85c6-21681cd0d9b9","resource":{"resourceType":"Observation","id":"9225b776-dbc7-480c-85c6-21681cd0d9b9","status":"final","code":{"coding":[{"system":"http://loinc.org","code":"47476-7"}]},"subject":{"reference":"Patient/6a6a40ca-5016-4d5e-bda3-98a8c45297c9"},"effectiveDateTime":"2022-08-08T00:00:00+00:00","valueRatio":{"numerator":{"value":1.0},"denominator":{"value":32.0}}},"request":{"method":"POST","url":"Observation"}},{"fullUrl":"Condition/f38f58f5-af35-472b-9268-fcc54cfc1c87","resource":{"resourceType":"Condition","id":"f38f58f5-af35-472b-9268-fcc54cfc1c87","code":{"coding":[{"system":"http://snomed.info/sct","code":"418290006"}]},"subject":{"reference":"Patient/6a6a40ca-5016-4d5e-bda3-98a8c45297c9"},"onsetDateTime":"2022-11-06T00:00:00+00:00"},"request":{"method":"POST","url":"Condition"}},{"fullUrl":"Condition/0a5cdbe5-ebef-4f8e-95b6-de30fba0a159","resource":{"resourceType":"Condition","id":"0a5cdbe5-ebef-4f8e-95b6-de30fba0a159","code":{"coding":[{"system":"http://snomed.info/sct","code":"248980004"}]},"subject":{"reference":"Patient/6a6a40ca-5016-4d5e-bda3-98a8c45297c9"},"onsetDateTime":"2022-07-31T00:00:00+00:00"},"request":{"method":"POST","url":"Condition"}},{"fullUrl":"Condition/a5a3bac5-04cd-4f97-9a8d-a844634cd0a5","resource":{"resourceType":"Condition","id":"a5a3bac5-04cd-4f97-9a8d-a844634cd0a5","code":{"coding":[{"system":"http://snomed.info/sct","code":"18165001"}]},"subject":{"reference":"Patient/6a6a40ca-5016-4d5e-bda3-98a8c45297c9"},"onsetDateTime":"2022-11-16T00:00:00+00:00"},"request":{"method":"POST","url":"Condition"}},{"fullUrl":"Condition/f81c5e61-dac0-43e5-89cf-354a2efe9234","resource":{"resourceType":"Condition","id":"f81c5e61-dac0-43e5-89cf-354a2efe9234","code":{"coding":[{"system":"http://snomed.info/sct","code":"44882003"}]},"subject":{"reference":"Patient/6a6a40ca-5016-4d5e-bda3-98a8c45297c9"},"onsetDateTime":"2022-05-25T00:00:00+00:00"},"request":{"method":"POST","url":"Condition"}},{"fullUrl":"Condition/60c3932d-0d93-41cb-a486-e09e72f5e6fc","resource":{"resourceType":"Condition","id":"60c3932d-0d93-41cb-a486-e09e72f5e6fc","code":{"coding":[{"system":"http://snomed.info/sct","code":"79342006"}]},"subject":{"reference":"Patient/6a6a40ca-5016-4d5e-bda3-98a8c45297c9"},"onsetDateTime":"2022-07-28T00:00:00+00:00"},"request":{"method":"POST","url":"Condition"}},{"fullUrl":"Condition/9ceed4c2-20cd-4a69-a1b9-d4b44c73d47a","resource":{"resourceType":"Condition","id":"9ceed4c2-20cd-4a69-a1b9-d4b44c73d47a","code":{"coding":[{"system":"http://snomed.info/sct","code":"30746006"}]},"subject":{"reference":"Patient/6a6a40ca-5016-4d5e-bda3-98a8c45297c9"},"onsetDateTime":"2022-08-09T00:00:00+00:00"},"request":{"method":"POST","url":"Condition"}},{"fullUrl":"Condition/5bfa5dcb-ec62-48b3-8583-3977ee6c17d1","resource":{"resourceType":"Condition","id":"5bfa5dcb-ec62-48b3-8583-3977ee6c17d1","code":{"coding":[{"system":"http://snomed.info/sct","code":"44882003"}]},"subject":{"reference":"Patient/6a6a40ca-5016-4d5e-bda3-98a8c45297c9"},"onsetDateTime":"2022-06-28T00:00:00+00:00"},"request":{"method":"POST","url":"Condition"}},{"fullUrl":"Observation/0008d06e-bb8b-4495-bf2b-77cd48b2bf74","resource":{"resourceType":"Observation","id":"0008d06e-bb8b-4495-bf2b-77cd48b2bf74","status":"final","code":{"coding":[{"system":"http://loinc.org","code":"6690-2"}]},"subject":{"reference":"Patient/6a6a40ca-5016-4d5e-bda3-98a8c45297c9"},"effectiveDateTime":"2022-11-08T00:00:00+00:00","valueQuantity":{"value":5.7}},"request":{"method":"POST","url":"Observation"}},{"fullUrl":"Observation/2a818e77-c714-4224-94e1-a191abfea8e5","resource":{"resourceType":"Observation","id":"2a818e77-c714-4224-94e1-a191abfea8e5","status":"final","code":{"coding":[{"system":"http://loinc.org","code":"26464-8"}]},"subject":{"reference":"Patient/6a6a40ca-5016-4d5e-bda3-98a8c45297c9"},"effectiveDateTime":"2022-06-06T00:00:00+00:00","valueQuantity":{"value":8.2}},"request":{"method":"POST","url":"Observation"}},{"fullUrl":"Observation/cf4e7c83-2414-460b-bc79-188787dbd841","resource":{"resourceType":"Observation","id":"cf4e7c83-2414-460b-bc79-188787dbd841","status":"final","code":{"coding":[{"system":"http://loinc.org","code":"6690-2"}]},"subject":{"reference":"Patient/6a6a40ca-5016-4d5e-bda3-98a8c45297c9"},"effectiveDateTime":"2022-11-07T00:00:00+00:00","valueQuantity":{"value":5.7}},"request":{"method":"POST","url":"Observation"}},{"fullUrl":"Patient/52810a3e-580a-4a25-ada1-42c4e3435ac0","resource":{"resourceType":"Patient","id":"52810a3e-580a-4a25-ada1-42c4e3435ac0","identifier":[{"type":{"coding":[{"system":"http://terminology.hl7.org/CodeSystem/v2-0203","code":"MR"}]},"system":"urn:fhirgen:mrn","value":"744-31-9300"}],"name":[{"family":"Velez","given":["Ariel"]}],"gender":"other","birthDate":"1999-10-27","address":[{"line":["318 Mason Flats Apt. 036"],"city":"Harrisview","state":"Nevada"}]},"request":{"method":"POST","url":"Patient"}},{"fullUrl":"Observation/2babf299-cfbf-4826-a113-4ac213ce7e34","resource":{"resourceType":"Observation","id":"2babf299-cfbf-4826-a113-4ac213ce7e34","status":"final","code":{"coding":[{"system":"http://loinc.org","code":"31146-4"}]},"subject":{"reference":"Patient/52810a3e-580a-4a25-ada1-42c4e3435ac0"},"effectiveDateTime":"2022-12-14T00:00:00+00:00","valueRatio":{"numerator":{"value":1.0},"denominator":{"value":64.0}}},"request":{"method":"POST","url":"Observation"}},{"fullUrl":"Observation/4f84be36-598e-4a1b-96f4-1e1d1d1072da","resource":{"resourceType":"Observation","id":"4f84be36-598e-4a1b-96f4-1e1d1d1072da","status":"final","code":{"coding":[{"system":"http://loinc.org","code":"50690-7"}]},"subject":{"reference":"Patient/52810a3e-580a-4a25-ada1-42c4e3435ac0"},"effectiveDateTime":"2022-04-21T00:00:00+00:00","valueRatio":{"numerator":{"value":1.0},"denominator":{"value":64.0}}},"request":{"method":"POST","url":"Observation"}},{"fullUrl":"Condition/cdfdfe9e-3e17-47c4-8f85-4059c659da2c","resource":{"resourceType":"Condition","id":"cdfdfe9e-3e17-47c4-8f85-4059c659da2c","code":{"coding":[{"system":"http://snomed.info/sct","code":"418290006"}]},"subject":{"reference":"Patient/52810a3e-580a-4a25-ada1-42c4e3435ac0"},"onsetDateTime":"2022-05-02T00:00:00+00:00"},"request":{"method":"POST","url":"Condition"}},{"fullUrl":"Condition/47caba06-74d6-4e18-9d66-274bc99ae73c","resource":{"resourceType":"Condition","id":"47caba06-74d6-4e18-9d66-274bc99ae73c","code":{"coding":[{"system":"http://snomed.info/sct","code":"30746006"}]},"subject":{"reference":"Patient/52810a3e-580a-4a25-ada1-42c4e3435ac0"},"onsetDateTime":"2022-07-02T00:00:00+00:00"},"request":{"method":"POST","url":"Condition"}},{"fullUrl":"Condition/b675c813-361d-4eab-af3d-66329b1491d4","resource":{"resourceType":"Condition","id":"b675c813-361d-4eab-af3d-66329b1491d4","code":{"coding":[{"system":"http://snomed.info/sct","code":"3951002"}]},"subject":{"reference":"Patient/52810a3e-580a-4a25-ada1-42c4e3435ac0"},"onsetDateTime":"2022-02-14T00:00:00+00:00"},"request":{"method":"POST","url":"Condition"}},{"fullUrl":"Condition/cf5bc18c-1406-4663-be46-a767d7563295","resource":{"resourceType":"Condition","id":"cf5bc18c-1406-4663-be46-a767d7563295","code":{"coding":[{"system":"http://snomed.info/sct","code":"405737000"}]},"subject":{"reference":"Patient/52810a3e-580a-4a25-ada1-42c4e3435ac0"},"onsetDateTime":"2022-10-22T00:00:00+00:00"},"request":{"method":"POST","url":"Condition"}},{"fullUrl":"Condition/aefd995f-236b-4f19-a509-2af685568fba","resource":{"resourceType":"Condition","id":"aefd995f-236b-4f19-a509-2af685568fba","code":{"coding":[{"system":"http://snomed.info/sct","code":"31070006"}]},"subject":{"reference":"Patient/52810a3e-580a-4a25-ada1-42c4e3435ac0"},"onsetDateTime":"2022-06-12T00:00:00+00:00"},"request":{"method":"POST","url":"Condition"}},{"fullUrl":"Condition/f47dabe2-b808-4829-aa83-90d5c2fd9830","resource":{"resourceType":"Condition","id":"f47dabe2-b808-4829-aa83-90d5c2fd9830","code":{"coding":[{"system":"http://snomed.info/sct","code":"71315007"}]},"subject":{"reference":"Patient/52810a3e-580a-4a25-ada1-42c4e3435ac0"},"onsetDateTime":"2022-11-26T00:00:00+00:00"},"request":{"method":"POST","url":"Condition"}},{"fullUrl":"Condition/5c6cb629-485a-4c93-be82-2ed69fb135f7","resource":{"resourceType":"Condition","id":"5c6cb629-485a-4c93-be82-2ed69fb135f7","code":{"coding":[{"system":"http://snomed.info/sct","code":"736686006"}]},"subject":{"reference":"Patient/52810a3e-580a-4a25-ada1-42c4e3435ac0"},"onsetDateTime":"2022-12-12T00:00:00+00:00"},"request":{"method":"POST","url":"Condition"}},{"fullUrl":"Observation/763c40db-53dc-43ba-a28a-a2b90a28eb54","resource":{"resourceType":"Observation","id":"763c40db-53dc-43ba-a28a-a2b90a28eb54","status":"final","code":{"coding":[{"system":"http://loinc.org","code":"6690-2"}]},"subject":{"reference":"Patient/52810a3e-580a-4a25-ada1-42c4e3435ac0"},"effectiveDateTime":"2022-10-06T00:00:00+00:00","valueQuantity":{"value":5.6}},"request":{"method":"POST","url":"Observation"}},{"fullUrl":"Observation/4588a744-2065-4fcf-a869-568f806a9a22","resource":{"resourceType":"Observation","id":"4588a744-2065-4fcf-a869-568f806a9a22","status":"final","code":{"coding":[{"system":"http://loinc.org","code":"6690-2"}]},"subject":{"reference":"Patient/52810a3e-580a-4a25-ada1-42c4e3435ac0"},"effectiveDateTime":"2022-01-07T00:00:00+00:00","valueQuantity":{"value":10.8}},"request":{"method":"POST","url":"Observation"}}]}