{"resourceType":"Bundle","id":"4883dc60-c05f-4fee-98e4-4db3f3d7984e","type":"collection","entry":[{"fullUrl":"Patient/4cb29e5b-7e69-41f9-9fa8-3d1a210d9616","resource":{"resourceType":"Patient","id":"4cb29e5b-7e69-41f9-9fa8-3d1a210d9616","meta":{"profile":["http://hl7.org/fhir/us/core/StructureDefinition/us-core-patient"]},"extension":[{"extension":[{"url":"ombCategory","valueCoding":{"system":"http://terminology.hl7.org/CodeSystem/v3-NullFlavor","code":"ASKU","display":"Asked but no answer"}},{"url":"text","valueString":"Asked but no answer"}],"url":"http://hl7.org/fhir/us/core/StructureDefinition/us-core-race"},{"extension":[{"url":"ombCategory","valueCoding":{"system":"urn:oid:2.16.840.1.113883.6.238","code":"2135-2","display":"Hispanic or Latino"}},{"url":"text","valueString":"Hispanic or Latino"}],"url":"http://hl7.org/fhir/us/core/StructureDefinition/us-core-ethnicity"}],"identifier":[{"type":{"coding":[{"system":"http://terminology.hl7.org/CodeSystem/v2-0203","code":"MR"}]},"system":"urn:fhirgen:mrn","value":"664-41-2836"}],"name":[{"family":"Lam","given":["John"]}],"telecom":[{"system":"phone","value":"(166)959-6917x537","use":"home"}],"gender":"male","birthDate":"1995-02-06","address":[{"line":["367 Lindsay Inlet"],"city":"West Brandiborough","state":"Michigan","postalCode":"47429"}]}},{"fullUrl":"Observation/c1269b79-8550-4686-a162-587a9131eb6b","resource":{"resourceType":"Observation","id":"c1269b79-8550-4686-a162-587a9131eb6b","meta":{"profile":["http://hl7.org/fhir/us/core/StructureDefinition/us-core-observation-lab"]},"status":"final","category":[{"coding":[{"system":"http://terminology.hl7.org/CodeSystem/observation-category","code":"laboratory","display":"Laboratory"}]}],"code":{"coding":[{"system":"http://loinc.org","code":"31146-4"}]},"subject":{"reference":"Patient/4cb29e5b-7e69-41f9-9fa8-3d1a210d9616"},"effectiveDateTime":"2022-05-12T00:00:00+00:00","valueRatio":{"numerator":{"value":1},"denominator":{"value":32}}}},{"fullUrl":"Observation/3f0aacc6-8069-4c1c-844d-5c2aad2b8f7b","resource":{"resourceType":"Observation","id":"3f0aacc6-8069-4c1c-844d-5c2aad2b8f7b","meta":{"profile":["http://hl7.org/fhir/us/core/StructureDefinition/us-core-observation-lab"]},"status":"final","category":[{"coding":[{"system":"http://terminology.hl7.org/CodeSystem/observation-category","code":"laboratory","display":"Laboratory"}]}],"code":{"coding":[{"system":"http://loinc.org","code":"50690-7"}]},"subject":{"reference":"Patient/4cb29e5b-7e69-41f9-9fa8-3d1a210d9616"},"effectiveDateTime":"2022-08-30T00:00:00+00:00","valueRatio":{"numerator":{"value":1},"denominator":{"value":64}}}},{"fullUrl":"Observation/275fe84b-7dbf-4f6b-8ebb-28f9d94a439a","resource":{"resourceType":"Observation","id":"275fe84b-7dbf-4f6b-8ebb-28f9d94a439a","meta":{"profile":["http://hl7.org/fhir/us/core/StructureDefinition/us-core-observation-lab"]},"status":"final","category":[{"coding":[{"system":"http://terminology.hl7.org/CodeSystem/observation-category","code":"laboratory","display":"Laboratory"}]}],"code":{"coding":[{"system":"http://loinc.org","code":"87925-4"}]},"subject":{"reference":"Patient/4cb29e5b-7e69-41f9-9fa8-3d1a210d9616"},"effectiveDateTime":"2022-11-17T00:00:00+00:00","valueRatio":{"numerator":{"value":1},"denominator":{"value":32}}}},{"fullUrl":"Condition/8a1f5258-c245-4860-9d6e-5d2307b18c6b","resource":{"resourceType":"Condition","id":"8a1f5258-c245-4860-9d6e-5d2307b18c6b","meta":{"profile":["http://hl7.org/fhir/us/core/StructureDefinition/us-core-condition"]},"clinicalStatus":{"coding":[{"system":"http://terminology.hl7.org/CodeSystem/condition-clinical","code":"active","display":"Active"}]},"category":[{"coding":[{"system":"http://terminology.hl7.org/CodeSystem/condition-ver-status","code":"confirmed"}]}],"code":{"coding":[{"system":"http://snomed.info/sct","code":"91554004"}]},"subject":{"reference":"Patient/4cb29e5b-7e69-41f9-9fa8-3d1a210d9616"},"onsetDateTime":"2022-11-10T00:00:00+00:00"}},{"fullUrl":"Condition/c8ec4364-90cf-461b-a6a8-644cc40fa241","resource":{"resourceType":"Condition","id":"c8ec4364-90cf-461b-a6a8-644cc40fa241","meta":{"profile":["http://hl7.org/fhir/us/core/StructureDefinition/us-core-condition"]},"clinicalStatus":{"coding":[{"system":"http://terminology.hl7.org/CodeSystem/condition-clinical","code":"active","display":"Active"}]},"category":[{"coding":[{"system":"http://terminology.hl7.org/CodeSystem/condition-ver-status","code":"confirmed"}]}],"code":{"coding":[{"system":"http://snomed.info/sct","code":"91554004"}]},"subject":{"reference":"Patient/4cb29e5b-7e69-41f9-9fa8-3d1a210d9616"},"onsetDateTime":"2022-07-01T00:00:00+00:00"}},{"fullUrl":"Condition/1159fc02-48fc-41b6-8be4-38ccbe5ca0c8","resource":{"resourceType":"Condition","id":"1159fc02-48fc-41b6-8be4-38ccbe5ca0c8","meta":{"profile":["http://hl7.org/fhir/us/core/StructureDefinition/us-core-condition"]},"clinicalStatus":{"coding":[{"system":"http://terminology.hl7.org/CodeSystem/condition-clinical","code":"active","display":"Active"}]},"category":[{"coding":[{"system":"http://terminology.hl7.org/CodeSystem/condition-ver-status","code":"confirmed"}]}],"code":{"coding":[{"system":"http://snomed.info/sct","code":"418290006"}]},"subject":{"reference":"Patient/4cb29e5b-7e69-41f9-9fa8-3d1a210d9616"},"onsetDateTime":"2022-01-07T00:00:00+00:00"}},{"fullUrl":"Condition/53c394ba-c8a0-4c47-b087-90fae4a4122e","resource":{"resourceType":"Condition","id":"53c394ba-c8a0-4c47-b087-90fae4a4122e","meta":{"profile":["http://hl7.org/fhir/us/core/StructureDefinition/us-core-condition"]},"clinicalStatus":{"coding":[{"system":"http://terminology.hl7.org/CodeSystem/condition-clinical","code":"active","display":"Active"}]},"category":[{"coding":[{"system":"http://terminology.hl7.org/CodeSystem/condition-ver-status","code":"confirmed"}]}],"code":{"coding":[{"system":"http://snomed.info/sct","code":"44882003"}]},"subject":{"reference":"Patient/4cb29e5b-7e69-41f9-9fa8-3d1a210d9616"},"onsetDateTime":"2022-07-02T00:00:00+00:00"}},{"fullUrl":"Condition/9d3775d5-eb45-4dec-bba4-7160300a7f31","resource":{"resourceType":"Condition","id":"9d3775d5-eb45-4dec-bba4-7160300a7f31","meta":{"profile":["http://hl7.org/fhir/us/core/StructureDefinition/us-core-condition"]},"clinicalStatus":{"coding":[{"system":"http://terminology.hl7.org/CodeSystem/condition-clinical","code":"active","display":"Active"}]},"category":[{"coding":[{"system":"http://terminology.hl7.org/CodeSystem/condition-ver-status","code":"confirmed"}]}],"code":{"coding":[{"system":"http://snomed.info/sct","code":"709977002"}]},"subject":{"reference":"Patient/4cb29e5b-7e69-41f9-9fa8-3d1a210d9616"},"onsetDateTime":"2022-04-27T00:00:00+00:00"}},{"fullUrl":"Observation/96a1e9f7-60c4-42b7-8a3a-1b670a516371","resource":{"resourceType":"Observation","id":"96a1e9f7-60c4-42b7-8a3a-1b670a516371","meta":{"profile":["http://hl7.org/fhir/us/core/StructureDefinition/us-core-observation-lab"]},"status":"final","category":[{"coding":[{"system":"http://terminology.hl7.org/CodeSystem/observation-category","code":"laboratory","display":"Laboratory"}]}],"code":{"coding":[{"system":"http://www.ama-assn.org/go/cpt","code":"85048"}]},"subject":{"reference":"Patient/4cb29e5b-7e69-41f9-9fa8-3d1a210d9616"},"effectiveDateTime":"2022-09-08T00:00:00+00:00","valueQuantity":{"value":7.2}}},{"fullUrl":"Observation/14681d4b-9c99-4013-94b1-d1fd2548cf2f","resource":{"resourceType":"Observation","id":"14681d4b-9c99-4013-94b1-d1fd2548cf2f","meta":{"profile":["http://hl7.org/fhir/us/core/StructureDefinition/us-core-observation-lab"]},"status":"final","category":[{"coding":[{"system":"http://terminology.hl7.org/CodeSystem/observation-category","code":"laboratory","display":"Laboratory"}]}],"code":{"coding":[{"system":"http://loinc.org","code":"804-5"}]},"subject":{"reference":"Patient/4cb29e5b-7e69-41f9-9fa8-3d1a210d9616"},"effectiveDateTime":"2022-04-16T00:00:00+00:00","valueQuantity":{"value":9.2}}},{"fullUrl":"Observation/f8aface4-c281-4258-aefe-315578df0e05","resource":{"resourceType":"Observation","id":"f8aface4-c281-4258-aefe-315578df0e05","meta":{"profile":["http://hl7.org/fhir/us/core/StructureDefinition/us-core-bmi"]},"status":"final","category":[{"coding":[{"system":"http://terminology.hl7.org/CodeSystem/observation-category","code":"vital-signs","display":"Vital Signs"}]}],"code":{"coding":[{"system":"http://loinc.org","code":"39156-5"}]},"subject":{"reference":"Patient/4cb29e5b-7e69-41f9-9fa8-3d1a210d9616"},"effectiveDateTime":"2022-01-23T00:00:00+00:00","valueQuantity":{"value":11.45,"unit":"kg/m2","system":"http://unitsofmeasure.org","code":"kg/m2"}}},{"fullUrl":"Observation/3a6abf3a-b8c2-4e38-ac66-0010c537fb70","resource":{"resourceType":"Observation","id":"3a6abf3a-b8c2-4e38-ac66-0010c537fb70","meta":{"profile":["http://hl7.org/fhir/us/core/StructureDefinition/us-core-bmi"]},"status":"final","category":[{"coding":[{"system":"http://terminology.hl7.org/CodeSystem/observation-category","code":"vital-signs","display":"Vital Signs"}]}],"code":{"coding":[{"system":"http://loinc.org","code":"39156-5"}]},"subject":{"reference":"Patient/4cb29e5b-7e69-41f9-9fa8-3d1a210d9616"},"effectiveDateTime":"2022-04-29T00:00:00+00:00","valueQuantity":{"value":16.6,"unit":"kg/m2","system":"http://unitsofmeasure.org","code":"kg/m2"}}},{"fullUrl":"Observation/c5927817-e00e-46d5-b386-adc0648c6996","resource":{"resourceType":"Observation","id":"c5927817-e00e-46d5-b386-adc0648c6996","meta":{"profile":["http://hl7.org/fhir/us/core/StructureDefinition/us-core-head-circumference"]},"status":"final","category":[{"coding":[{"system":"http://terminology.hl7.org/CodeSystem/observation-category","code":"vital-signs","display":"Vital Signs"}]}],"code":{"coding":[{"system":"http://loinc.org","code":"9843-4"}]},"subject":{"reference":"Patient/4cb29e5b-7e69-41f9-9fa8-3d1a210d9616"},"effectiveDateTime":"2022-11-15T00:00:00+00:00","valueQuantity":{"value":9.3,"unit":"Inch","system":"http://unitsofmeasure.org","code":"[in_i]"}}},{"fullUrl":"Observation/c7d0f21e-ffcc-4aef-8805-31894d995d39","resource":{"resourceType":"Observation","id":"c7d0f21e-ffcc-4aef-8805-31894d995d39","meta":{"profile":["http://hl7.org/fhir/us/core/StructureDefinition/us-core-head-circumference"]},"status":"final","category":[{"coding":[{"system":"http://terminology.hl7.org/CodeSystem/observation-category","code":"vital-signs","display":"Vital Signs"}]}],"code":{"coding":[{"system":"http://loinc.org","code":"9843-4"}]},"subject":{"reference":"Patient/4cb29e5b-7e69-41f9-9fa8-3d1a210d9616"},"effectiveDateTime":"2022-09-10T00:00:00+00:00","valueQuantity":{"value":7.6,"unit":"Inch","system":"http://unitsofmeasure.org","code":"[in_i]"}}},{"fullUrl":"Observation/12421f7e-3c42-4ee0-bf09-fcd9b17620f5","resource":{"resourceType":"Observation","id":"12421f7e-3c42-4ee0-bf09-fcd9b17620f5","meta":{"profile":["http://hl7.org/fhir/us/core/StructureDefinition/us-core-body-height"]},"status":"final","category":[{"coding":[{"system":"http://terminology.hl7.org/CodeSystem/observation-category","code":"vital-signs","display":"Vital Signs"}]}],"code":{"coding":[{"system":"http://loinc.org","code":"8302-2"}]},"subject":{"reference":"Patient/4cb29e5b-7e69-41f9-9fa8-3d1a210d9616"},"effectiveDateTime":"2022-12-03T00:00:00+00:00","valueQuantity":{"value":64.6,"unit":"Inch","system":"http://unitsofmeasure.org","code":"[in_i]"}}},{"fullUrl":"Observation/05209d10-e497-495f-9707-afb292a807fc","resource":{"resourceType":"Observation","id":"05209d10-e497-495f-9707-afb292a807fc","meta":{"profile":["http://hl7.org/fhir/us/core/StructureDefinition/us-core-body-weight"]},"status":"final","category":[{"coding":[{"system":"http://terminology.hl7.org/CodeSystem/observation-category","code":"vital-signs","display":"Vital Signs"}]}],"code":{"coding":[{"system":"http://loinc.org","code":"29463-7"}]},"subject":{"reference":"Patient/4cb29e5b-7e69-41f9-9fa8-3d1a210d9616"},"effectiveDateTime":"2022-06-09T00:00:00+00:00","valueQuantity":{"value":27.21,"unit":"kilogram","system":"http://unitsofmeasure.org","code":"kg"}}},{"fullUrl":"Observation/00d145ac-6e1b-45ef-99fb-1061af77e0f3","resource":{"resourceType":"Observation","id":"00d145ac-6e1b-45ef-99fb-1061af77e0f3","meta":{"profile":["http://hl7.org/fhir/us/core/StructureDefinition/us-core-body-weight"]},"status":"final","category":[{"coding":[{"system":"http://terminology.hl7.org/CodeSystem/observation-category","code":"vital-signs","display":"Vital Signs"}]}],"code":{"coding":[{"system":"http://loinc.org","code":"29463-7"}]},"subject":{"reference":"Patient/4cb29e5b-7e69-41f9-9fa8-3d1a210d9616"},"effectiveDateTime":"2022-10-25T00:00:00+00:00","valueQuantity":{"value":137.5,"unit":"kilogram","system":"http://unitsofmeasure.org","code":"kg"}}},{"fullUrl":"Observation/b7f0c661-ea9c-461c-8ba4-65b78f7cc52b","resource":{"resourceType":"Observation","id":"b7f0c661-ea9c-461c-8ba4-65b78f7cc52b","meta":{"profile":["http://hl7.org/fhir/us/core/StructureDefinition/us-core-body-temperature"]},"status":"final","category":[{"coding":[{"system":"http://terminology.hl7.org/CodeSystem/observation-category","code":"vital-signs","display":"Vital Signs"}]}],"code":{"coding":[{"system":"http://loinc.org","code":"8310-5"}]},"subject":{"reference":"Patient/4cb29e5b-7e69-41f9-9fa8-3d1a210d9616"},"effectiveDateTime":"2022-07-26T00:00:00+00:00","valueQuantity":{"value":132.51,"unit":"kilogram","system":"http://unitsofmeasure.org","code":"kg"}}},{"fullUrl":"Observation/d952544e-0acf-4cbe-9b6f-ef933558cbdf","resource":{"resourceType":"Observation","id":"d952544e-0acf-4cbe-9b6f-ef933558cbdf","meta":{"profile":["http://hl7.org/fhir/us/core/StructureDefinition/us-core-body-temperature"]},"status":"final","category":[{"coding":[{"system":"http://terminology.hl7.org/CodeSystem/observation-category","code":"vital-signs","display":"Vital Signs"}]}],"code":{"coding":[{"system":"http://loinc.org","code":"8310-5"}]},"subject":{"reference":"Patient/4cb29e5b-7e69-41f9-9fa8-3d1a210d9616"},"effectiveDateTime":"2022-06-26T00:00:00+00:00","valueQuantity":{"value":49.92,"unit":"kilogram","system":"http://unitsofmeasure.org","code":"kg"}}},{"fullUrl":"Observation/ff065104-f84e-46eb-8432-a001ed5af9ec","resource":{"resourceType":"Observation","id":"ff065104-f84e-46eb-8432-a001ed5af9ec","meta":{"profile":["http://hl7.org/fhir/us/core/StructureDefinition/us-core-heart-rate"]},"status":"final","category":[{"coding":[{"system":"http://terminology.hl7.org/CodeSystem/observation-category","code":"vital-signs","display":"Vital Signs"}]}],"code":{"coding":[{"system":"http://loinc.org","code":"8867-4"}]},"subject":{"reference":"Patient/4cb29e5b-7e69-41f9-9fa8-3d1a210d9616"},"effectiveDateTime":"2022-06-07T00:00:00+00:00","valueQuantity":{"value":98.5,"unit":"Degrees Fahrenheit","system":"http://unitsofmeasure.org","code":"[degF]"}}},{"fullUrl":"Patient/ab5769c3-2a90-409b-8331-129e5d3e4ab0","resource":{"resourceType":"Patient","id":"ab5769c3-2a90-409b-8331-129e5d3e4ab0","meta":{"profile":["http://hl7.org/fhir/us/core/StructureDefinition/us-core-patient"]},"extension":[{"extension":[{"url":"ombCategory","valueCoding":{"system":"urn:oid:2.16.840.1.113883.6.238","code":"1002-5","display":"American Indian or Alaska Native"}},{"url":"text","valueString":"American Indian or Alaska Native"}],"url":"http://hl7.org/fhir/us/core/StructureDefinition/us-core-race"},{"extension":[{"url":"ombCategory","valueCoding":{"system":"urn:oid:2.16.840.1.113883.6.238","code":"2135-2","display":"Hispanic or Latino"}},{"url":"text","valueString":"Hispanic or Latino"}],"url":"http://hl7.org/fhir/us/core/StructureDefinition/us-core-ethnicity"}],"identifier":[{"type":{"coding":[{"system":"http://terminology.hl7.org/CodeSystem/v2-0203","code":"MR"}]},"system":"urn:fhirgen:mrn","value":"708-94-8133"}],"name":[{"family":"Thomas","given":["Andrew"]}],"telecom":[{"system":"phone","value":"001-197-674-9685x4483","use":"home"}],"gender":"male","birthDate":"1959-08-16","address":[{"line":["5201 Harper Islands Suite 558"],"city":"Marioton","state":"Vermont","postalCode":"79659"}]}},{"fullUrl":"Observation/aa71416e-b4de-4f5f-b80e-4bfd8f25584b","resource":{"resourceType":"Observation","id":"aa71416e-b4de-4f5f-b80e-4bfd8f25584b","meta":{"profile":["http://hl7.org/fhir/us/core/StructureDefinition/us-core-observation-lab"]},"status":"final","category":[{"coding":[{"system":"http://terminology.hl7.org/CodeSystem/observation-category","code":"laboratory","display":"Laboratory"}]}],"code":{"coding":[{"system":"http://loinc.org","code":"26009-1"}]},"subject":{"reference":"Patient/ab5769c3-2a90-409b-8331-129e5d3e4ab0"},"effectiveDateTime":"2022-03-22T00:00:00+00:00","valueRatio":{"numerator":{"value":1},"denominator":{"value":4}}}},{"fullUrl":"Observation/8aeefa52-316b-4ce7-99bb-25e4d17d6c9b","resource":{"resourceType":"Observation","id":"8aeefa52-316b-4ce7-99bb-25e4d17d6c9b","meta":{"profile":["http://hl7.org/fhir/us/core/StructureDefinition/us-core-observation-lab"]},"status":"final","category":[{"coding":[{"system":"http://terminology.hl7.org/CodeSystem/observation-category","code":"laboratory","display":"Laboratory"}]}],"code":{"coding":[{"system":"http://loinc.org","code":"50695-6"}]},"subject":{"reference":"Patient/ab5769c3-2a90-409b-8331-129e5d3e4ab0"},"effectiveDateTime":"2022-02-25T00:00:00+00:00","valueRatio":{"numerator":{"value":1},"denominator":{"value":64}}}},{"fullUrl":"Observation/489d0f1f-ac37-4f97-a564-e9fa897c6530","resource":{"resourceType":"Observation","id":"489d0f1f-ac37-4f97-a564-e9fa897c6530","meta":{"profile":["http://hl7.org/fhir/us/core/StructureDefinition/us-core-observation-lab"]},"status":"final","category":[{"coding":[{"system":"http://terminology.hl7.org/CodeSystem/observation-category","code":"laboratory","display":"Laboratory"}]}],"code":{"coding":[{"system":"http://loinc.org","code":"50690-7"}]},"subject":{"reference":"Patient/ab5769c3-2a90-409b-8331-129e5d3e4ab0"},"effectiveDateTime":"2022-08-06T00:00:00+00:00","valueRatio":{"numerator":{"value":1},"denominator":{"value":4}}}},{"fullUrl":"Condition/f4f8782e-7e89-49de-b99a-0b4165452268","resource":{"resourceType":"Condition","id":"f4f8782e-7e89-49de-b99a-0b4165452268","meta":{"profile":["http://hl7.org/fhir/us/core/StructureDefinition/us-core-condition"]},"clinicalStatus":{"coding":[{"system":"http://terminology.hl7.org/CodeSystem/condition-clinical","code":"active","display":"Active"}]},"category":[{"coding":[{"system":"http://terminology.hl7.org/CodeSystem/condition-ver-status","code":"confirmed"}]}],"code":{"coding":[{"system":"http://snomed.info/sct","code":"44882003"}]},"subject":{"reference":"Patient/ab5769c3-2a90-409b-8331-129e5d3e4ab0"},"onsetDateTime":"2022-10-15T00:00:00+00:00"}},{"fullUrl":"Condition/4fdde8c3-364d-40b0-a443-8cc849680d31","resource":{"resourceType":"Condition","id":"4fdde8c3-364d-40b0-a443-8cc849680d31","meta":{"profile":["http://hl7.org/fhir/us/core/StructureDefinition/us-core-condition"]},"clinicalStatus":{"coding":[{"system":"http://terminology.hl7.org/CodeSystem/condition-clinical","code":"active","display":"Active"}]},"category":[{"coding":[{"system":"http://terminology.hl7.org/CodeSystem/condition-ver-status","code":"confirmed"}]}],"code":{"coding":[{"system":"http://snomed.info/sct","code":"736686006"}]},"subject":{"reference":"Patient/ab5769c3-2a90-409b-8331-129e5d3e4ab0"},"onsetDateTime":"2022-10-13T00:00:00+00:00"}},{"fullUrl":"Condition/cfda24ae-b822-4194-a12c-cc87d112b865","resource":{"resourceType":"Condition","id":"cfda24ae-b822-4194-a12c-cc87d112b865","meta":{"profile":["http://hl7.org/fhir/us/core/StructureDefinition/us-core-condition"]},"clinicalStatus":{"coding":[{"system":"http://terminology.hl7.org/CodeSystem/condition-clinical","code":"active","display":"Active"}]},"category":[{"coding":[{"system":"http://terminology.hl7.org/CodeSystem/condition-ver-status","code":"confirmed"}]}],"code":{"coding":[{"system":"http://snomed.info/sct","code":"709977002"}]},"subject":{"reference":"Patient/ab5769c3-2a90-409b-8331-129e5d3e4ab0"},"onsetDateTime":"2022-08-12T00:00:00+00:00"}},{"fullUrl":"Condition/4a8def13-1fe4-4408-8309-866104c26483","resource":{"resourceType":"Condition","id":"4a8def13-1fe4-4408-8309-866104c26483","meta":{"profile":["http://hl7.org/fhir/us/core/StructureDefinition/us-core-condition"]},"clinicalStatus":{"coding":[{"system":"http://terminology.hl7.org/CodeSystem/condition-clinical","code":"active","display":"Active"}]},"category":[{"coding":[{"system":"http://terminology.hl7.org/CodeSystem/condition-ver-status","code":"confirmed"}]}],"code":{"coding":[{"system":"http://snomed.info/sct","code":"91554004"}]},"subject":{"reference":"Patient/ab5769c3-2a90-409b-8331-129e5d3e4ab0"},"onsetDateTime":"2022-10-07T00:00:00+00:00"}},{"fullUrl":"Condition/884c5b82-2eb5-4b93-b17a-acb9a2142d9b","resource":{"resourceType":"Condition","id":"884c5b82-2eb5-4b93-b17a-acb9a2142d9b","meta":{"profile":["http://hl7.org/fhir/us/core/StructureDefinition/us-core-condition"]},"clinicalStatus":{"coding":[{"system":"http://terminology.hl7.org/CodeSystem/condition-clinical","code":"active","display":"Active"}]},"category":[{"coding":[{"system":"http://terminology.hl7.org/CodeSystem/condition-ver-status","code":"confirmed"}]}],"code":{"coding":[{"system":"http://snomed.info/sct","code":"44882003"}]},"subject":{"reference":"Patient/ab5769c3-2a90-409b-8331-129e5d3e4ab0"},"onsetDateTime":"2022-06-13T00:00:00+00:00"}},{"fullUrl":"Observation/7cfb8df4-825d-4954-92fc-0020bb9d9910","resource":{"resourceType":"Observation","id":"7cfb8df4-825d-4954-92fc-0020bb9d9910","meta":{"profile":["http://hl7.org/fhir/us/core/StructureDefinition/us-core-observation-lab"]},"status":"final","category":[{"coding":[{"system":"http://terminology.hl7.org/CodeSystem/observation-category","code":"laboratory","display":"Laboratory"}]}],"code":{"coding":[{"system":"http://loinc.org","code":"6690-2"}]},"subject":{"reference":"Patient/ab5769c3-2a90-409b-8331-129e5d3e4ab0"},"effectiveDateTime":"2022-05-09T00:00:00+00:00","valueQuantity":{"value":5.1}}},{"fullUrl":"Observation/3478226d-55a7-4fac-a6a0-6032f6530672","resource":{"resourceType":"Observation","id":"3478226d-55a7-4fac-a6a0-6032f6530672","meta":{"profile":["http://hl7.org/fhir/us/core/StructureDefinition/us-core-observation-lab"]},"status":"final","category":[{"coding":[{"system":"http://terminology.hl7.org/CodeSystem/observation-category","code":"laboratory","display":"Laboratory"}]}],"code":{"coding":[{"system":"http://loinc.org","code":"804-5"}]},"subject":{"reference":"Patient/ab5769c3-2a90-409b-8331-129e5d3e4ab0"},"effectiveDateTime":"2022-06-14T00:00:00+00:00","valueQuantity":{"value":9.6}}},{"fullUrl":"Observation/5ecb8e52-539f-481a-bb4d-bdb69f61a21c","resource":{"resourceType":"Observation","id":"5ecb8e52-539f-481a-bb4d-bdb69f61a21c","meta":{"profile":["http://hl7.org/fhir/us/core/StructureDefinition/us-core-observation-lab"]},"status":"final","category":[{"coding":[{"system":"http://terminology.hl7.org/CodeSystem/observation-category","code":"laboratory","display":"Laboratory"}]}],"code":{"coding":[{"system":"http://loinc.org","code":"26464-8"}]},"subject":{"reference":"Patient/ab5769c3-2a90-409b-8331-129e5d3e4ab0"},"effectiveDateTime":"2022-08-23T00:00:00+00:00","valueQuantity":{"value":5}}},{"fullUrl":"Observation/57ba2846-19f2-4006-b5fd-c59fac7e7a01","resource":{"resourceType":"Observation","id":"57ba2846-19f2-4006-b5fd-c59fac7e7a01","meta":{"profile":["http://hl7.org/fhir/us/core/StructureDefinition/us-core-bmi"]},"status":"final","category":[{"coding":[{"system":"http://terminology.hl7.org/CodeSystem/observation-category","code":"vital-signs","display":"Vital Signs"}]}],"code":{"coding":[{"system":"http://loinc.org","code":"39156-5"}]},"subject":{"reference":"Patient/ab5769c3-2a90-409b-8331-129e5d3e4ab0"},"effectiveDateTime":"2022-11-15T00:00:00+00:00","valueQuantity":{"value":26.99,"unit":"kg/m2","system":"http://unitsofmeasure.org","code":"kg/m2"}}},{"fullUrl":"Observation/0384fcf4-6bb8-4fc4-bde0-fc0384eaf938","resource":{"resourceType":"Observation","id":"0384fcf4-6bb8-4fc4-bde0-fc0384eaf938","meta":{"profile":["http://hl7.org/fhir/us/core/StructureDefinition/us-core-head-circumference"]},"status":"final","category":[{"coding":[{"system":"http://terminology.hl7.org/CodeSystem/observation-category","code":"vital-signs","display":"Vital Signs"}]}],"code":{"coding":[{"system":"http://loinc.org","code":"9843-4"}]},"subject":{"reference":"Patient/ab5769c3-2a90-409b-8331-129e5d3e4ab0"},"effectiveDateTime":"2022-02-26T00:00:00+00:00","valueQuantity":{"value":5.4,"unit":"Inch","system":"http://unitsofmeasure.org","code":"[in_i]"}}},{"fullUrl":"Observation/f861a94a-cdaa-4a91-aab9-deed86147c76","resource":{"resourceType":"Observation","id":"f861a94a-cdaa-4a91-aab9-deed86147c76","meta":{"profile":["http://hl7.org/fhir/us/core/StructureDefinition/us-core-head-circumference"]},"status":"final","category":[{"coding":[{"system":"http://terminology.hl7.org/CodeSystem/observation-category","code":"vital-signs","display":"Vital Signs"}]}],"code":{"coding":[{"system":"http://loinc.org","code":"9843-4"}]},"subject":{"reference":"Patient/ab5769c3-2a90-409b-8331-129e5d3e4ab0"},"effectiveDateTime":"2022-11-11T00:00:00+00:00","valueQuantity":{"value":2.5,"unit":"Inch","system":"http://unitsofmeasure.org","code":"[in_i]"}}},{"fullUrl":"Observation/6bfce580-41ac-4c44-946d-a538c41dffa2","resource":{"resourceType":"Observation","id":"6bfce580-41ac-4c44-946d-a538c41dffa2","meta":{"profile":["http://hl7.org/fhir/us/core/StructureDefinition/us-core-body-height"]},"status":"final","category":[{"coding":[{"system":"http://terminology.hl7.org/CodeSystem/observation-category","code":"vital-signs","display":"Vital Signs"}]}],"code":{"coding":[{"system":"http://loinc.org","code":"8302-2"}]},"subject":{"reference":"Patient/ab5769c3-2a90-409b-8331-129e5d3e4ab0"},"effectiveDateTime":"2022-06-24T00:00:00+00:00","valueQuantity":{"value":61,"unit":"Inch","system":"http://unitsofmeasure.org","code":"[in_i]"}}},{"fullUrl":"Observation/21509a53-71f5-4fa5-99a9-15413bacff03","resource":{"resourceType":"Observation","id":"21509a53-71f5-4fa5-99a9-15413bacff03","meta":{"profile":["http://hl7.org/fhir/us/core/StructureDefinition/us-core-body-weight"]},"status":"final","category":[{"coding":[{"system":"http://terminology.hl7.org/CodeSystem/observation-category","code":"vital-signs","display":"Vital Signs"}]}],"code":{"coding":[{"system":"http://loinc.org","code":"29463-7"}]},"subject":{"reference":"Patient/ab5769c3-2a90-409b-8331-129e5d3e4ab0"},"effectiveDateTime":"2022-09-14T00:00:00+00:00","valueQuantity":{"value":38.36,"unit":"kilogram","system":"http://unitsofmeasure.org","code":"kg"}}},{"fullUrl":"Observation/ee5c1fbc-3893-4360-94a7-032b2696bce9","resource":{"resourceType":"Observation","id":"ee5c1fbc-3893-4360-94a7-032b2696bce9","meta":{"profile":["http://hl7.org/fhir/us/core/StructureDefinition/us-core-body-temperature"]},"status":"final","category":[{"coding":[{"system":"http://terminology.hl7.org/CodeSystem/observation-category","code":"vital-signs","display":"Vital Signs"}]}],"code":{"coding":[{"system":"http://loinc.org","code":"8310-5"}]},"subject":{"reference":"Patient/ab5769c3-2a90-409b-8331-129e5d3e4ab0"},"effectiveDateTime":"2022-03-13T00:00:00+00:00","valueQuantity":{"value":77.09,"unit":"kilogram","system":"http://unitsofmeasure.org","code":"kg"}}},{"fullUrl":"Observation/bbb62654-7fd3-4101-9b5b-a1417a157ce5","resource":{"resourceType":"Observation","id":"bbb62654-7fd3-4101-9b5b-a1417a157ce5","meta":{"profile":["http://hl7.org/fhir/us/core/StructureDefinition/us-core-heart-rate"]},"status":"final","category":[{"coding":[{"system":"http://terminology.hl7.org/CodeSystem/observation-category","code":"vital-signs","display":"Vital Signs"}]}],"code":{"coding":[{"system":"http://loinc.org","code":"8867-4"}]},"subject":{"reference":"Patient/ab5769c3-2a90-409b-8331-129e5d3e4ab0"},"effectiveDateTime":"2022-04-29T00:00:00+00:00","valueQuantity":{"value":99,"unit":"Degrees Fahrenheit","system":"http://unitsofmeasure.org","code":"[degF]"}}},{"fullUrl":"Patient/fc194a77-6097-405a-afb3-7220455111b6","resource":{"resourceType":"Patient","id":"fc194a77-6097-405a-afb3-7220455111b6","meta":{"profile":["http://hl7.org/fhir/us/core/StructureDefinition/us-core-patient"]},"extension":[{"extension":[{"url":"ombCategory","valueCoding":{"system":"urn:oid:2.16.840.1.113883.6.238","code":"2028-9","display":"Asian"}},{"url":"text","valueString":"Asian"}],"url":"http://hl7.org/fhir/us/core/StructureDefinition/us-core-race"},{"extension":[{"url":"ombCategory","valueCoding":{"system":"urn:oid:2.16.840.1.113883.6.238","code":"2186-5","display":"Non Hispanic or Latino"}},{"url":"text","valueString":"Non Hispanic or Latino"}],"url":"http://hl7.org/fhir/us/core/StructureDefinition/us-core-ethnicity"}],"identifier":[{"type":{"coding":[{"system":"http://terminology.hl7.org/CodeSystem/v2-0203","code":"MR"}]},"system":"urn:fhirgen:mrn","value":"686-23-1847"}],"name":[{"family":"Pugh","given":["Kelsey"]}],"telecom":[{"system":"phone","value":"8783032211","use":"home"}],"gender":"female","birthDate":"1953-02-16","address":[{"line":["920 Pamela Square"],"city":"North Sharon","state":"New Hampshire","postalCode":"32318"}]}},{"fullUrl":"Observation/ce4494e6-1eec-4f80-9682-faa395b1850f","resource":{"resourceType":"Observation","id":"ce4494e6-1eec-4f80-9682-faa395b1850f","meta":{"profile":["http://hl7.org/fhir/us/core/StructureDefinition/us-core-observation-lab"]},"status":"final","category":[{"coding":[{"system":"http://terminology.hl7.org/CodeSystem/observation-category","code":"laboratory","display":"Laboratory"}]}],"code":{"coding":[{"system":"http://loinc.org","code":"31146-4"}]},"subject":{"reference":"Patient/fc194a77-6097-405a-afb3-7220455111b6"},"effectiveDateTime":"2022-11-22T00:00:00+00:00","valueRatio":{"numerator":{"value":1},"denominator":{"value":4}}}},{"fullUrl":"Observation/62062aa0-6128-46bf-a114-8e8f7ff518ce","resource":{"resourceType":"Observation","id":"62062aa0-6128-46bf-a114-8e8f7ff518ce","meta":{"profile":["http://hl7.org/fhir/us/core/StructureDefinition/us-core-observation-lab"]},"status":"final","category":[{"coding":[{"system":"http://terminology.hl7.org/CodeSystem/observation-category","code":"laboratory","display":"Laboratory"}]}],"code":{"coding":[{"system":"http://loinc.org","code":"71793-4"}]},"subject":{"reference":"Patient/fc194a77-6097-405a-afb3-7220455111b6"},"effectiveDateTime":"2022-03-31T00:00:00+00:00","valueRatio":{"numerator":{"value":1},"denominator":{"value":4}}}},{"fullUrl":"Observation/6146e2f7-e99a-4daa-8c59-ff2ba08b2057","resource":{"resourceType":"Observation","id":"6146e2f7-e99a-4daa-8c59-ff2ba08b2057","meta":{"profile":["http://hl7.org/fhir/us/core/StructureDefinition/us-core-observation-lab"]},"status":"final","category":[{"coding":[{"system":"http://terminology.hl7.org/CodeSystem/observation-category","code":"laboratory","display":"Laboratory"}]}],"code":{"coding":[{"system":"http://loinc.org","code":"31146-4"}]},"subject":{"reference":"Patient/fc194a77-6097-405a-afb3-7220455111b6"},"effectiveDateTime":"2022-05-03T00:00:00+00:00","valueRatio":{"numerator":{"value":1},"denominator":{"value":4}}}},{"fullUrl":"Condition/50a3c1d8-41aa-458f-9c75-c9cd1f9d657e","resource":{"resourceType":"Condition","id":"50a3c1d8-41aa-458f-9c75-c9cd1f9d657e","meta":{"profile":["http://hl7.org/fhir/us/core/StructureDefinition/us-core-condition"]},"clinicalStatus":{"coding":[{"system":"http://terminology.hl7.org/CodeSystem/condition-clinical","code":"active","display":"Active"}]},"category":[{"coding":[{"system":"http://terminology.hl7.org/CodeSystem/condition-ver-status","code":"confirmed"}]}],"code":{"coding":[{"system":"http://snomed.info/sct","code":"709977002"}]},"subject":{"reference":"Patient/fc194a77-6097-405a-afb3-7220455111b6"},"onsetDateTime":"2022-09-03T00:00:00+00:00"}},{"fullUrl":"Condition/bd77d9fb-ed29-4771-9210-eec64bdaa55f","resource":{"resourceType":"Condition","id":"bd77d9fb-ed29-4771-9210-eec64bdaa55f","meta":{"profile":["http://hl7.org/fhir/us/core/StructureDefinition/us-core-condition"]},"clinicalStatus":{"coding":[{"system":"http://terminology.hl7.org/CodeSystem/condition-clinical","code":"active","display":"Active"}]},"category":[{"coding":[{"system":"http://terminology.hl7.org/CodeSystem/condition-ver-status","code":"confirmed"}]}],"code":{"coding":[{"system":"http://snomed.info/sct","code":"44882003"}]},"subject":{"reference":"Patient/fc194a77-6097-405a-afb3-7220455111b6"},"onsetDateTime":"2022-03-01T00:00:00+00:00"}},{"fullUrl":"Condition/1dbb5bb8-a883-4809-ab1d-0bd608e0c0a1","resource":{"resourceType":"Condition","id":"1dbb5bb8-a883-4809-ab1d-0bd608e0c0a1","meta":{"profile":["http://hl7.org/fhir/us/core/StructureDefinition/us-core-condition"]},"clinicalStatus":{"coding":[{"system":"http://terminology.hl7.org/CodeSystem/condition-clinical","code":"active","display":"Active"}]},"category":[{"coding":[{"system":"http://terminology.hl7.org/CodeSystem/condition-ver-status","code":"confirmed"}]}],"code":{"coding":[{"system":"http://snomed.info/sct","code":"44882003"}]},"subject":{"reference":"Patient/fc194a77-6097-405a-afb3-7220455111b6"},"onsetDateTime":"2022-02-07T00:00:00+00:00"}},{"fullUrl":"Condition/0786f86f-e3b1-4e83-890a-95aad64f8fa5","resource":{"resourceType":"Condition","id":"0786f86f-e3b1-4e83-890a-95aad64f8fa5","meta":{"profile":["http://hl7.org/fhir/us/core/StructureDefinition/us-core-condition"]},"clinicalStatus":{"coding":[{"system":"http://terminology.hl7.org/CodeSystem/condition-clinical","code":"active","display":"Active"}]},"category":[{"coding":[{"system":"http://terminology.hl7.org/CodeSystem/condition-ver-status","code":"confirmed"}]}],"code":{"coding":[{"system":"http://snomed.info/sct","code":"44882003"}]},"subject":{"reference":"Patient/fc194a77-6097-405a-afb3-7220455111b6"},"onsetDateTime":"2022-06-01T00:00:00+00:00"}},{"fullUrl":"Condition/8d2a0346-6e17-44d2-adba-2a7677b6baaf","resource":{"resourceType":"Condition","id":"8d2a0346-6e17-44d2-adba-2a7677b6baaf","meta":{"profile":["http://hl7.org/fhir/us/core/StructureDefinition/us-core-condition"]},"clinicalStatus":{"coding":[{"system":"http://terminology.hl7.org/CodeSystem/condition-clinical","code":"active","display":"Active"}]},"category":[{"coding":[{"system":"http://terminology.hl7.org/CodeSystem/condition-ver-status","code":"confirmed"}]}],"code":{"coding":[{"system":"http://snomed.info/sct","code":"418290006"}]},"subject":{"reference":"Patient/fc194a77-6097-405a-afb3-7220455111b6"},"onsetDateTime":"2022-11-10T00:00:00+00:00"}},{"fullUrl":"Condition/19cca397-9521-4a99-bdfb-93b4b0e3a3d2","resource":{"resourceType":"Condition","id":"19cca397-9521-4a99-bdfb-93b4b0e3a3d2","meta":{"profile":["http://hl7.org/fhir/us/core/StructureDefinition/us-core-condition"]},"clinicalStatus":{"coding":[{"system":"http://terminology.hl7.org/CodeSystem/condition-clinical","code":"active","display":"Active"}]},"category":[{"coding":[{"system":"http://terminology.hl7.org/CodeSystem/condition-ver-status","code":"confirmed"}]}],"code":{"coding":[{"system":"http://snomed.info/sct","code":"418290006"}]},"subject":{"reference":"Patient/fc194a77-6097-405a-afb3-7220455111b6"},"onsetDateTime":"2022-12-15T00:00:00+00:00"}},{"fullUrl":"Condition/cf1ed03b-3cb4-473d-ada6-aaa470e410fd","resource":{"resourceType":"Condition","id":"cf1ed03b-3cb4-473d-ada6-aaa470e410fd","meta":{"profile":["http://hl7.org/fhir/us/core/StructureDefinition/us-core-condition"]},"clinicalStatus":{"coding":[{"system":"http://terminology.hl7.org/CodeSystem/condition-clinical","code":"active","display":"Active"}]},"category":[{"coding":[{"system":"http://terminology.hl7.org/CodeSystem/condition-ver-status","code":"confirmed"}]}],"code":{"coding":[{"system":"http://snomed.info/sct","code":"418290006"}]},"subject":{"reference":"Patient/fc194a77-6097-405a-afb3-7220455111b6"},"onsetDateTime":"2022-04-13T00:00:00+00:00"}},{"fullUrl":"Condition/65591eb2-b805-412d-988d-65836c5f4eae","resource":{"resourceType":"Condition","id":"65591eb2-b805-412d-988d-65836c5f4eae","meta":{"profile":["http://hl7.org/fhir/us/core/StructureDefinition/us-core-condition"]},"clinicalStatus":{"coding":[{"system":"http://terminology.hl7.org/CodeSystem/condition-clinical","code":"active","display":"Active"}]},"category":[{"coding":[{"system":"http://terminology.hl7.org/CodeSystem/condition-ver-status","code":"confirmed"}]}],"code":{"coding":[{"system":"http://snomed.info/sct","code":"418290006"}]},"subject":{"reference":"Patient/fc194a77-6097-405a-afb3-7220455111b6"},"onsetDateTime":"2022-05-26T00:00:00+00:00"}},{"fullUrl":"Observation/3ea74e03-ca16-400a-a5af-7e5c36db6f27","resource":{"resourceType":"Observation","id":"3ea74e03-ca16-400a-a5af-7e5c36db6f27","meta":{"profile":["http://hl7.org/fhir/us/core/StructureDefinition/us-core-observation-lab"]},"status":"final","category":[{"coding":[{"system":"http://terminology.hl7.org/CodeSystem/observation-category","code":"laboratory","display":"Laboratory"}]}],"code":{"coding":[{"system":"http://www.ama-assn.org/go/cpt","code":"85048"}]},"subject":{"reference":"Patient/fc194a77-6097-405a-afb3-7220455111b6"},"effectiveDateTime":"2022-03-25T00:00:00+00:00","valueQuantity":{"value":6.4}}},{"fullUrl":"Observation/f27191e0-6ba3-45f6-a30a-9d5ffb96464a","resource":{"resourceType":"Observation","id":"f27191e0-6ba3-45f6-a30a-9d5ffb96464a","meta":{"profile":["http://hl7.org/fhir/us/core/StructureDefinition/us-core-observation-lab"]},"status":"final","category":[{"coding":[{"system":"http://terminology.hl7.org/CodeSystem/observation-category","code":"laboratory","display":"Laboratory"}]}],"code":{"coding":[{"system":"http://www.ama-assn.org/go/cpt","code":"85048"}]},"subject":{"reference":"Patient/fc194a77-6097-405a-afb3-7220455111b6"},"effectiveDateTime":"2022-10-03T00:00:00+00:00","valueQuantity":{"value":7.3}}},{"fullUrl":"Observation/1d9e2b2e-990d-464d-866e-47876c4678c6","resource":{"resourceType":"Observation","id":"1d9e2b2e-990d-464d-866e-47876c4678c6","meta":{"profile":["http://hl7.org/fhir/us/core/StructureDefinition/us-core-bmi"]},"status":"final","category":[{"coding":[{"system":"http://terminology.hl7.org/CodeSystem/observation-category","code":"vital-signs","display":"Vital Signs"}]}],"code":{"coding":[{"system":"http://loinc.org","code":"39156-5"}]},"subject":{"reference":"Patient/fc194a77-6097-405a-afb3-7220455111b6"},"effectiveDateTime":"2022-05-29T00:00:00+00:00","valueQuantity":{"value":28.66,"unit":"kg/m2","system":"http://unitsofmeasure.org","code":"kg/m2"}}},{"fullUrl":"Observation/2a7df1d0-5ce6-47c2-b1f1-0c949a441a26","resource":{"resourceType":"Observation","id":"2a7df1d0-5ce6-47c2-b1f1-0c949a441a26","meta":{"profile":["http://hl7.org/fhir/us/core/StructureDefinition/us-core-bmi"]},"status":"final","category":[{"coding":[{"system":"http://terminology.hl7.org/CodeSystem/observation-category","code":"vital-signs","display":"Vital Signs"}]}],"code":{"coding":[{"system":"http://loinc.org","code":"39156-5"}]},"subject":{"reference":"Patient/fc194a77-6097-405a-afb3-7220455111b6"},"effectiveDateTime":"2022-10-31T00:00:00+00:00","valueQuantity":{"value":20.68,"unit":"kg/m2","system":"http://unitsofmeasure.org","code":"kg/m2"}}},{"fullUrl":"Observation/8f6d9f66-bedb-4820-bc46-c796d589afbe","resource":{"resourceType":"Observation","id":"8f6d9f66-bedb-4820-bc46-c796d589afbe","meta":{"profile":["http://hl7.org/fhir/us/core/StructureDefinition/us-core-head-circumference"]},"status":"final","category":[{"coding":[{"system":"http://terminology.hl7.org/CodeSystem/observation-category","code":"vital-signs","display":"Vital Signs"}]}],"code":{"coding":[{"system":"http://loinc.org","code":"9843-4"}]},"subject":{"reference":"Patient/fc194a77-6097-405a-afb3-7220455111b6"},"effectiveDateTime":"2022-02-05T00:00:00+00:00","valueQuantity":{"value":8.3,"unit":"Inch","system":"http://unitsofmeasure.org","code":"[in_i]"}}},{"fullUrl":"Observation/2cc27c22-2268-4849-aae7-7e135758b28a","resource":{"resourceType":"Observation","id":"2cc27c22-2268-4849-aae7-7e135758b28a","meta":{"profile":["http://hl7.org/fhir/us/core/StructureDefinition/us-core-body-height"]},"status":"final","category":[{"coding":[{"system":"http://terminology.hl7.org/CodeSystem/observation-category","code":"vital-signs","display":"Vital Signs"}]}],"code":{"coding":[{"system":"http://loinc.org","code":"8302-2"}]},"subject":{"reference":"Patient/fc194a77-6097-405a-afb3-7220455111b6"},"effectiveDateTime":"2022-08-22T00:00:00+00:00","valueQuantity":{"value":66.4,"unit":"Inch","system":"http://unitsofmeasure.org","code":"[in_i]"}}},{"fullUrl":"Observation/f67afa5f-be30-4be7-a059-665399ae7255","resource":{"resourceType":"Observation","id":"f67afa5f-be30-4be7-a059-665399ae7255","meta":{"profile":["http://hl7.org/fhir/us/core/StructureDefinition/us-core-body-weight"]},"status":"final","category":[{"coding":[{"system":"http://terminology.hl7.org/CodeSystem/observation-category","code":"vital-signs","display":"Vital Signs"}]}],"code":{"coding":[{"system":"http://loinc.org","code":"29463-7"}]},"subject":{"reference":"Patient/fc194a77-6097-405a-afb3-7220455111b6"},"effectiveDateTime":"2022-12-23T00:00:00+00:00","valueQuantity":{"value":42.89,"unit":"kilogram","system":"http://unitsofmeasure.org","code":"kg"}}},{"fullUrl":"Observation/50a61d34-9fa1-420a-90b3-5f4a17957420","resource":{"resourceType":"Observation","id":"50a61d34-9fa1-420a-90b3-5f4a17957420","meta":{"profile":["http://hl7.org/fhir/us/core/StructureDefinition/us-core-body-weight"]},"status":"final","category":[{"coding":[{"system":"http://terminology.hl7.org/CodeSystem/observation-category","code":"vital-signs","display":"Vital Signs"}]}],"code":{"coding":[{"system":"http://loinc.org","code":"29463-7"}]},"subject":{"reference":"Patient/fc194a77-6097-405a-afb3-7220455111b6"},"effectiveDateTime":"2022-09-16T00:00:00+00:00","valueQuantity":{"value":121.23,"unit":"kilogram","system":"http://unitsofmeasure.org","code":"kg"}}},{"fullUrl":"Observation/9b3ec255-6eca-42ae-b0a1-8a71a0ed7811","resource":{"resourceType":"Observation","id":"9b3ec255-6eca-42ae-b0a1-8a71a0ed7811","meta":{"profile":["http://hl7.org/fhir/us/core/StructureDefinition/us-core-body-temperature"]},"status":"final","category":[{"coding":[{"system":"http://terminology.hl7.org/CodeSystem/observation-category","code":"vital-signs","display":"Vital Signs"}]}],"code":{"coding":[{"system":"http://loinc.org","code":"8310-5"}]},"subject":{"reference":"Patient/fc194a77-6097-405a-afb3-7220455111b6"},"effectiveDateTime":"2022-04-11T00:00:00+00:00","valueQuantity":{"value":134.95,"unit":"kilogram","system":"http://unitsofmeasure.org","code":"kg"}}},{"fullUrl":"Observation/8ad8c652-0e61-4d8f-a059-4d201d5072b2","resource":{"resourceType":"Observation","id":"8ad8c652-0e61-4d8f-a059-4d201d5072b2","meta":{"profile":["http://hl7.org/fhir/us/core/StructureDefinition/us-core-body-temperature"]},"status":"final","category":[{"coding":[{"system":"http://terminology.hl7.org/CodeSystem/observation-category","code":"vital-signs","display":"Vital Signs"}]}],"code":{"coding":[{"system":"http://loinc.org","code":"8310-5"}]},"subject":{"reference":"Patient/fc194a77-6097-405a-afb3-7220455111b6"},"effectiveDateTime":"2022-05-23T00:00:00+00:00","valueQuantity":{"value":33.57,"unit":"kilogram","system":"http://unitsofmeasure.org","code":"kg"}}},{"fullUrl":"Observation/a5c99b1f-6116-485d-81b9-820986041f8c","resource":{"resourceType":"Observation","id":"a5c99b1f-6116-485d-81b9-820986041f8c","meta":{"profile":["http://hl7.org/fhir/us/core/StructureDefinition/us-core-heart-rate"]},"status":"final","category":[{"coding":[{"system":"http://terminology.hl7.org/CodeSystem/observation-category","code":"vital-signs","display":"Vital Signs"}]}],"code":{"coding":[{"system":"http://loinc.org","code":"8867-4"}]},"subject":{"reference":"Patient/fc194a77-6097-405a-afb3-7220455111b6"},"effectiveDateTime":"2022-03-22T00:00:00+00:00","valueQuantity":{"value":97.5,"unit":"Degrees Fahrenheit","system":"http://unitsofmeasure.org","code":"[degF]"}}},{"fullUrl":"Observation/0e4e4ce2-b40f-49fa-b1a1-ff35874bd5ac","resource":{"resourceType":"Observation","id":"0e4e4ce2-b40f-49fa-b1a1-ff35874bd5ac","meta":{"profile":["http://hl7.org/fhir/us/core/StructureDefinition/us-core-heart-rate"]},"status":"final","category":[{"coding":[{"system":"http://terminology.hl7.org/CodeSystem/observation-category","code":"vital-signs","display":"Vital Signs"}]}],"code":{"coding":[{"system":"http://loinc.org","code":"8867-4"}]},"subject":{"reference":"Patient/fc194a77-6097-405a-afb3-7220455111b6"},"effectiveDateTime":"2022-11-22T00:00:00+00:00","valueQuantity":{"value":100.2,"unit":"Degrees Fahrenheit","system":"http://unitsofmeasure.org","code":"[degF]"}}},{"fullUrl":"Patient/dec6f055-d024-4b03-9af5-cd9a67a7e05a","resource":{"resourceType":"Patient","id":"dec6f055-d024-4b03-9af5-cd9a67a7e05a","meta":{"profile":["http://hl7.org/fhir/us/core/StructureDefinition/us-core-patient"]},"extension":[{"extension":[{"url":"ombCategory","valueCoding":{"system":"urn:oid:2.16.840.1.113883.6.238","code":"2106-3","display":"White"}},{"url":"text","valueString":"White"}],"url":"http://hl7.org/fhir/us/core/StructureDefinition/us-core-race"},{"extension":[{"url":"ombCategory","valueCoding":{"system":"urn:oid:2.16.840.1.113883.6.238","code":"2186-5","display":"Non Hispanic or Latino"}},{"url":"text","valueString":"Non Hispanic or Latino"}],"url":"http://hl7.org/fhir/us/core/StructureDefinition/us-core-ethnicity"}],"identifier":[{"type":{"coding":[{"system":"http://terminology.hl7.org/CodeSystem/v2-0203","code":"MR"}]},"system":"urn:fhirgen:mrn","value":"463-86-7017"}],"name":[{"family":"Schultz","given":["Brittany"]}],"telecom":[{"system":"phone","value":"571-371-6590x8820","use":"home"}],"gender":"female","birthDate":"1990-12-27","address":[{"line":["3900 Miller View Apt. 823"],"city":"East Lawrence","state":"Kentucky","postalCode":"27236"}]}},{"fullUrl":"Observation/9314d939-fa51-476a-854c-9b562b189de8","resource":{"resourceType":"Observation","id":"9314d939-fa51-476a-854c-9b562b189de8","meta":{"profile":["http://hl7.org/fhir/us/core/StructureDefinition/us-core-observation-lab"]},"status":"final","category":[{"coding":[{"system":"http://terminology.hl7.org/CodeSystem/observation-category","code":"laboratory","display":"Laboratory"}]}],"code":{"coding":[{"system":"http://loinc.org","code":"31147-2"}]},"subject":{"reference":"Patient/dec6f055-d024-4b03-9af5-cd9a67a7e05a"},"effectiveDateTime":"2022-06-21T00:00:00+00:00","valueRatio":{"numerator":{"value":1},"denominator":{"value":32}}}},{"fullUrl":"Observation/631cd86b-0d6c-4929-8f09-4c8a722178ab","resource":{"resourceType":"Observation","id":"631cd86b-0d6c-4929-8f09-4c8a722178ab","meta":{"profile":["http://hl7.org/fhir/us/core/StructureDefinition/us-core-observation-lab"]},"status":"final","category":[{"coding":[{"system":"http://terminology.hl7.org/CodeSystem/observation-category","code":"laboratory","display":"Laboratory"}]}],"code":{"coding":[{"system":"http://loinc.org","code":"47235-7"}]},"subject":{"reference":"Patient/dec6f055-d024-4b03-9af5-cd9a67a7e05a"},"effectiveDateTime":"2022-09-15T00:00:00+00:00","valueRatio":{"numerator":{"value":1},"denominator":{"value":32}}}},{"fullUrl":"Observation/d50820e2-ea29-434c-8d51-608e687fbe27","resource":{"resourceType":"Observation","id":"d50820e2-ea29-434c-8d51-608e687fbe27","meta":{"profile":["http://hl7.org/fhir/us/core/StructureDefinition/us-core-observation-lab"]},"status":"final","category":[{"coding":[{"system":"http://terminology.hl7.org/CodeSystem/observation-category","code":"laboratory","display":"Laboratory"}]}],"code":{"coding":[{"system":"http://loinc.org","code":"26009-1"}]},"subject":{"reference":"Patient/dec6f055-d024-4b03-9af5-cd9a67a7e05a"},"effectiveDateTime":"2022-06-28T00:00:00+00:00","valueRatio":{"numerator":{"value":1},"denominator":{"value":4}}}},{"fullUrl":"Condition/4526fa43-988a-45f4-84dd-aaec2fdf38c9","resource":{"resourceType":"Condition","id":"4526fa43-988a-45f4-84dd-aaec2fdf38c9","meta":{"profile":["http://hl7.org/fhir/us/core/StructureDefinition/us-core-condition"]},"clinicalStatus":{"coding":[{"system":"http://terminology.hl7.org/CodeSystem/condition-clinical","code":"active","display":"Active"}]},"category":[{"coding":[{"system":"http://terminology.hl7.org/CodeSystem/condition-ver-status","code":"confirmed"}]}],"code":{"coding":[{"system":"http://snomed.info/sct","code":"44882003"}]},"subject":{"reference":"Patient/dec6f055-d024-4b03-9af5-cd9a67a7e05a"},"onsetDateTime":"2022-11-29T00:00:00+00:00"}},{"fullUrl":"Condition/cfdefd68-e93c-4c83-adee-a25231f0807b","resource":{"resourceType":"Condition","id":"cfdefd68-e93c-4c83-adee-a25231f0807b","meta":{"profile":["http://hl7.org/fhir/us/core/StructureDefinition/us-core-condition"]},"clinicalStatus":{"coding":[{"system":"http://terminology.hl7.org/CodeSystem/condition-clinical","code":"active","display":"Active"}]},"category":[{"coding":[{"system":"http://terminology.hl7.org/CodeSystem/condition-ver-status","code":"confirmed"}]}],"code":{"coding":[{"system":"http://snomed.info/sct","code":"736686006"}]},"subject":{"reference":"Patient/dec6f055-d024-4b03-9af5-cd9a67a7e05a"},"onsetDateTime":"2022-03-22T00:00:00+00:00"}},{"fullUrl":"Condition/9130668d-8ba9-4d45-a356-2e942246786f","resource":{"resourceType":"Condition","id":"9130668d-8ba9-4d45-a356-2e942246786f","meta":{"profile":["http://hl7.org/fhir/us/core/StructureDefinition/us-core-condition"]},"clinicalStatus":{"coding":[{"system":"http://terminology.hl7.org/CodeSystem/condition-clinical","code":"active","display":"Active"}]},"category":[{"coding":[{"system":"http://terminology.hl7.org/CodeSystem/condition-ver-status","code":"confirmed"}]}],"code":{"coding":[{"system":"http://snomed.info/sct","code":"709977002"}]},"subject":{"reference":"Patient/dec6f055-d024-4b03-9af5-cd9a67a7e05a"},"onsetDateTime":"2022-11-24T00:00:00+00:00"}},{"fullUrl":"Condition/f57b925f-a6e3-4baa-a80f-ba8966bd26c8","resource":{"resourceType":"Condition","id":"f57b925f-a6e3-4baa-a80f-ba8966bd26c8","meta":{"profile":["http://hl7.org/fhir/us/core/StructureDefinition/us-core-condition"]},"clinicalStatus":{"coding":[{"system":"http://terminology.hl7.org/CodeSystem/condition-clinical","code":"active","display":"Active"}]},"category":[{"coding":[{"system":"http://terminology.hl7.org/CodeSystem/condition-ver-status","code":"confirmed"}]}],"code":{"coding":[{"system":"http://snomed.info/sct","code":"736686006"}]},"subject":{"reference":"Patient/dec6f055-d024-4b03-9af5-cd9a67a7e05a"},"onsetDateTime":"2022-05-31T00:00:00+00:00"}},{"fullUrl":"Condition/b74d1f05-74c5-458e-a4f1-dfbdb8169587","resource":{"resourceType":"Condition","id":"b74d1f05-74c5-458e-a4f1-dfbdb8169587","meta":{"profile":["http://hl7.org/fhir/us/core/StructureDefinition/us-core-condition"]},"clinicalStatus":{"coding":[{"system":"http://terminology.hl7.org/CodeSystem/condition-clinical","code":"active","display":"Active"}]},"category":[{"coding":[{"system":"http://terminology.hl7.org/CodeSystem/condition-ver-status","code":"confirmed"}]}],"code":{"coding":[{"system":"http://snomed.info/sct","code":"91554004"}]},"subject":{"reference":"Patient/dec6f055-d024-4b03-9af5-cd9a67a7e05a"},"onsetDateTime":"2022-04-15T00:00:00+00:00"}},{"fullUrl":"Observation/a1dc5901-210a-4516-be8e-bd7728cf8ee4","resource":{"resourceType":"Observation","id":"a1dc5901-210a-4516-be8e-bd7728cf8ee4","meta":{"profile":["http://hl7.org/fhir/us/core/StructureDefinition/us-core-observation-lab"]},"status":"final","category":[{"coding":[{"system":"http://terminology.hl7.org/CodeSystem/observation-category","code":"laboratory","display":"Laboratory"}]}],"code":{"coding":[{"system":"http://loinc.org","code":"804-5"}]},"subject":{"reference":"Patient/dec6f055-d024-4b03-9af5-cd9a67a7e05a"},"effectiveDateTime":"2022-01-04T00:00:00+00:00","valueQuantity":{"value":4.3}}},{"fullUrl":"Observation/71f38e41-d363-4481-b1d8-0b4f8263ea52","resource":{"resourceType":"Observation","id":"71f38e41-d363-4481-b1d8-0b4f8263ea52","meta":{"profile":["http://hl7.org/fhir/us/core/StructureDefinition/us-core-observation-lab"]},"status":"final","category":[{"coding":[{"system":"http://terminology.hl7.org/CodeSystem/observation-category","code":"laboratory","display":"Laboratory"}]}],"code":{"coding":[{"system":"http://loinc.org","code":"49498-9"}]},"subject":{"reference":"Patient/dec6f055-d024-4b03-9af5-cd9a67a7e05a"},"effectiveDateTime":"2022-02-02T00:00:00+00:00","valueQuantity":{"value":7.9}}},{"fullUrl":"Observation/c18815c6-9f5c-4c7c-8a2b-8030ce24f30e","resource":{"resourceType":"Observation","id":"c18815c6-9f5c-4c7c-8a2b-8030ce24f30e","meta":{"profile":["http://hl7.org/fhir/us/core/StructureDefinition/us-core-bmi"]},"status":"final","category":[{"coding":[{"system":"http://terminology.hl7.org/CodeSystem/observation-category","code":"vital-signs","display":"Vital Signs"}]}],"code":{"coding":[{"system":"http://loinc.org","code":"39156-5"}]},"subject":{"reference":"Patient/dec6f055-d024-4b03-9af5-cd9a67a7e05a"},"effectiveDateTime":"2022-08-02T00:00:00+00:00","valueQuantity":{"value":16.28,"unit":"kg/m2","system":"http://unitsofmeasure.org","code":"kg/m2"}}},{"fullUrl":"Observation/82775868-2e3e-414d-9419-9301cf6745e0","resource":{"resourceType":"Observation","id":"82775868-2e3e-414d-9419-9301cf6745e0","meta":{"profile":["http://hl7.org/fhir/us/core/StructureDefinition/us-core-bmi"]},"status":"final","category":[{"coding":[{"system":"http://terminology.hl7.org/CodeSystem/observation-category","code":"vital-signs","display":"Vital Signs"}]}],"code":{"coding":[{"system":"http://loinc.org","code":"39156-5"}]},"subject":{"reference":"Patient/dec6f055-d024-4b03-9af5-cd9a67a7e05a"},"effectiveDateTime":"2022-06-27T00:00:00+00:00","valueQuantity":{"value":24.01,"unit":"kg/m2","system":"http://unitsofmeasure.org","code":"kg/m2"}}},{"fullUrl":"Observation/ba2e3a36-6bda-4dbb-921d-e7762c191753","resource":{"resourceType":"Observation","id":"ba2e3a36-6bda-4dbb-921d-e7762c191753","meta":{"profile":["http://hl7.org/fhir/us/core/StructureDefinition/us-core-head-circumference"]},"status":"final","category":[{"coding":[{"system":"http://terminology.hl7.org/CodeSystem/observation-category","code":"vital-signs","display":"Vital Signs"}]}],"code":{"coding":[{"system":"http://loinc.org","code":"9843-4"}]},"subject":{"reference":"Patient/dec6f055-d024-4b03-9af5-cd9a67a7e05a"},"effectiveDateTime":"2022-05-29T00:00:00+00:00","valueQuantity":{"value":2.1,"unit":"Inch","system":"http://unitsofmeasure.org","code":"[in_i]"}}},{"fullUrl":"Observation/36145bf8-1b0b-4ccd-affe-8b7a58210600","resource":{"resourceType":"Observation","id":"36145bf8-1b0b-4ccd-affe-8b7a58210600","meta":{"profile":["http://hl7.org/fhir/us/core/StructureDefinition/us-core-head-circumference"]},"status":"final","category":[{"coding":[{"system":"http://terminology.hl7.org/CodeSystem/observation-category","code":"vital-signs","display":"Vital Signs"}]}],"code":{"coding":[{"system":"http://loinc.org","code":"9843-4"}]},"subject":{"reference":"Patient/dec6f055-d024-4b03-9af5-cd9a67a7e05a"},"effectiveDateTime":"2022-06-01T00:00:00+00:00","valueQuantity":{"value":6.8,"unit":"Inch","system":"http://unitsofmeasure.org","code":"[in_i]"}}},{"fullUrl":"Observation/bd6a922f-6caf-42f8-aabe-ab6abe79e17b","resource":{"resourceType":"Observation","id":"bd6a922f-6caf-42f8-aabe-ab6abe79e17b","meta":{"profile":["http://hl7.org/fhir/us/core/StructureDefinition/us-core-body-height"]},"status":"final","category":[{"coding":[{"system":"http://terminology.hl7.org/CodeSystem/observation-category","code":"vital-signs","display":"Vital Signs"}]}],"code":{"coding":[{"system":"http://loinc.org","code":"8302-2"}]},"subject":{"reference":"Patient/dec6f055-d024-4b03-9af5-cd9a67a7e05a"},"effectiveDateTime":"2022-09-07T00:00:00+00:00","valueQuantity":{"value":66.2,"unit":"Inch","system":"http://unitsofmeasure.org","code":"[in_i]"}}},{"fullUrl":"Observation/86bb20a0-3145-4a40-ad56-6cc0cc578707","resource":{"resourceType":"Observation","id":"86bb20a0-3145-4a40-ad56-6cc0cc578707","meta":{"profile":["http://hl7.org/fhir/us/core/StructureDefinition/us-core-body-height"]},"status":"final","category":[{"coding":[{"system":"http://terminology.hl7.org/CodeSystem/observation-category","code":"vital-signs","display":"Vital Signs"}]}],"code":{"coding":[{"system":"http://loinc.org","code":"8302-2"}]},"subject":{"reference":"Patient/dec6f055-d024-4b03-9af5-cd9a67a7e05a"},"effectiveDateTime":"2022-01-26T00:00:00+00:00","valueQuantity":{"value":81.7,"unit":"Inch","system":"http://unitsofmeasure.org","code":"[in_i]"}}},{"fullUrl":"Observation/d1e0f8b3-4787-4baa-bbdd-f4570fb92300","resource":{"resourceType":"Observation","id":"d1e0f8b3-4787-4baa-bbdd-f4570fb92300","meta":{"profile":["http://hl7.org/fhir/us/core/StructureDefinition/us-core-body-weight"]},"status":"final","category":[{"coding":[{"system":"http://terminology.hl7.org/CodeSystem/observation-category","code":"vital-signs","display":"Vital Signs"}]}],"code":{"coding":[{"system":"http://loinc.org","code":"29463-7"}]},"subject":{"reference":"Patient/dec6f055-d024-4b03-9af5-cd9a67a7e05a"},"effectiveDateTime":"2022-11-18T00:00:00+00:00","valueQuantity":{"value":90.96,"unit":"kilogram","system":"http://unitsofmeasure.org","code":"kg"}}},{"fullUrl":"Observation/e06e201f-8f56-45cc-9d52-5f16caead74a","resource":{"resourceType":"Observation","id":"e06e201f-8f56-45cc-9d52-5f16caead74a","meta":{"profile":["http://hl7.org/fhir/us/core/StructureDefinition/us-core-body-weight"]},"status":"final","category":[{"coding":[{"system":"http://terminology.hl7.org/CodeSystem/observation-category","code":"vital-signs","display":"Vital Signs"}]}],"code":{"coding":[{"system":"http://loinc.org","code":"29463-7"}]},"subject":{"reference":"Patient/dec6f055-d024-4b03-9af5-cd9a67a7e05a"},"effectiveDateTime":"2022-05-23T00:00:00+00:00","valueQuantity":{"value":63.34,"unit":"kilogram","system":"http://unitsofmeasure.org","code":"kg"}}},{"fullUrl":"Observation/756b66bb-072f-478a-81d6-afb04e3c2a89","resource":{"resourceType":"Observation","id":"756b66bb-072f-478a-81d6-afb04e3c2a89","meta":{"profile":["http://hl7.org/fhir/us/core/StructureDefinition/us-core-body-temperature"]},"status":"final","category":[{"coding":[{"system":"http://terminology.hl7.org/CodeSystem/observation-category","code":"vital-signs","display":"Vital Signs"}]}],"code":{"coding":[{"system":"http://loinc.org","code":"8310-5"}]},"subject":{"reference":"Patient/dec6f055-d024-4b03-9af5-cd9a67a7e05a"},"effectiveDateTime":"2022-06-14T00:00:00+00:00","valueQuantity":{"value":49.98,"unit":"kilogram","system":"http://unitsofmeasure.org","code":"kg"}}},{"fullUrl":"Observation/e7ff4875-2768-4f2c-b721-192618cf96eb","resource":{"resourceType":"Observation","id":"e7ff4875-2768-4f2c-b721-192618cf96eb","meta":{"profile":["http://hl7.org/fhir/us/core/StructureDefinition/us-core-body-temperature"]},"status":"final","category":[{"coding":[{"system":"http://terminology.hl7.org/CodeSystem/observation-category","code":"vital-signs","display":"Vital Signs"}]}],"code":{"coding":[{"system":"http://loinc.org","code":"8310-5"}]},"subject":{"reference":"Patient/dec6f055-d024-4b03-9af5-cd9a67a7e05a"},"effectiveDateTime":"2022-06-28T00:00:00+00:00","valueQuantity":{"value":84.57,"unit":"kilogram","system":"http://unitsofmeasure.org","code":"kg"}}},{"fullUrl":"Observation/5ce8dda2-dccb-41fc-9648-3d51f1d74158","resource":{"resourceType":"Observation","id":"5ce8dda2-dccb-41fc-9648-3d51f1d74158","meta":{"profile":["http://hl7.org/fhir/us/core/StructureDefinition/us-core-heart-rate"]},"status":"final","category":[{"coding":[{"system":"http://terminology.hl7.org/CodeSystem/observation-category","code":"vital-signs","display":"Vital Signs"}]}],"code":{"coding":[{"system":"http://loinc.org","code":"8867-4"}]},"subject":{"reference":"Patient/dec6f055-d024-4b03-9af5-cd9a67a7e05a"},"effectiveDateTime":"2022-07-07T00:00:00+00:00","valueQuantity":{"value":97.9,"unit":"Degrees Fahrenheit","system":"http://unitsofmeasure.org","code":"[degF]"}}},{"fullUrl":"Patient/4c189692-570d-4084-b2f3-1cc28b05c69c","resource":{"resourceType":"Patient","id":"4c189692-570d-4084-b2f3-1cc28b05c69c","meta":{"profile":["http://hl7.org/fhir/us/core/StructureDefinition/us-core-patient"]},"extension":[{"extension":[{"url":"ombCategory","valueCoding":{"system":"urn:oid:2.16.840.1.113883.6.238","code":"2076-8","display":"Native Hawaiian or Other Pacific Islander"}},{"url":"text","valueString":"Native Hawaiian or Other Pacific Islander"}],"url":"http://hl7.org/fhir/us/core/StructureDefinition/us-core-race"},{"extension":[{"url":"ombCategory","valueCoding":{"system":"urn:oid:2.16.840.1.113883.6.238","code":"2186-5","display":"Non Hispanic or Latino"}},{"url":"text","valueString":"Non Hispanic or Latino"}],"url":"http://hl7.org/fhir/us/core/StructureDefinition/us-core-ethnicity"}],"identifier":[{"type":{"coding":[{"system":"http://terminology.hl7.org/CodeSystem/v2-0203","code":"MR"}]},"system":"urn:fhirgen:mrn","value":"147-39-8158"}],"name":[{"family":"Brown","given":["Kenneth"]}],"telecom":[{"system":"phone","value":"+1-871-786-3051x726","use":"home"}],"gender":"other","birthDate":"1977-10-29","address":[{"line":["901 Floyd Mills Suite 592"],"city":"North Keithfurt","state":"Washington","postalCode":"22817"}]}},{"fullUrl":"Observation/b588c678-e315-4464-b249-d181ffd63d38","resource":{"resourceType":"Observation","id":"b588c678-e315-4464-b249-d181ffd63d38","meta":{"profile":["http://hl7.org/fhir/us/core/StructureDefinition/us-core-observation-lab"]},"status":"final","category":[{"coding":[{"system":"http://terminology.hl7.org/CodeSystem/observation-category","code":"laboratory","display":"Laboratory"}]}],"code":{"coding":[{"system":"http://loinc.org","code":"22590-4"}]},"subject":{"reference":"Patient/4c189692-570d-4084-b2f3-1cc28b05c69c"},"effectiveDateTime":"2022-04-04T00:00:00+00:00","valueRatio":{"numerator":{"value":1},"denominator":{"value":4}}}},{"fullUrl":"Observation/949f83a0-ed23-4376-971c-d3c133a34de3","resource":{"resourceType":"Observation","id":"949f83a0-ed23-4376-971c-d3c133a34de3","meta":{"profile":["http://hl7.org/fhir/us/core/StructureDefinition/us-core-observation-lab"]},"status":"final","category":[{"coding":[{"system":"http://terminology.hl7.org/CodeSystem/observation-category","code":"laboratory","display":"Laboratory"}]}],"code":{"coding":[{"system":"http://loinc.org","code":"31147-2"}]},"subject":{"reference":"Patient/4c189692-570d-4084-b2f3-1cc28b05c69c"},"effectiveDateTime":"2022-02-24T00:00:00+00:00","valueRatio":{"numerator":{"value":1},"denominator":{"value":32}}}},{"fullUrl":"Observation/e1fd0436-e88f-4108-afd7-878e214d25a6","resource":{"resourceType":"Observation","id":"e1fd0436-e88f-4108-afd7-878e214d25a6","meta":{"profile":["http://hl7.org/fhir/us/core/StructureDefinition/us-core-observation-lab"]},"status":"final","category":[{"coding":[{"system":"http://terminology.hl7.org/CodeSystem/observation-category","code":"laboratory","display":"Laboratory"}]}],"code":{"coding":[{"system":"http://loinc.org","code":"31146-4"}]},"subject":{"reference":"Patient/4c189692-570d-4084-b2f3-1cc28b05c69c"},"effectiveDateTime":"2022-08-02T00:00:00+00:00","valueRatio":{"numerator":{"value":1},"denominator":{"value":64}}}},{"fullUrl":"Condition/b5f5e29b-dfc8-4580-b843-490114b8926c","resource":{"resourceType":"Condition","id":"b5f5e29b-dfc8-4580-b843-490114b8926c","meta":{"profile":["http://hl7.org/fhir/us/core/StructureDefinition/us-core-condition"]},"clinicalStatus":{"coding":[{"system":"http://terminology.hl7.org/CodeSystem/condition-clinical","code":"active","display":"Active"}]},"category":[{"coding":[{"system":"http://terminology.hl7.org/CodeSystem/condition-ver-status","code":"confirmed"}]}],"code":{"coding":[{"system":"http://snomed.info/sct","code":"418290006"}]},"subject":{"reference":"Patient/4c189692-570d-4084-b2f3-1cc28b05c69c"},"onsetDateTime":"2022-04-06T00:00:00+00:00"}},{"fullUrl":"Condition/326b17fa-6eda-4bd0-919e-9874d075193a","resource":{"resourceType":"Condition","id":"326b17fa-6eda-4bd0-919e-9874d075193a","meta":{"profile":["http://hl7.org/fhir/us/core/StructureDefinition/us-core-condition"]},"clinicalStatus":{"coding":[{"system":"http://terminology.hl7.org/CodeSystem/condition-clinical","code":"active","display":"Active"}]},"category":[{"coding":[{"system":"http://terminology.hl7.org/CodeSystem/condition-ver-status","code":"confirmed"}]}],"code":{"coding":[{"system":"http://snomed.info/sct","code":"91554004"}]},"subject":{"reference":"Patient/4c189692-570d-4084-b2f3-1cc28b05c69c"},"onsetDateTime":"2022-12-27T00:00:00+00:00"}},{"fullUrl":"Condition/5af2a887-4a34-41d9-a6cc-8c17a43e298e","resource":{"resourceType":"Condition","id":"5af2a887-4a34-41d9-a6cc-8c17a43e298e","meta":{"profile":["http://hl7.org/fhir/us/core/StructureDefinition/us-core-condition"]},"clinicalStatus":{"coding":[{"system":"http://terminology.hl7.org/CodeSystem/condition-clinical","code":"active","display":"Active"}]},"category":[{"coding":[{"system":"http://terminology.hl7.org/CodeSystem/condition-ver-status","code":"confirmed"}]}],"code":{"coding":[{"system":"http://snomed.info/sct","code":"44882003"}]},"subject":{"reference":"Patient/4c189692-570d-4084-b2f3-1cc28b05c69c"},"onsetDateTime":"2022-03-09T00:00:00+00:00"}},{"fullUrl":"Condition/1afcbf46-a42d-4a50-a115-8ce16a4f33f8","resource":{"resourceType":"Condition","id":"1afcbf46-a42d-4a50-a115-8ce16a4f33f8","meta":{"profile":["http://hl7.org/fhir/us/core/StructureDefinition/us-core-condition"]},"clinicalStatus":{"coding":[{"system":"http://terminology.hl7.org/CodeSystem/condition-clinical","code":"active","display":"Active"}]},"category":[{"coding":[{"system":"http://terminology.hl7.org/CodeSystem/condition-ver-status","code":"confirmed"}]}],"code":{"coding":[{"system":"http://snomed.info/sct","code":"91554004"}]},"subject":{"reference":"Patient/4c189692-570d-4084-b2f3-1cc28b05c69c"},"onsetDateTime":"2022-04-03T00:00:00+00:00"}},{"fullUrl":"Condition/c51f3bfe-31b9-422a-9118-d868d4a6a5f1","resource":{"resourceType":"Condition","id":"c51f3bfe-31b9-422a-9118-d868d4a6a5f1","meta":{"profile":["http://hl7.org/fhir/us/core/StructureDefinition/us-core-condition"]},"clinicalStatus":{"coding":[{"system":"http://terminology.hl7.org/CodeSystem/condition-clinical","code":"active","display":"Active"}]},"category":[{"coding":[{"system":"http://terminology.hl7.org/CodeSystem/condition-ver-status","code":"confirmed"}]}],"code":{"coding":[{"system":"http://snomed.info/sct","code":"709977002"}]},"subject":{"reference":"Patient/4c189692-570d-4084-b2f3-1cc28b05c69c"},"onsetDateTime":"2022-04-17T00:00:00+00:00"}},{"fullUrl":"Condition/cffaf9cd-95af-4b81-b39c-93356a44018f","resource":{"resourceType":"Condition","id":"cffaf9cd-95af-4b81-b39c-93356a44018f","meta":{"profile":["http://hl7.org/fhir/us/core/StructureDefinition/us-core-condition"]},"clinicalStatus":{"coding":[{"system":"http://terminology.hl7.org/CodeSystem/condition-clinical","code":"active","display":"Active"}]},"category":[{"coding":[{"system":"http://terminology.hl7.org/CodeSystem/condition-ver-status","code":"confirmed"}]}],"code":{"coding":[{"system":"http://snomed.info/sct","code":"91554004"}]},"subject":{"reference":"Patient/4c189692-570d-4084-b2f3-1cc28b05c69c"},"onsetDateTime":"2022-08-02T00:00:00+00:00"}},{"fullUrl":"Condition/e50b5f4f-0768-4b0f-bd4d-b2a612efc7cd","resource":{"resourceType":"Condition","id":"e50b5f4f-0768-4b0f-bd4d-b2a612efc7cd","meta":{"profile":["http://hl7.org/fhir/us/core/StructureDefinition/us-core-condition"]},"clinicalStatus":{"coding":[{"system":"http://terminology.hl7.org/CodeSystem/condition-clinical","code":"active","display":"Active"}]},"category":[{"coding":[{"system":"http://terminology.hl7.org/CodeSystem/condition-ver-status","code":"confirmed"}]}],"code":{"coding":[{"system":"http://snomed.info/sct","code":"418290006"}]},"subject":{"reference":"Patient/4c189692-570d-4084-b2f3-1cc28b05c69c"},"onsetDateTime":"2022-08-26T00:00:00+00:00"}},{"fullUrl":"Observation/2833ca1d-e847-4c5a-8161-dcfd1149b1e1","resource":{"resourceType":"Observation","id":"2833ca1d-e847-4c5a-8161-dcfd1149b1e1","meta":{"profile":["http://hl7.org/fhir/us/core/StructureDefinition/us-core-observation-lab"]},"status":"final","category":[{"coding":[{"system":"http://terminology.hl7.org/CodeSystem/observation-category","code":"laboratory","display":"Laboratory"}]}],"code":{"coding":[{"system":"http://loinc.org","code":"6690-2"}]},"subject":{"reference":"Patient/4c189692-570d-4084-b2f3-1cc28b05c69c"},"effectiveDateTime":"2022-08-02T00:00:00+00:00","valueQuantity":{"value":4.9}}},{"fullUrl":"Observation/e6a23bde-211e-4dd9-baf5-018ac5145593","resource":{"resourceType":"Observation","id":"e6a23bde-211e-4dd9-baf5-018ac5145593","meta":{"profile":["http://hl7.org/fhir/us/core/StructureDefinition/us-core-observation-lab"]},"status":"final","category":[{"coding":[{"system":"http://terminology.hl7.org/CodeSystem/observation-category","code":"laboratory","display":"Laboratory"}]}],"code":{"coding":[{"system":"http://loinc.org","code":"6690-2"}]},"subject":{"reference":"Patient/4c189692-570d-4084-b2f3-1cc28b05c69c"},"effectiveDateTime":"2022-02-03T00:00:00+00:00","valueQuantity":{"value":9.1}}},{"fullUrl":"Observation/af60f22f-f18a-45ec-8bac-c4afb31bfbd5","resource":{"resourceType":"Observation","id":"af60f22f-f18a-45ec-8bac-c4afb31bfbd5","meta":{"profile":["http://hl7.org/fhir/us/core/StructureDefinition/us-core-observation-lab"]},"status":"final","category":[{"coding":[{"system":"http://terminology.hl7.org/CodeSystem/observation-category","code":"laboratory","display":"Laboratory"}]}],"code":{"coding":[{"system":"http://loinc.org","code":"49498-9"}]},"subject":{"reference":"Patient/4c189692-570d-4084-b2f3-1cc28b05c69c"},"effectiveDateTime":"2022-03-05T00:00:00+00:00","valueQuantity":{"value":4.5}}},{"fullUrl":"Observation/a58d128c-ee2d-418b-888c-91724c087c0d","resource":{"resourceType":"Observation","id":"a58d128c-ee2d-418b-888c-91724c087c0d","meta":{"profile":["http://hl7.org/fhir/us/core/StructureDefinition/us-core-bmi"]},"status":"final","category":[{"coding":[{"system":"http://terminology.hl7.org/CodeSystem/observation-category","code":"vital-signs","display":"Vital Signs"}]}],"code":{"coding":[{"system":"http://loinc.org","code":"39156-5"}]},"subject":{"reference":"Patient/4c189692-570d-4084-b2f3-1cc28b05c69c"},"effectiveDateTime":"2022-07-22T00:00:00+00:00","valueQuantity":{"value":10.13,"unit":"kg/m2","system":"http://unitsofmeasure.org","code":"kg/m2"}}},{"fullUrl":"Observation/d78dfaf2-2710-410a-8cfe-ce7c4f3242e2","resource":{"resourceType":"Observation","id":"d78dfaf2-2710-410a-8cfe-ce7c4f3242e2","meta":{"profile":["http://hl7.org/fhir/us/core/StructureDefinition/us-core-head-circumference"]},"status":"final","category":[{"coding":[{"system":"http://terminology.hl7.org/CodeSystem/observation-category","code":"vital-signs","display":"Vital Signs"}]}],"code":{"coding":[{"system":"http://loinc.org","code":"9843-4"}]},"subject":{"reference":"Patient/4c189692-570d-4084-b2f3-1cc28b05c69c"},"effectiveDateTime":"2022-10-15T00:00:00+00:00","valueQuantity":{"value":3.2,"unit":"Inch","system":"http://unitsofmeasure.org","code":"[in_i]"}}},{"fullUrl":"Observation/44dfe4d0-b762-4328-95fc-170da8a52c2d","resource":{"resourceType":"Observation","id":"44dfe4d0-b762-4328-95fc-170da8a52c2d","meta":{"profile":["http://hl7.org/fhir/us/core/StructureDefinition/us-core-head-circumference"]},"status":"final","category":[{"coding":[{"system":"http://terminology.hl7.org/CodeSystem/observation-category","code":"vital-signs","display":"Vital Signs"}]}],"code":{"coding":[{"system":"http://loinc.org","code":"9843-4"}]},"subject":{"reference":"Patient/4c189692-570d-4084-b2f3-1cc28b05c69c"},"effectiveDateTime":"2022-06-15T00:00:00+00:00","valueQuantity":{"value":5.4,"unit":"Inch","system":"http://unitsofmeasure.org","code":"[in_i]"}}},{"fullUrl":"Observation/75558d37-b513-4a34-b036-ec986c4989c4","resource":{"resourceType":"Observation","id":"75558d37-b513-4a34-b036-ec986c4989c4","meta":{"profile":["http://hl7.org/fhir/us/core/StructureDefinition/us-core-body-height"]},"status":"final","category":[{"coding":[{"system":"http://terminology.hl7.org/CodeSystem/observation-category","code":"vital-signs","display":"Vital Signs"}]}],"code":{"coding":[{"system":"http://loinc.org","code":"8302-2"}]},"subject":{"reference":"Patient/4c189692-570d-4084-b2f3-1cc28b05c69c"},"effectiveDateTime":"2022-07-21T00:00:00+00:00","valueQuantity":{"value":73.1,"unit":"Inch","system":"http://unitsofmeasure.org","code":"[in_i]"}}},{"fullUrl":"Observation/038bbe86-6c58-4c3b-93c1-3903ddf4db06","resource":{"resourceType":"Observation","id":"038bbe86-6c58-4c3b-93c1-3903ddf4db06","meta":{"profile":["http://hl7.org/fhir/us/core/StructureDefinition/us-core-body-height"]},"status":"final","category":[{"coding":[{"system":"http://terminology.hl7.org/CodeSystem/observation-category","code":"vital-signs","display":"Vital Signs"}]}],"code":{"coding":[{"system":"http://loinc.org","code":"8302-2"}]},"subject":{"reference":"Patient/4c189692-570d-4084-b2f3-1cc28b05c69c"},"effectiveDateTime":"2022-01-03T00:00:00+00:00","valueQuantity":{"value":62.4,"unit":"Inch","system":"http://unitsofmeasure.org","code":"[in_i]"}}},{"fullUrl":"Observation/beae4896-1906-4012-80e3-aa361e05ed11","resource":{"resourceType":"Observation","id":"beae4896-1906-4012-80e3-aa361e05ed11","meta":{"profile":["http://hl7.org/fhir/us/core/StructureDefinition/us-core-body-weight"]},"status":"final","category":[{"coding":[{"system":"http://terminology.hl7.org/CodeSystem/observation-category","code":"vital-signs","display":"Vital Signs"}]}],"code":{"coding":[{"system":"http://loinc.org","code":"29463-7"}]},"subject":{"reference":"Patient/4c189692-570d-4084-b2f3-1cc28b05c69c"},"effectiveDateTime":"2022-06-25T00:00:00+00:00","valueQuantity":{"value":143.29,"unit":"kilogram","system":"http://unitsofmeasure.org","code":"kg"}}},{"fullUrl":"Observation/efc15248-79d4-44dc-b028-e0984e6118e6","resource":{"resourceType":"Observation","id":"efc15248-79d4-44dc-b028-e0984e6118e6","meta":{"profile":["http://hl7.org/fhir/us/core/StructureDefinition/us-core-body-temperature"]},"status":"final","category":[{"coding":[{"system":"http://terminology.hl7.org/CodeSystem/observation-category","code":"vital-signs","display":"Vital Signs"}]}],"code":{"coding":[{"system":"http://loinc.org","code":"8310-5"}]},"subject":{"reference":"Patient/4c189692-570d-4084-b2f3-1cc28b05c69c"},"effectiveDateTime":"2022-03-19T00:00:00+00:00","valueQuantity":{"value":96.4,"unit":"kilogram","system":"http://unitsofmeasure.org","code":"kg"}}},{"fullUrl":"Observation/04d8e8e5-b7b3-4b93-ad8f-b676b09cddb5","resource":{"resourceType":"Observation","id":"04d8e8e5-b7b3-4b93-ad8f-b676b09cddb5","meta":{"profile":["http://hl7.org/fhir/us/core/StructureDefinition/us-core-body-temperature"]},"status":"final","category":[{"coding":[{"system":"http://terminology.hl7.org/CodeSystem/observation-category","code":"vital-signs","display":"Vital Signs"}]}],"code":{"coding":[{"system":"http://loinc.org","code":"8310-5"}]},"subject":{"reference":"Patient/4c189692-570d-4084-b2f3-1cc28b05c69c"},"effectiveDateTime":"2022-09-13T00:00:00+00:00","valueQuantity":{"value":71.93,"unit":"kilogram","system":"http://unitsofmeasure.org","code":"kg"}}},{"fullUrl":"Observation/a28c235c-57cd-4d94-8565-257159c9c86a","resource":{"resourceType":"Observation","id":"a28c235c-57cd-4d94-8565-257159c9c86a","meta":{"profile":["http://hl7.org/fhir/us/core/StructureDefinition/us-core-heart-rate"]},"status":"final","category":[{"coding":[{"system":"http://terminology.hl7.org/CodeSystem/observation-category","code":"vital-signs","display":"Vital Signs"}]}],"code":{"coding":[{"system":"http://loinc.org","code":"8867-4"}]},"subject":{"reference":"Patient/4c189692-570d-4084-b2f3-1cc28b05c69c"},"effectiveDateTime":"2022-04-21T00:00:00+00:00","valueQuantity":{"value":97.4,"unit":"Degrees Fahrenheit","system":"http://unitsofmeasure.org","code":"[degF]"}}},{"fullUrl":"Observation/fd3b9d40-1958-4b78-9bfa-0f1502d77a60","resource":{"resourceType":"Observation","id":"fd3b9d40-1958-4b78-9bfa-0f1502d77a60","meta":{"profile":["http://hl7.org/fhir/us/core/StructureDefinition/us-core-heart-rate"]},"status":"final","category":[{"coding":[{"system":"http://terminology.hl7.org/CodeSystem/observation-category","code":"vital-signs","display":"Vital Signs"}]}],"code":{"coding":[{"system":"http://loinc.org","code":"8867-4"}]},"subject":{"reference":"Patient/4c189692-570d-4084-b2f3-1cc28b05c69c"},"effectiveDateTime":"2022-04-04T00:00:00+00:00","valueQuantity":{"value":98.2,"unit":"Degrees Fahrenheit","system":"http://unitsofmeasure.org","code":"[degF]"}}}]}