{"resourceType":"Bundle","id":"56a208db-39b5-4f1a-8af7-13bae0f0c186","type":"transaction","entry":[{"fullUrl":"Patient/cdbeefb7-eaa3-43c3-ad31-0b533a36a783","resource":{"resourceType":"Patient","id":"cdbeefb7-eaa3-43c3-ad31-0b533a36a783","identifier":[{"type":{"coding":[{"system":"http://terminology.hl7.org/CodeSystem/v2-0203","code":"MR"}]},"system":"urn:fhirgen:mrn","value":"082-07-6544"}],"name":[{"family":"Johnson","given":["Clayton"]}],"telecom":[{"system":"phone","value":"109-715-4836x87428"}],"gender":"male","birthDate":"1995-08-09","address":[{"line":["3120 White Place"],"city":"Mcdanielton","state":"South Carolina","postalCode":"64289"}]},"request":{"method":"POST","url":"Patient"}},{"fullUrl":"Observation/6d265f2f-6909-4d35-9324-ff25176db601","resource":{"resourceType":"Observation","id":"6d265f2f-6909-4d35-9324-ff25176db601","status":"final","code":{"coding":[{"system":"http://loinc.org","code":"26009-1"}]},"subject":{"reference":"Patient/cdbeefb7-eaa3-43c3-ad31-0b533a36a783"},"effectiveDateTime":"2022-10-28T00:00:00+00:00","valueRatio":{"numerator":{"value":1},"denominator":{"value":32}}},"request":{"method":"POST","url":"Observation"}},{"fullUrl":"Observation/38ad20b9-94df-4b71-982d-7e59e9af553d","resource":{"resourceType":"Observation","id":"38ad20b9-94df-4b71-982d-7e59e9af553d","status":"final","code":{"coding":[{"system":"http://loinc.org","code":"47476-7"}]},"subject":{"reference":"Patient/cdbeefb7-eaa3-43c3-ad31-0b533a36a783"},"effectiveDateTime":"2022-05-26T00:00:00+00:00","valueRatio":{"numerator":{"value":1},"denominator":{"value":32}}},"request":{"method":"POST","url":"Observation"}},{"fullUrl":"Observation/63510505-77eb-457b-b49a-5fbdfe230bce","resource":{"resourceType":"Observation","id":"63510505-77eb-457b-b49a-5fbdfe230bce","status":"final","code":{"coding":[{"system":"http://loinc.org","code":"34382-2"}]},"subject":{"reference":"Patient/cdbeefb7-eaa3-43c3-ad31-0b533a36a783"},"effectiveDateTime":"2022-05-11T00:00:00+00:00","valueRatio":{"numerator":{"value":1},"denominator":{"value":32}}},"request":{"method":"POST","url":"Observation"}},{"fullUrl":"Condition/d73c0330-298b-4a79-ac6b-e9c55f0932c8","resource":{"resourceType":"Condition","id":"d73c0330-298b-4a79-ac6b-e9c55f0932c8","code":{"coding":[{"system":"http://snomed.info/sct","code":"21522001"}]},"subject":{"reference":"Patient/cdbeefb7-eaa3-43c3-ad31-0b533a36a783"},"onsetDateTime":"2022-11-19T00:00:00+00:00"},"request":{"method":"POST","url":"Condition"}},{"fullUrl":"Condition/83a4bc2d-d01f-4cbd-a610-9b0bb649109a","resource":{"resourceType":"Condition","id":"83a4bc2d-d01f-4cbd-a610-9b0bb649109a","code":{"coding":[{"system":"http://snomed.info/sct","code":"271807003"}]},"subject":{"reference":"Patient/cdbeefb7-eaa3-43c3-ad31-0b533a36a783"},"onsetDateTime":"2022-10-19T00:00:00+00:00"},"request":{"method":"POST","url":"Condition"}},{"fullUrl":"Condition/5f7f0f2a-d665-4932-b7b2-c34b450112c0","resource":{"resourceType":"Condition","id":"5f7f0f2a-d665-4932-b7b2-c34b450112c0","code":{"coding":[{"system":"http://snomed.info/sct","code":"18165001"}]},"subject":{"reference":"Patient/cdbeefb7-eaa3-43c3-ad31-0b533a36a783"},"onsetDateTime":"2022-12-10T00:00:00+00:00"},"request":{"method":"POST","url":"Condition"}},{"fullUrl":"Condition/de421b09-6c08-40ff-8a6d-0564143f5e12","resource":{"resourceType":"Condition","id":"de421b09-6c08-40ff-8a6d-0564143f5e12","code":{"coding":[{"system":"http://snomed.info/sct","code":"709977002"}]},"subject":{"reference":"Patient/cdbeefb7-eaa3-43c3-ad31-0b533a36a783"},"onsetDateTime":"2022-01-16T00:00:00+00:00"},"request":{"method":"POST","url":"Condition"}},{"fullUrl":"Condition/617f2532-72d6-441a-a1ae-dd156a799694","resource":{"resourceType":"Condition","id":"617f2532-72d6-441a-a1ae-dd156a799694","code":{"coding":[{"system":"http://snomed.info/sct","code":"79342006"}]},"subject":{"reference":"Patient/cdbeefb7-eaa3-43c3-ad31-0b533a36a783"},"onsetDateTime":"2022-09-14T00:00:00+00:00"},"request":{"method":"POST","url":"Condition"}},{"fullUrl":"Observation/b5e8da22-d1c3-45ec-9dac-e3576dc2cb18","resource":{"resourceType":"Observation","id":"b5e8da22-d1c3-45ec-9dac-e3576dc2cb18","status":"final","code":{"coding":[{"system":"http://loinc.org","code":"49498-9"}]},"subject":{"reference":"Patient/cdbeefb7-eaa3-43c3-ad31-0b533a36a783"},"effectiveDateTime":"2022-08-02T00:00:00+00:00","valueQuantity":{"value":6.5}},"request":{"method":"POST","url":"Observation"}},{"fullUrl":"Observation/c6eca3e0-abd1-4ffd-9659-64d145bd7e8b","resource":{"resourceType":"Observation","id":"c6eca3e0-abd1-4ffd-9659-64d145bd7e8b","status":"final","code":{"coding":[{"system":"http://loinc.org","code":"804-5"}]},"subject":{"reference":"Patient/cdbeefb7-eaa3-43c3-ad31-0b533a36a783"},"effectiveDateTime":"2022-03-06T00:00:00+00:00","valueQuantity":{"value":6.9}},"request":{"method":"POST","url":"Observation"}},{"fullUrl":"Observation/f6f9d4a7-e15e-447a-a5d2-dde8c176fb0c","resource":{"resourceType":"Observation","id":"f6f9d4a7-e15e-447a-a5d2-dde8c176fb0c","status":"final","code":{"coding":[{"system":"http://loinc.org","code":"6690-2"}]},"subject":{"reference":"Patient/cdbeefb7-eaa3-43c3-ad31-0b533a36a783"},"effectiveDateTime":"2022-06-21T00:00:00+00:00","valueQuantity":{"value":6.8}},"request":{"method":"POST","url":"Observation"}},{"fullUrl":"Observation/536aee12-8aad-416b-84bc-07698250f7a7","resource":{"resourceType":"Observation","id":"536aee12-8aad-416b-84bc-07698250f7a7","status":"final","code":{"coding":[{"system":"http://loinc.org","code":"49498-9"}]},"subject":{"reference":"Patient/cdbeefb7-eaa3-43c3-ad31-0b533a36a783"},"effectiveDateTime":"2022-05-06T00:00:00+00:00"},"request":{"method":"POST","url":"Observation"}},{"fullUrl":"Observation/6d646565-f0ca-47a7-b7f5-b3f0733330e5","resource":{"resourceType":"Observation","id":"6d646565-f0ca-47a7-b7f5-b3f0733330e5","status":"final","code":{"coding":[{"system":"http://loinc.org","code":"49498-9"}]},"subject":{"reference":"Patient/cdbeefb7-eaa3-43c3-ad31-0b533a36a783"},"effectiveDateTime":"2022-07-28T00:00:00+00:00"},"request":{"method":"POST","url":"Observation"}},{"fullUrl":"Observation/ff70387c-7031-4558-a233-755884ae21c6","resource":{"resourceType":"Observation","id":"ff70387c-7031-4558-a233-755884ae21c6","status":"final","code":{"coding":[{"system":"http://loinc.org","code":"49498-9"}]},"subject":{"reference":"Patient/cdbeefb7-eaa3-43c3-ad31-0b533a36a783"},"effectiveDateTime":"2022-07-22T00:00:00+00:00"},"request":{"method":"POST","url":"Observation"}},{"fullUrl":"Procedure/d8f3a4ae-be46-46c0-b64c-d98915a881ba","resource":{"resourceType":"Procedure","id":"d8f3a4ae-be46-46c0-b64c-d98915a881ba","status":"completed","code":{"coding":[{"system":"http://snomed.info/sct","code":"104001"}]},"subject":{"reference":"Patient/cdbeefb7-eaa3-43c3-ad31-0b533a36a783"},"performedDateTime":"2022-05-09T00:00:00+00:00"},"request":{"method":"POST","url":"Procedure"}},{"fullUrl":"Procedure/8fa5e7d4-a19e-4aec-b100-d8a6a75ac2b3","resource":{"resourceType":"Procedure","id":"8fa5e7d4-a19e-4aec-b100-d8a6a75ac2b3","status":"completed","code":{"coding":[{"system":"http://snomed.info/sct","code":"189009"}]},"subject":{"reference":"Patient/cdbeefb7-eaa3-43c3-ad31-0b533a36a783"},"performedDateTime":"2022-04-22T00:00:00+00:00"},"request":{"method":"POST","url":"Procedure"}},{"fullUrl":"Procedure/862f07a0-0afb-4149-bdac-8a5d97a1bedc","resource":{"resourceType":"Procedure","id":"862f07a0-0afb-4149-bdac-8a5d97a1bedc","status":"completed","code":{"coding":[{"system":"http://snomed.info/sct","code":"146005"}]},"subject":{"reference":"Patient/cdbeefb7-eaa3-43c3-ad31-0b533a36a783"},"performedDateTime":"2022-07-20T00:00:00+00:00"},"request":{"method":"POST","url":"Procedure"}},{"fullUrl":"MedicationStatement/e9873167-30b7-49fe-8e3b-ed69cfb4a7f3","resource":{"resourceType":"MedicationStatement","id":"e9873167-30b7-49fe-8e3b-ed69cfb4a7f3","status":"completed","medicationCodeableConcept":{"coding":[{"system":"http://www.nlm.nih.gov/research/umls/rxnorm","code":"7980"}]},"subject":{"reference":"Patient/cdbeefb7-eaa3-43c3-ad31-0b533a36a783"},"effectiveDateTime":"2022-10-19T00:00:00+00:00","dosage":[{"doseAndRate":[{"doseQuantity":{"value":1,"unit":"TAB","system":"http://terminology.hl7.org/CodeSystem/v3-orderableDrugForm","code":"TAB"}}]}]},"request":{"method":"POST","url":"MedicationStatement"}},{"fullUrl":"MedicationStatement/b2fbc591-e1e8-4c19-92ba-11fdbab75c57","resource":{"resourceType":"MedicationStatement","id":"b2fbc591-e1e8-4c19-92ba-11fdbab75c57","status":"completed","medicationCodeableConcept":{"coding":[{"system":"http://www.nlm.nih.gov/research/umls/rxnorm","code":"10395"}]},"subject":{"reference":"Patient/cdbeefb7-eaa3-43c3-ad31-0b533a36a783"},"effectiveDateTime":"2022-02-24T00:00:00+00:00","dosage":[{"doseAndRate":[{"doseQuantity":{"value":1,"unit":"TAB","system":"http://terminology.hl7.org/CodeSystem/v3-orderableDrugForm","code":"TAB"}}]}]},"request":{"method":"POST","url":"MedicationStatement"}},{"fullUrl":"MedicationStatement/4e3c898f-84c9-43fb-aaf3-eba83497c8fe","resource":{"resourceType":"MedicationStatement","id":"4e3c898f-84c9-43fb-aaf3-eba83497c8fe","status":"completed","medicationCodeableConcept":{"coding":[{"system":"http://www.nlm.nih.gov/research/umls/rxnorm","code":"3640"}]},"subject":{"reference":"Patient/cdbeefb7-eaa3-43c3-ad31-0b533a36a783"},"effectiveDateTime":"2022-08-07T00:00:00+00:00","dosage":[{"doseAndRate":[{"doseQuantity":{"value":2,"unit":"TAB","system":"http://terminology.hl7.org/CodeSystem/v3-orderableDrugForm","code":"TAB"}}]}]},"request":{"method":"POST","url":"MedicationStatement"}},{"fullUrl":"MedicationStatement/24e00de0-a224-4426-9c89-c54180258ef9","resource":{"resourceType":"MedicationStatement","id":"24e00de0-a224-4426-9c89-c54180258ef9","status":"completed","medicationCodeableConcept":{"coding":[{"system":"http://www.nlm.nih.gov/research/umls/rxnorm","code":"2193"}]},"subject":{"reference":"Patient/cdbeefb7-eaa3-43c3-ad31-0b533a36a783"},"effectiveDateTime":"2022-10-17T00:00:00+00:00","dosage":[{"doseAndRate":[{"doseQuantity":{"value":1,"unit":"TAB","system":"http://terminology.hl7.org/CodeSystem/v3-orderableDrugForm","code":"TAB"}}]}]},"request":{"method":"POST","url":"MedicationStatement"}},{"fullUrl":"MedicationStatement/2fb80f19-f602-464f-a1a6-ab3d8340b696","resource":{"resourceType":"MedicationStatement","id":"2fb80f19-f602-464f-a1a6-ab3d8340b696","status":"completed","medicationCodeableConcept":{"coding":[{"system":"http://www.nlm.nih.gov/research/umls/rxnorm","code":"7984"}]},"subject":{"reference":"Patient/cdbeefb7-eaa3-43c3-ad31-0b533a36a783"},"effectiveDateTime":"2022-07-21T00:00:00+00:00","dosage":[{"doseAndRate":[{"doseQuantity":{"value":2,"unit":"TAB","system":"http://terminology.hl7.org/CodeSystem/v3-orderableDrugForm","code":"TAB"}}]}]},"request":{"method":"POST","url":"MedicationStatement"}},{"fullUrl":"MedicationStatement/56a66a29-fa33-47bc-9a3f-40538bf0b252","resource":{"resourceType":"MedicationStatement","id":"56a66a29-fa33-47bc-9a3f-40538bf0b252","status":"completed","medicationCodeableConcept":{"coding":[{"system":"http://www.nlm.nih.gov/research/umls/rxnorm","code":"7980"}]},"subject":{"reference":"Patient/cdbeefb7-eaa3-43c3-ad31-0b533a36a783"},"effectiveDateTime":"2022-03-24T00:00:00+00:00","dosage":[{"doseAndRate":[{"doseQuantity":{"value":2,"unit":"TAB","system":"http://terminology.hl7.org/CodeSystem/v3-orderableDrugForm","code":"TAB"}}]}]},"request":{"method":"POST","url":"MedicationStatement"}},{"fullUrl":"MedicationStatement/f7743ce0-8112-4398-944c-b213435b0a48","resource":{"resourceType":"MedicationStatement","id":"f7743ce0-8112-4398-944c-b213435b0a48","status":"completed","medicationCodeableConcept":{"coding":[{"system":"http://www.nlm.nih.gov/research/umls/rxnorm","code":"18631"}]},"subject":{"reference":"Patient/cdbeefb7-eaa3-43c3-ad31-0b533a36a783"},"effectiveDateTime":"2022-11-02T00:00:00+00:00","dosage":[{"doseAndRate":[{"doseQuantity":{"value":2,"unit":"TAB","system":"http://terminology.hl7.org/CodeSystem/v3-orderableDrugForm","code":"TAB"}}]}]},"request":{"method":"POST","url":"MedicationStatement"}},{"fullUrl":"MedicationStatement/962fa17c-913c-44f3-b0d8-6d609a81845c","resource":{"resourceType":"MedicationStatement","id":"962fa17c-913c-44f3-b0d8-6d609a81845c","status":"completed","medicationCodeableConcept":{"coding":[{"system":"http://www.nlm.nih.gov/research/umls/rxnorm","code":"7984"}]},"subject":{"reference":"Patient/cdbeefb7-eaa3-43c3-ad31-0b533a36a783"},"effectiveDateTime":"2022-08-20T00:00:00+00:00","dosage":[{"doseAndRate":[{"doseQuantity":{"value":1,"unit":"TAB","system":"http://terminology.hl7.org/CodeSystem/v3-orderableDrugForm","code":"TAB"}}]}]},"request":{"method":"POST","url":"MedicationStatement"}},{"fullUrl":"MedicationStatement/4703527b-43d3-4f27-8266-e1e99c0f2fff","resource":{"resourceType":"MedicationStatement","id":"4703527b-43d3-4f27-8266-e1e99c0f2fff","status":"completed","medicationCodeableConcept":{"coding":[{"system":"http://www.nlm.nih.gov/research/umls/rxnorm","code":"3640"}]},"subject":{"reference":"Patient/cdbeefb7-eaa3-43c3-ad31-0b533a36a783"},"effectiveDateTime":"2022-12-15T00:00:00+00:00","dosage":[{"doseAndRate":[{"doseQuantity":{"value":3.3,"unit":"TAB","system":"http://terminology.hl7.org/CodeSystem/v3-orderableDrugForm","code":"TAB"}}]}]},"request":{"method":"POST","url":"MedicationStatement"}},{"fullUrl":"MedicationStatement/9eab3e87-fee3-41cf-9a1a-5d2052411077","resource":{"resourceType":"MedicationStatement","id":"9eab3e87-fee3-41cf-9a1a-5d2052411077","status":"completed","medicationCodeableConcept":{"coding":[{"system":"http://www.nlm.nih.gov/research/umls/rxnorm","code":"18631"}]},"subject":{"reference":"Patient/cdbeefb7-eaa3-43c3-ad31-0b533a36a783"},"effectiveDateTime":"2022-04-07T00:00:00+00:00","dosage":[{"doseAndRate":[{"doseQuantity":{"value":3.7,"unit":"TAB","system":"http://terminology.hl7.org/CodeSystem/v3-orderableDrugForm","code":"TAB"}}]}]},"request":{"method":"POST","url":"MedicationStatement"}},{"fullUrl":"MedicationStatement/be54d1c1-e3da-4e3c-9153-e402954b2467","resource":{"resourceType":"MedicationStatement","id":"be54d1c1-e3da-4e3c-9153-e402954b2467","status":"completed","medicationCodeableConcept":{"coding":[{"system":"http://www.nlm.nih.gov/research/umls/rxnorm","code":"8698"}]},"subject":{"reference":"Patient/cdbeefb7-eaa3-43c3-ad31-0b533a36a783"},"effectiveDateTime":"2022-06-25T00:00:00+00:00","dosage":[{"doseAndRate":[{"doseQuantity":{"value":3.5,"unit":"TAB","system":"http://terminology.hl7.org/CodeSystem/v3-orderableDrugForm","code":"TAB"}}]}]},"request":{"method":"POST","url":"MedicationStatement"}},{"fullUrl":"Encounter/d6dfe05d-8883-475b-b273-90fb010005ee","resource":{"resourceType":"Encounter","id":"d6dfe05d-8883-475b-b273-90fb010005ee","status":"finished","class":{"system":"http://terminology.hl7.org/CodeSystem/v3-ActCode","code":"IMP","display":"inpatient encounter"},"type":[{"coding":[{"system":"http://terminology.hl7.org/CodeSystem/encounter-type","code":"BD/BM-clin"}]}],"subject":{"reference":"Patient/cdbeefb7-eaa3-43c3-ad31-0b533a36a783"},"period":{"start":"2022-08-02T00:00:00+00:00","end":"2022-08-03T00:00:00+00:00"}},"request":{"method":"POST","url":"Encounter"}},{"fullUrl":"Encounter/5bbb3b29-a59e-4045-bf6c-eee123d667ab","resource":{"resourceType":"Encounter","id":"5bbb3b29-a59e-4045-bf6c-eee123d667ab","status":"finished","class":{"system":"http://terminology.hl7.org/CodeSystem/v3-ActCode","code":"IMP","display":"inpatient encounter"},"type":[{"coding":[{"system":"http://terminology.hl7.org/CodeSystem/encounter-type","code":"CCS60"}]}],"subject":{"reference":"Patient/cdbeefb7-eaa3-43c3-ad31-0b533a36a783"},"period":{"start":"2022-03-19T00:00:00+00:00","end":"2022-03-19T00:00:00+00:00"}},"request":{"method":"POST","url":"Encounter"}},{"fullUrl":"Encounter/422db9cf-f8fc-4673-98be-072966d1b784","resource":{"resourceType":"Encounter","id":"422db9cf-f8fc-4673-98be-072966d1b784","status":"finished","class":{"system":"http://terminology.hl7.org/CodeSystem/v3-ActCode","code":"AMB","display":"ambulatory"},"type":[{"coding":[{"system":"http://terminology.hl7.org/CodeSystem/encounter-type","code":"OKI"}]}],"subject":{"reference":"Patient/cdbeefb7-eaa3-43c3-ad31-0b533a36a783"},"period":{"start":"2022-04-06T00:00:00+00:00","end":"2022-04-07T00:00:00+00:00"}},"request":{"method":"POST","url":"Encounter"}},{"fullUrl":"Encounter/cdbdb551-09f6-4ac9-ba4b-784dcd0be90f","resource":{"resourceType":"Encounter","id":"cdbdb551-09f6-4ac9-ba4b-784dcd0be90f","status":"finished","class":{"system":"http://terminology.hl7.org/CodeSystem/v3-ActCode","code":"AMB","display":"ambulatory"},"type":[{"coding":[{"system":"http://terminology.hl7.org/CodeSystem/encounter-type","code":"CCS60"}]}],"subject":{"reference":"Patient/cdbeefb7-eaa3-43c3-ad31-0b533a36a783"},"period":{"start":"2022-05-17T00:00:00+00:00","end":"2022-05-21T00:00:00+00:00"}},"request":{"method":"POST","url":"Encounter"}},{"fullUrl":"Encounter/ba5fe859-e59d-44da-929f-4e68fd833d22","resource":{"resourceType":"Encounter","id":"ba5fe859-e59d-44da-929f-4e68fd833d22","status":"finished","class":{"system":"http://terminology.hl7.org/CodeSystem/v3-ActCode","code":"FLD","display":"field"},"type":[{"coding":[{"system":"http://terminology.hl7.org/CodeSystem/encounter-type","code":"OKI"}]}],"subject":{"reference":"Patient/cdbeefb7-eaa3-43c3-ad31-0b533a36a783"},"period":{"start":"2022-08-22T00:00:00+00:00","end":"2022-08-22T00:00:00+00:00"}},"request":{"method":"POST","url":"Encounter"}},{"fullUrl":"Patient/e1edc4b1-6d12-41f2-8364-b35a00fe28f5","resource":{"resourceType":"Patient","id":"e1edc4b1-6d12-41f2-8364-b35a00fe28f5","identifier":[{"type":{"coding":[{"system":"http://terminology.hl7.org/CodeSystem/v2-0203","code":"MR"}]},"system":"urn:fhirgen:mrn","value":"832-92-8305"}],"name":[{"family":"Foster","given":["Alexander"]}],"telecom":[{"system":"phone","value":"(408)476-5799x86438"}],"gender":"male","birthDate":"1950-12-24","address":[{"line":["702 Ariel Streets Apt. 229"],"city":"New Mary","state":"New York","postalCode":"68608"}]},"request":{"method":"POST","url":"Patient"}},{"fullUrl":"Observation/7576503d-72cf-4a9d-b68a-668cf2340928","resource":{"resourceType":"Observation","id":"7576503d-72cf-4a9d-b68a-668cf2340928","status":"final","code":{"coding":[{"system":"http://loinc.org","code":"34382-2"}]},"subject":{"reference":"Patient/e1edc4b1-6d12-41f2-8364-b35a00fe28f5"},"effectiveDateTime":"2022-09-26T00:00:00+00:00","valueRatio":{"numerator":{"value":1},"denominator":{"value":32}}},"request":{"method":"POST","url":"Observation"}},{"fullUrl":"Observation/c55f6d56-1bbf-48e7-9b06-5b4a5a60e43e","resource":{"resourceType":"Observation","id":"c55f6d56-1bbf-48e7-9b06-5b4a5a60e43e","status":"final","code":{"coding":[{"system":"http://loinc.org","code":"50695-6"}]},"subject":{"reference":"Patient/e1edc4b1-6d12-41f2-8364-b35a00fe28f5"},"effectiveDateTime":"2022-04-20T00:00:00+00:00","valueRatio":{"numerator":{"value":1},"denominator":{"value":4}}},"request":{"method":"POST","url":"Observation"}},{"fullUrl":"Observation/e03d5233-afc3-43f4-a955-bad597396187","resource":{"resourceType":"Observation","id":"e03d5233-afc3-43f4-a955-bad597396187","status":"final","code":{"coding":[{"system":"http://loinc.org","code":"26009-1"}]},"subject":{"reference":"Patient/e1edc4b1-6d12-41f2-8364-b35a00fe28f5"},"effectiveDateTime":"2022-07-25T00:00:00+00:00","valueRatio":{"numerator":{"value":1},"denominator":{"value":32}}},"request":{"method":"POST","url":"Observation"}},{"fullUrl":"Condition/8bd487f9-0807-48de-8bdb-5be9eb44c1e6","resource":{"resourceType":"Condition","id":"8bd487f9-0807-48de-8bdb-5be9eb44c1e6","code":{"coding":[{"system":"http://snomed.info/sct","code":"405737000"}]},"subject":{"reference":"Patient/e1edc4b1-6d12-41f2-8364-b35a00fe28f5"},"onsetDateTime":"2022-07-31T00:00:00+00:00"},"request":{"method":"POST","url":"Condition"}},{"fullUrl":"Condition/e94dd9b7-ff3e-4c39-9413-d531049f0ee4","resource":{"resourceType":"Condition","id":"e94dd9b7-ff3e-4c39-9413-d531049f0ee4","code":{"coding":[{"system":"http://snomed.info/sct","code":"405737000"}]},"subject":{"reference":"Patient/e1edc4b1-6d12-41f2-8364-b35a00fe28f5"},"onsetDateTime":"2022-08-14T00:00:00+00:00"},"request":{"method":"POST","url":"Condition"}},{"fullUrl":"Condition/7ea1385d-844a-47c3-8e1f-b7e417d65da5","resource":{"resourceType":"Condition","id":"7ea1385d-844a-47c3-8e1f-b7e417d65da5","code":{"coding":[{"system":"http://snomed.info/sct","code":"79342006"}]},"subject":{"reference":"Patient/e1edc4b1-6d12-41f2-8364-b35a00fe28f5"},"onsetDateTime":"2022-11-28T00:00:00+00:00"},"request":{"method":"POST","url":"Condition"}},{"fullUrl":"Condition/783cdaa5-1100-46b8-93b5-1ea5f0149bb3","resource":{"resourceType":"Condition","id":"783cdaa5-1100-46b8-93b5-1ea5f0149bb3","code":{"coding":[{"system":"http://snomed.info/sct","code":"405737000"}]},"subject":{"reference":"Patient/e1edc4b1-6d12-41f2-8364-b35a00fe28f5"},"onsetDateTime":"2022-11-27T00:00:00+00:00"},"request":{"method":"POST","url":"Condition"}},{"fullUrl":"Condition/d6a17fde-9387-4bdd-adba-7601bb8e4c54","resource":{"resourceType":"Condition","id":"d6a17fde-9387-4bdd-adba-7601bb8e4c54","code":{"coding":[{"system":"http://snomed.info/sct","code":"386661006"}]},"subject":{"reference":"Patient/e1edc4b1-6d12-41f2-8364-b35a00fe28f5"},"onsetDateTime":"2022-09-09T00:00:00+00:00"},"request":{"method":"POST","url":"Condition"}},{"fullUrl":"Condition/0e7e184e-ab24-46b2-91cc-e89dcf4fbf63","resource":{"resourceType":"Condition","id":"0e7e184e-ab24-46b2-91cc-e89dcf4fbf63","code":{"coding":[{"system":"http://snomed.info/sct","code":"386661006"}]},"subject":{"reference":"Patient/e1edc4b1-6d12-41f2-8364-b35a00fe28f5"},"onsetDateTime":"2022-08-13T00:00:00+00:00"},"request":{"method":"POST","url":"Condition"}},{"fullUrl":"Condition/3807d8ee-b62e-474b-bbcb-b69c5dc40497","resource":{"resourceType":"Condition","id":"3807d8ee-b62e-474b-bbcb-b69c5dc40497","code":{"coding":[{"system":"http://snomed.info/sct","code":"418290006"}]},"subject":{"reference":"Patient/e1edc4b1-6d12-41f2-8364-b35a00fe28f5"},"onsetDateTime":"2022-05-01T00:00:00+00:00"},"request":{"method":"POST","url":"Condition"}},{"fullUrl":"Condition/e584275b-8ddd-4def-8226-eaef1bc9277c","resource":{"resourceType":"Condition","id":"e584275b-8ddd-4def-8226-eaef1bc9277c","code":{"coding":[{"system":"http://snomed.info/sct","code":"71315007"}]},"subject":{"reference":"Patient/e1edc4b1-6d12-41f2-8364-b35a00fe28f5"},"onsetDateTime":"2022-02-03T00:00:00+00:00"},"request":{"method":"POST","url":"Condition"}},{"fullUrl":"Observation/0fdd05f2-86cf-4dc7-acad-350c4fdc2ba2","resource":{"resourceType":"Observation","id":"0fdd05f2-86cf-4dc7-acad-350c4fdc2ba2","status":"final","code":{"coding":[{"system":"http://loinc.org","code":"6690-2"}]},"subject":{"reference":"Patient/e1edc4b1-6d12-41f2-8364-b35a00fe28f5"},"effectiveDateTime":"2022-09-04T00:00:00+00:00","valueQuantity":{"value":4.1}},"request":{"method":"POST","url":"Observation"}},{"fullUrl":"Observation/86eb0d07-98f8-46dc-bd2f-2e1755e2f99d","resource":{"resourceType":"Observation","id":"86eb0d07-98f8-46dc-bd2f-2e1755e2f99d","status":"final","code":{"coding":[{"system":"http://www.ama-assn.org/go/cpt","code":"85048"}]},"subject":{"reference":"Patient/e1edc4b1-6d12-41f2-8364-b35a00fe28f5"},"effectiveDateTime":"2022-10-02T00:00:00+00:00","valueQuantity":{"value":5.6}},"request":{"method":"POST","url":"Observation"}},{"fullUrl":"Observation/28c91ed1-c89a-4eea-aa53-bbcc7661ea1a","resource":{"resourceType":"Observation","id":"28c91ed1-c89a-4eea-aa53-bbcc7661ea1a","status":"final","code":{"coding":[{"system":"http://loinc.org","code":"49498-9"}]},"subject":{"reference":"Patient/e1edc4b1-6d12-41f2-8364-b35a00fe28f5"},"effectiveDateTime":"2022-11-17T00:00:00+00:00"},"request":{"method":"POST","url":"Observation"}},{"fullUrl":"Observation/04f5da00-b207-4e4f-b570-ea8b9596cdde","resource":{"resourceType":"Observation","id":"04f5da00-b207-4e4f-b570-ea8b9596cdde","status":"final","code":{"coding":[{"system":"http://loinc.org","code":"49498-9"}]},"subject":{"reference":"Patient/e1edc4b1-6d12-41f2-8364-b35a00fe28f5"},"effectiveDateTime":"2022-03-21T00:00:00+00:00"},"request":{"method":"POST","url":"Observation"}},{"fullUrl":"Procedure/dda55482-cb88-4205-af03-3d8cc31ccab9","resource":{"resourceType":"Procedure","id":"dda55482-cb88-4205-af03-3d8cc31ccab9","status":"completed","code":{"coding":[{"system":"http://snomed.info/sct","code":"189009"}]},"subject":{"reference":"Patient/e1edc4b1-6d12-41f2-8364-b35a00fe28f5"},"performedDateTime":"2022-08-10T00:00:00+00:00"},"request":{"method":"POST","url":"Procedure"}},{"fullUrl":"Procedure/61321da9-aab4-4166-afa0-cbdd37890968","resource":{"resourceType":"Procedure","id":"61321da9-aab4-4166-afa0-cbdd37890968","status":"completed","code":{"coding":[{"system":"http://snomed.info/sct","code":"115006"}]},"subject":{"reference":"Patient/e1edc4b1-6d12-41f2-8364-b35a00fe28f5"},"performedDateTime":"2022-03-24T00:00:00+00:00"},"request":{"method":"POST","url":"Procedure"}},{"fullUrl":"Procedure/56874e04-f672-48b9-b0fc-90cca0a05914","resource":{"resourceType":"Procedure","id":"56874e04-f672-48b9-b0fc-90cca0a05914","status":"completed","code":{"coding":[{"system":"http://snomed.info/sct","code":"189009"}]},"subject":{"reference":"Patient/e1edc4b1-6d12-41f2-8364-b35a00fe28f5"},"performedDateTime":"2022-11-06T00:00:00+00:00"},"request":{"method":"POST","url":"Procedure"}},{"fullUrl":"MedicationStatement/7b69c1fe-0992-4406-85ae-3ba42c53aac4","resource":{"resourceType":"MedicationStatement","id":"7b69c1fe-0992-4406-85ae-3ba42c53aac4","status":"completed","medicationCodeableConcept":{"coding":[{"system":"http://www.nlm.nih.gov/research/umls/rxnorm","code":"7984"}]},"subject":{"reference":"Patient/e1edc4b1-6d12-41f2-8364-b35a00fe28f5"},"effectiveDateTime":"2022-08-04T00:00:00+00:00","dosage":[{"doseAndRate":[{"doseQuantity":{"value":2,"unit":"TAB","system":"http://terminology.hl7.org/CodeSystem/v3-orderableDrugForm","code":"TAB"}}]}]},"request":{"method":"POST","url":"MedicationStatement"}},{"fullUrl":"MedicationStatement/330cf4fa-c0de-4417-bb1f-3ad05e121cf7","resource":{"resourceType":"MedicationStatement","id":"330cf4fa-c0de-4417-bb1f-3ad05e121cf7","status":"completed","medicationCodeableConcept":{"coding":[{"system":"http://www.nlm.nih.gov/research/umls/rxnorm","code":"2193"}]},"subject":{"reference":"Patient/e1edc4b1-6d12-41f2-8364-b35a00fe28f5"},"effectiveDateTime":"2022-10-07T00:00:00+00:00","dosage":[{"doseAndRate":[{"doseQuantity":{"value":2,"unit":"TAB","system":"http://terminology.hl7.org/CodeSystem/v3-orderableDrugForm","code":"TAB"}}]}]},"request":{"method":"POST","url":"MedicationStatement"}},{"fullUrl":"MedicationStatement/f4244abb-bead-49d5-af4d-509ead3ccf65","resource":{"resourceType":"MedicationStatement","id":"f4244abb-bead-49d5-af4d-509ead3ccf65","status":"completed","medicationCodeableConcept":{"coding":[{"system":"http://www.nlm.nih.gov/research/umls/rxnorm","code":"7980"}]},"subject":{"reference":"Patient/e1edc4b1-6d12-41f2-8364-b35a00fe28f5"},"effectiveDateTime":"2022-02-16T00:00:00+00:00","dosage":[{"doseAndRate":[{"doseQuantity":{"value":1,"unit":"TAB","system":"http://terminology.hl7.org/CodeSystem/v3-orderableDrugForm","code":"TAB"}}]}]},"request":{"method":"POST","url":"MedicationStatement"}},{"fullUrl":"MedicationStatement/ff2c1e57-1ea7-4e61-bc83-5425fa3aba9d","resource":{"resourceType":"MedicationStatement","id":"ff2c1e57-1ea7-4e61-bc83-5425fa3aba9d","status":"completed","medicationCodeableConcept":{"coding":[{"system":"http://www.nlm.nih.gov/research/umls/rxnorm","code":"3640"}]},"subject":{"reference":"Patient/e1edc4b1-6d12-41f2-8364-b35a00fe28f5"},"effectiveDateTime":"2022-01-03T00:00:00+00:00","dosage":[{"doseAndRate":[{"doseQuantity":{"value":1,"unit":"TAB","system":"http://terminology.hl7.org/CodeSystem/v3-orderableDrugForm","code":"TAB"}}]}]},"request":{"method":"POST","url":"MedicationStatement"}},{"fullUrl":"MedicationStatement/9fa5464e-3fda-4212-befa-8a1635dbfcb1","resource":{"resourceType":"MedicationStatement","id":"9fa5464e-3fda-4212-befa-8a1635dbfcb1","status":"completed","medicationCodeableConcept":{"coding":[{"system":"http://www.nlm.nih.gov/research/umls/rxnorm","code":"2193"}]},"subject":{"reference":"Patient/e1edc4b1-6d12-41f2-8364-b35a00fe28f5"},"effectiveDateTime":"2022-11-25T00:00:00+00:00","dosage":[{"doseAndRate":[{"doseQuantity":{"value":2,"unit":"TAB","system":"http://terminology.hl7.org/CodeSystem/v3-orderableDrugForm","code":"TAB"}}]}]},"request":{"method":"POST","url":"MedicationStatement"}},{"fullUrl":"MedicationStatement/cc2e402b-eff9-4b1f-b8fd-d9d2fe73f581","resource":{"resourceType":"MedicationStatement","id":"cc2e402b-eff9-4b1f-b8fd-d9d2fe73f581","status":"completed","medicationCodeableConcept":{"coding":[{"system":"http://www.nlm.nih.gov/research/umls/rxnorm","code":"3640"}]},"subject":{"reference":"Patient/e1edc4b1-6d12-41f2-8364-b35a00fe28f5"},"effectiveDateTime":"2022-01-10T00:00:00+00:00","dosage":[{"doseAndRate":[{"doseQuantity":{"value":1,"unit":"TAB","system":"http://terminology.hl7.org/CodeSystem/v3-orderableDrugForm","code":"TAB"}}]}]},"request":{"method":"POST","url":"MedicationStatement"}},{"fullUrl":"MedicationStatement/ab8a5291-7343-4b48-b6f9-bffa2a55cc0b","resource":{"resourceType":"MedicationStatement","id":"ab8a5291-7343-4b48-b6f9-bffa2a55cc0b","status":"completed","medicationCodeableConcept":{"coding":[{"system":"http://www.nlm.nih.gov/research/umls/rxnorm","code":"7984"}]},"subject":{"reference":"Patient/e1edc4b1-6d12-41f2-8364-b35a00fe28f5"},"effectiveDateTime":"2022-01-14T00:00:00+00:00","dosage":[{"doseAndRate":[{"doseQuantity":{"value":2,"unit":"TAB","system":"http://terminology.hl7.org/CodeSystem/v3-orderableDrugForm","code":"TAB"}}]}]},"request":{"method":"POST","url":"MedicationStatement"}},{"fullUrl":"MedicationStatement/4bedf8bd-3d29-4402-a86d-5a1644be4f97","resource":{"resourceType":"MedicationStatement","id":"4bedf8bd-3d29-4402-a86d-5a1644be4f97","status":"completed","medicationCodeableConcept":{"coding":[{"system":"http://www.nlm.nih.gov/research/umls/rxnorm","code":"7984"}]},"subject":{"reference":"Patient/e1edc4b1-6d12-41f2-8364-b35a00fe28f5"},"effectiveDateTime":"2022-07-01T00:00:00+00:00","dosage":[{"doseAndRate":[{"doseQuantity":{"value":5.8,"unit":"TAB","system":"http://terminology.hl7.org/CodeSystem/v3-orderableDrugForm","code":"TAB"}}]}]},"request":{"method":"POST","url":"MedicationStatement"}},{"fullUrl":"MedicationStatement/73929a3b-431b-4783-9e2a-ac985b257768","resource":{"resourceType":"MedicationStatement","id":"73929a3b-431b-4783-9e2a-ac985b257768","status":"completed","medicationCodeableConcept":{"coding":[{"system":"http://www.nlm.nih.gov/research/umls/rxnorm","code":"8698"}]},"subject":{"reference":"Patient/e1edc4b1-6d12-41f2-8364-b35a00fe28f5"},"effectiveDateTime":"2022-01-16T00:00:00+00:00","dosage":[{"doseAndRate":[{"doseQuantity":{"value":3.3,"unit":"TAB","system":"http://terminology.hl7.org/CodeSystem/v3-orderableDrugForm","code":"TAB"}}]}]},"request":{"method":"POST","url":"MedicationStatement"}},{"fullUrl":"MedicationStatement/21125254-4653-4c1b-a3de-745047ac4136","resource":{"resourceType":"MedicationStatement","id":"21125254-4653-4c1b-a3de-745047ac4136","status":"completed","medicationCodeableConcept":{"coding":[{"system":"http://www.nlm.nih.gov/research/umls/rxnorm","code":"7980"}]},"subject":{"reference":"Patient/e1edc4b1-6d12-41f2-8364-b35a00fe28f5"},"effectiveDateTime":"2022-07-25T00:00:00+00:00","dosage":[{"doseAndRate":[{"doseQuantity":{"value":5.5,"unit":"TAB","system":"http://terminology.hl7.org/CodeSystem/v3-orderableDrugForm","code":"TAB"}}]}]},"request":{"method":"POST","url":"MedicationStatement"}},{"fullUrl":"MedicationStatement/4ddc0e90-5df1-4823-9ba2-4d31ed728bc5","resource":{"resourceType":"MedicationStatement","id":"4ddc0e90-5df1-4823-9ba2-4d31ed728bc5","status":"completed","medicationCodeableConcept":{"coding":[{"system":"http://www.nlm.nih.gov/research/umls/rxnorm","code":"18631"}]},"subject":{"reference":"Patient/e1edc4b1-6d12-41f2-8364-b35a00fe28f5"},"effectiveDateTime":"2022-11-01T00:00:00+00:00","dosage":[{"doseAndRate":[{"doseQuantity":{"value":7,"unit":"TAB","system":"http://terminology.hl7.org/CodeSystem/v3-orderableDrugForm","code":"TAB"}}]}]},"request":{"method":"POST","url":"MedicationStatement"}},{"fullUrl":"MedicationStatement/4e9c6eb4-4988-4822-b523-b1d11b85312e","resource":{"resourceType":"MedicationStatement","id":"4e9c6eb4-4988-4822-b523-b1d11b85312e","status":"completed","medicationCodeableConcept":{"coding":[{"system":"http://www.nlm.nih.gov/research/umls/rxnorm","code":"8698"}]},"subject":{"reference":"Patient/e1edc4b1-6d12-41f2-8364-b35a00fe28f5"},"effectiveDateTime":"2022-12-11T00:00:00+00:00","dosage":[{"doseAndRate":[{"doseQuantity":{"value":6.9,"unit":"TAB","system":"http://terminology.hl7.org/CodeSystem/v3-orderableDrugForm","code":"TAB"}}]}]},"request":{"method":"POST","url":"MedicationStatement"}},{"fullUrl":"MedicationStatement/257e40cf-4b6c-4461-ba5d-5221b103df30","resource":{"resourceType":"MedicationStatement","id":"257e40cf-4b6c-4461-ba5d-5221b103df30","status":"completed","medicationCodeableConcept":{"coding":[{"system":"http://www.nlm.nih.gov/research/umls/rxnorm","code":"8698"}]},"subject":{"reference":"Patient/e1edc4b1-6d12-41f2-8364-b35a00fe28f5"},"effectiveDateTime":"2022-04-01T00:00:00+00:00","dosage":[{"doseAndRate":[{"doseQuantity":{"value":6.4,"unit":"TAB","system":"http://terminology.hl7.org/CodeSystem/v3-orderableDrugForm","code":"TAB"}}]}]},"request":{"method":"POST","url":"MedicationStatement"}},{"fullUrl":"MedicationStatement/b3ab4c37-5e2a-42bc-8184-8228c1d12f29","resource":{"resourceType":"MedicationStatement","id":"b3ab4c37-5e2a-42bc-8184-8228c1d12f29","status":"completed","medicationCodeableConcept":{"coding":[{"system":"http://www.nlm.nih.gov/research/umls/rxnorm","code":"2193"}]},"subject":{"reference":"Patient/e1edc4b1-6d12-41f2-8364-b35a00fe28f5"},"effectiveDateTime":"2022-02-07T00:00:00+00:00","dosage":[{"doseAndRate":[{"doseQuantity":{"value":3,"unit":"TAB","system":"http://terminology.hl7.org/CodeSystem/v3-orderableDrugForm","code":"TAB"}}]}]},"request":{"method":"POST","url":"MedicationStatement"}},{"fullUrl":"MedicationStatement/4652f97e-7755-49e1-b73c-6c25e7de9ef3","resource":{"resourceType":"MedicationStatement","id":"4652f97e-7755-49e1-b73c-6c25e7de9ef3","status":"completed","medicationCodeableConcept":{"coding":[{"system":"http://www.nlm.nih.gov/research/umls/rxnorm","code":"7980"}]},"subject":{"reference":"Patient/e1edc4b1-6d12-41f2-8364-b35a00fe28f5"},"effectiveDateTime":"2022-05-07T00:00:00+00:00","dosage":[{"doseAndRate":[{"doseQuantity":{"value":5.6,"unit":"TAB","system":"http://terminology.hl7.org/CodeSystem/v3-orderableDrugForm","code":"TAB"}}]}]},"request":{"method":"POST","url":"MedicationStatement"}},{"fullUrl":"Encounter/3e465b3c-d003-41f6-a2e6-17caeb9f4c9c","resource":{"resourceType":"Encounter","id":"3e465b3c-d003-41f6-a2e6-17caeb9f4c9c","status":"finished","class":{"system":"http://terminology.hl7.org/CodeSystem/v3-ActCode","code":"IMP","display":"inpatient encounter"},"type":[{"coding":[{"system":"http://terminology.hl7.org/CodeSystem/encounter-type","code":"ADMS"}]}],"subject":{"reference":"Patient/e1edc4b1-6d12-41f2-8364-b35a00fe28f5"},"period":{"start":"2022-08-08T00:00:00+00:00","end":"2022-08-12T00:00:00+00:00"}},"request":{"method":"POST","url":"Encounter"}},{"fullUrl":"Encounter/8975a4e8-ff22-4c7d-b723-e60d2297dc8d","resource":{"resourceType":"Encounter","id":"8975a4e8-ff22-4c7d-b723-e60d2297dc8d","status":"finished","class":{"system":"http://terminology.hl7.org/CodeSystem/v3-ActCode","code":"IMP","display":"inpatient encounter"},"type":[{"coding":[{"system":"http://terminology.hl7.org/CodeSystem/encounter-type","code":"ADMS"}]}],"subject":{"reference":"Patient/e1edc4b1-6d12-41f2-8364-b35a00fe28f5"},"period":{"start":"2022-04-01T00:00:00+00:00","end":"2022-04-04T00:00:00+00:00"}},"request":{"method":"POST","url":"Encounter"}},{"fullUrl":"Encounter/6fd06a91-8d69-4609-b4de-ee9363423f92","resource":{"resourceType":"Encounter","id":"6fd06a91-8d69-4609-b4de-ee9363423f92","status":"finished","class":{"system":"http://terminology.hl7.org/CodeSystem/v3-ActCode","code":"IMP","display":"inpatient encounter"},"type":[{"coding":[{"system":"http://terminology.hl7.org/CodeSystem/encounter-type","code":"CCS60"}]}],"subject":{"reference":"Patient/e1edc4b1-6d12-41f2-8364-b35a00fe28f5"},"period":{"start":"2022-09-06T00:00:00+00:00","end":"2022-09-09T00:00:00+00:00"}},"request":{"method":"POST","url":"Encounter"}},{"fullUrl":"Encounter/b95d2c0a-8ecf-4f31-bc94-6c44b32719f0","resource":{"resourceType":"Encounter","id":"b95d2c0a-8ecf-4f31-bc94-6c44b32719f0","status":"finished","class":{"system":"http://terminology.hl7.org/CodeSystem/v3-ActCode","code":"HH","display":"home health"},"type":[{"coding":[{"system":"http://terminology.hl7.org/CodeSystem/encounter-type","code":"BD/BM-clin"}]}],"subject":{"reference":"Patient/e1edc4b1-6d12-41f2-8364-b35a00fe28f5"},"period":{"start":"2022-02-08T00:00:00+00:00","end":"2022-02-17T00:00:00+00:00"}},"request":{"method":"POST","url":"Encounter"}},{"fullUrl":"Encounter/0d9a34a3-067d-42f2-aecd-7d7eb613e5f1","resource":{"resourceType":"Encounter","id":"0d9a34a3-067d-42f2-aecd-7d7eb613e5f1","status":"finished","class":{"system":"http://terminology.hl7.org/CodeSystem/v3-ActCode","code":"ACUTE","display":"inpatient acute"},"type":[{"coding":[{"system":"http://terminology.hl7.org/CodeSystem/encounter-type","code":"CCS60"}]}],"subject":{"reference":"Patient/e1edc4b1-6d12-41f2-8364-b35a00fe28f5"},"period":{"start":"2022-04-28T00:00:00+00:00","end":"2022-05-04T00:00:00+00:00"}},"request":{"method":"POST","url":"Encounter"}},{"fullUrl":"Encounter/ab702d62-630b-4328-8047-cb1f74a11f95","resource":{"resourceType":"Encounter","id":"ab702d62-630b-4328-8047-cb1f74a11f95","status":"finished","class":{"system":"http://terminology.hl7.org/CodeSystem/v3-ActCode","code":"SS","display":"short-stay"},"type":[{"coding":[{"system":"http://terminology.hl7.org/CodeSystem/encounter-type","code":"OKI"}]}],"subject":{"reference":"Patient/e1edc4b1-6d12-41f2-8364-b35a00fe28f5"},"period":{"start":"2022-09-30T00:00:00+00:00","end":"2022-10-02T00:00:00+00:00"}},"request":{"method":"POST","url":"Encounter"}},{"fullUrl":"Patient/6dbff4d2-dd1c-48ee-958a-88d9b2e4c852","resource":{"resourceType":"Patient","id":"6dbff4d2-dd1c-48ee-958a-88d9b2e4c852","identifier":[{"type":{"coding":[{"system":"http://terminology.hl7.org/CodeSystem/v2-0203","code":"MR"}]},"system":"urn:fhirgen:mrn","value":"773-95-5073"}],"name":[{"family":"Wolfe","given":["Whitney"]}],"telecom":[{"system":"phone","value":"(841)916-8312"}],"gender":"female","birthDate":"1997-04-20","address":[{"line":["7057 Kenneth Parks Suite 704"],"city":"Lake Amyhaven","state":"North Dakota","postalCode":"06307"}]},"request":{"method":"POST","url":"Patient"}},{"fullUrl":"Observation/33162c03-be50-4f51-87b7-581bd02419f0","resource":{"resourceType":"Observation","id":"33162c03-be50-4f51-87b7-581bd02419f0","status":"final","code":{"coding":[{"system":"http://loinc.org","code":"50690-7"}]},"subject":{"reference":"Patient/6dbff4d2-dd1c-48ee-958a-88d9b2e4c852"},"effectiveDateTime":"2022-06-29T00:00:00+00:00","valueRatio":{"numerator":{"value":1},"denominator":{"value":64}}},"request":{"method":"POST","url":"Observation"}},{"fullUrl":"Observation/ff151ef9-3a2a-420d-8680-00f8b6ac344c","resource":{"resourceType":"Observation","id":"ff151ef9-3a2a-420d-8680-00f8b6ac344c","status":"final","code":{"coding":[{"system":"http://loinc.org","code":"47235-7"}]},"subject":{"reference":"Patient/6dbff4d2-dd1c-48ee-958a-88d9b2e4c852"},"effectiveDateTime":"2022-04-20T00:00:00+00:00","valueRatio":{"numerator":{"value":1},"denominator":{"value":64}}},"request":{"method":"POST","url":"Observation"}},{"fullUrl":"Observation/45c0c1be-350b-4837-b617-97855832b6eb","resource":{"resourceType":"Observation","id":"45c0c1be-350b-4837-b617-97855832b6eb","status":"final","code":{"coding":[{"system":"http://loinc.org","code":"34382-2"}]},"subject":{"reference":"Patient/6dbff4d2-dd1c-48ee-958a-88d9b2e4c852"},"effectiveDateTime":"2022-04-18T00:00:00+00:00","valueRatio":{"numerator":{"value":1},"denominator":{"value":32}}},"request":{"method":"POST","url":"Observation"}},{"fullUrl":"Condition/da57575b-d10c-4449-9fee-d6bd87eb72b8","resource":{"resourceType":"Condition","id":"da57575b-d10c-4449-9fee-d6bd87eb72b8","code":{"coding":[{"system":"http://snomed.info/sct","code":"271939006"}]},"subject":{"reference":"Patient/6dbff4d2-dd1c-48ee-958a-88d9b2e4c852"},"onsetDateTime":"2022-11-03T00:00:00+00:00"},"request":{"method":"POST","url":"Condition"}},{"fullUrl":"Condition/c8a08514-a50e-4dd4-ab3f-ffccb19ef02d","resource":{"resourceType":"Condition","id":"c8a08514-a50e-4dd4-ab3f-ffccb19ef02d","code":{"coding":[{"system":"http://snomed.info/sct","code":"248980004"}]},"subject":{"reference":"Patient/6dbff4d2-dd1c-48ee-958a-88d9b2e4c852"},"onsetDateTime":"2022-10-12T00:00:00+00:00"},"request":{"method":"POST","url":"Condition"}},{"fullUrl":"Condition/b0a48626-4f9c-46b1-9004-4bd5bbc078f1","resource":{"resourceType":"Condition","id":"b0a48626-4f9c-46b1-9004-4bd5bbc078f1","code":{"coding":[{"system":"http://snomed.info/sct","code":"56317004"}]},"subject":{"reference":"Patient/6dbff4d2-dd1c-48ee-958a-88d9b2e4c852"},"onsetDateTime":"2022-10-17T00:00:00+00:00"},"request":{"method":"POST","url":"Condition"}},{"fullUrl":"Condition/77a20011-88e5-4777-98f9-026e4affef2f","resource":{"resourceType":"Condition","id":"77a20011-88e5-4777-98f9-026e4affef2f","code":{"coding":[{"system":"http://snomed.info/sct","code":"271939006"}]},"subject":{"reference":"Patient/6dbff4d2-dd1c-48ee-958a-88d9b2e4c852"},"onsetDateTime":"2022-06-04T00:00:00+00:00"},"request":{"method":"POST","url":"Condition"}},{"fullUrl":"Condition/5fcfe0e0-aea6-4f10-87d3-4ee71c9c021d","resource":{"resourceType":"Condition","id":"5fcfe0e0-aea6-4f10-87d3-4ee71c9c021d","code":{"coding":[{"system":"http://snomed.info/sct","code":"736686006"}]},"subject":{"reference":"Patient/6dbff4d2-dd1c-48ee-958a-88d9b2e4c852"},"onsetDateTime":"2022-04-28T00:00:00+00:00"},"request":{"method":"POST","url":"Condition"}},{"fullUrl":"Condition/d44d103c-639c-4cdd-aa7e-d649e6c19af6","resource":{"resourceType":"Condition","id":"d44d103c-639c-4cdd-aa7e-d649e6c19af6","code":{"coding":[{"system":"http://snomed.info/sct","code":"21522001"}]},"subject":{"reference":"Patient/6dbff4d2-dd1c-48ee-958a-88d9b2e4c852"},"onsetDateTime":"2022-05-25T00:00:00+00:00"},"request":{"method":"POST","url":"Condition"}},{"fullUrl":"Condition/032ae7b7-7b14-4d09-a0d9-a7d404afb50b","resource":{"resourceType":"Condition","id":"032ae7b7-7b14-4d09-a0d9-a7d404afb50b","code":{"coding":[{"system":"http://snomed.info/sct","code":"21522001"}]},"subject":{"reference":"Patient/6dbff4d2-dd1c-48ee-958a-88d9b2e4c852"},"onsetDateTime":"2022-09-27T00:00:00+00:00"},"request":{"method":"POST","url":"Condition"}},{"fullUrl":"Observation/f9e4e94a-f8c1-4ea4-8ff1-e8d64a2eb2da","resource":{"resourceType":"Observation","id":"f9e4e94a-f8c1-4ea4-8ff1-e8d64a2eb2da","status":"final","code":{"coding":[{"system":"http://loinc.org","code":"6690-2"}]},"subject":{"reference":"Patient/6dbff4d2-dd1c-48ee-958a-88d9b2e4c852"},"effectiveDateTime":"2022-07-08T00:00:00+00:00","valueQuantity":{"value":4.3}},"request":{"method":"POST","url":"Observation"}},{"fullUrl":"Observation/8f2a6581-9374-45e4-b09e-e35c8373af57","resource":{"resourceType":"Observation","id":"8f2a6581-9374-45e4-b09e-e35c8373af57","status":"final","code":{"coding":[{"system":"http://loinc.org","code":"6690-2"}]},"subject":{"reference":"Patient/6dbff4d2-dd1c-48ee-958a-88d9b2e4c852"},"effectiveDateTime":"2022-01-26T00:00:00+00:00","valueQuantity":{"value":4.9}},"request":{"method":"POST","url":"Observation"}},{"fullUrl":"Observation/06911694-e6b5-42e0-9a73-c0420bb4262d","resource":{"resourceType":"Observation","id":"06911694-e6b5-42e0-9a73-c0420bb4262d","status":"final","code":{"coding":[{"system":"http://loinc.org","code":"49498-9"}]},"subject":{"reference":"Patient/6dbff4d2-dd1c-48ee-958a-88d9b2e4c852"},"effectiveDateTime":"2022-11-22T00:00:00+00:00"},"request":{"method":"POST","url":"Observation"}},{"fullUrl":"Observation/5b0512c2-1dd0-474d-8033-8abd90faf5cc","resource":{"resourceType":"Observation","id":"5b0512c2-1dd0-474d-8033-8abd90faf5cc","status":"final","code":{"coding":[{"system":"http://loinc.org","code":"49498-9"}]},"subject":{"reference":"Patient/6dbff4d2-dd1c-48ee-958a-88d9b2e4c852"},"effectiveDateTime":"2022-05-12T00:00:00+00:00"},"request":{"method":"POST","url":"Observation"}},{"fullUrl":"Procedure/cde5a463-02f8-4eda-a37f-b48294ab73e6","resource":{"resourceType":"Procedure","id":"cde5a463-02f8-4eda-a37f-b48294ab73e6","status":"completed","code":{"coding":[{"system":"http://snomed.info/sct","code":"189009"}]},"subject":{"reference":"Patient/6dbff4d2-dd1c-48ee-958a-88d9b2e4c852"},"performedDateTime":"2022-12-04T00:00:00+00:00"},"request":{"method":"POST","url":"Procedure"}},{"fullUrl":"Procedure/0cd2e48c-8957-4557-9656-29b238c498f7","resource":{"resourceType":"Procedure","id":"0cd2e48c-8957-4557-9656-29b238c498f7","status":"completed","code":{"coding":[{"system":"http://snomed.info/sct","code":"115006"}]},"subject":{"reference":"Patient/6dbff4d2-dd1c-48ee-958a-88d9b2e4c852"},"performedDateTime":"2022-02-04T00:00:00+00:00"},"request":{"method":"POST","url":"Procedure"}},{"fullUrl":"Procedure/5de530ac-0e80-468e-babb-6924b7ae717f","resource":{"resourceType":"Procedure","id":"5de530ac-0e80-468e-babb-6924b7ae717f","status":"completed","code":{"coding":[{"system":"http://snomed.info/sct","code":"189009"}]},"subject":{"reference":"Patient/6dbff4d2-dd1c-48ee-958a-88d9b2e4c852"},"performedDateTime":"2022-12-29T00:00:00+00:00"},"request":{"method":"POST","url":"Procedure"}},{"fullUrl":"MedicationStatement/7c0f94e0-55d3-4ef6-9b33-a10b28dd2a41","resource":{"resourceType":"MedicationStatement","id":"7c0f94e0-55d3-4ef6-9b33-a10b28dd2a41","status":"completed","medicationCodeableConcept":{"coding":[{"system":"http://www.nlm.nih.gov/research/umls/rxnorm","code":"8698"}]},"subject":{"reference":"Patient/6dbff4d2-dd1c-48ee-958a-88d9b2e4c852"},"effectiveDateTime":"2022-12-10T00:00:00+00:00","dosage":[{"doseAndRate":[{"doseQuantity":{"value":1,"unit":"TAB","system":"http://terminology.hl7.org/CodeSystem/v3-orderableDrugForm","code":"TAB"}}]}]},"request":{"method":"POST","url":"MedicationStatement"}},{"fullUrl":"MedicationStatement/16753757-4ee3-4e48-95d1-290a044c472b","resource":{"resourceType":"MedicationStatement","id":"16753757-4ee3-4e48-95d1-290a044c472b","status":"completed","medicationCodeableConcept":{"coding":[{"system":"http://www.nlm.nih.gov/research/umls/rxnorm","code":"7980"}]},"subject":{"reference":"Patient/6dbff4d2-dd1c-48ee-958a-88d9b2e4c852"},"effectiveDateTime":"2022-11-04T00:00:00+00:00","dosage":[{"doseAndRate":[{"doseQuantity":{"value":2,"unit":"TAB","system":"http://terminology.hl7.org/CodeSystem/v3-orderableDrugForm","code":"TAB"}}]}]},"request":{"method":"POST","url":"MedicationStatement"}},{"fullUrl":"MedicationStatement/bd80c604-7b76-452c-9d2e-7f5fa1d3f48a","resource":{"resourceType":"MedicationStatement","id":"bd80c604-7b76-452c-9d2e-7f5fa1d3f48a","status":"completed","medicationCodeableConcept":{"coding":[{"system":"http://www.nlm.nih.gov/research/umls/rxnorm","code":"18631"}]},"subject":{"reference":"Patient/6dbff4d2-dd1c-48ee-958a-88d9b2e4c852"},"effectiveDateTime":"2022-03-17T00:00:00+00:00","dosage":[{"doseAndRate":[{"doseQuantity":{"value":2,"unit":"TAB","system":"http://terminology.hl7.org/CodeSystem/v3-orderableDrugForm","code":"TAB"}}]}]},"request":{"method":"POST","url":"MedicationStatement"}},{"fullUrl":"MedicationStatement/95075193-bd9c-4e5c-b09c-a15530611aef","resource":{"resourceType":"MedicationStatement","id":"95075193-bd9c-4e5c-b09c-a15530611aef","status":"completed","medicationCodeableConcept":{"coding":[{"system":"http://www.nlm.nih.gov/research/umls/rxnorm","code":"7984"}]},"subject":{"reference":"Patient/6dbff4d2-dd1c-48ee-958a-88d9b2e4c852"},"effectiveDateTime":"2022-08-03T00:00:00+00:00","dosage":[{"doseAndRate":[{"doseQuantity":{"value":2,"unit":"TAB","system":"http://terminology.hl7.org/CodeSystem/v3-orderableDrugForm","code":"TAB"}}]}]},"request":{"method":"POST","url":"MedicationStatement"}},{"fullUrl":"MedicationStatement/6b685c3e-1c0b-4bee-95cf-f697b29dbeb9","resource":{"resourceType":"MedicationStatement","id":"6b685c3e-1c0b-4bee-95cf-f697b29dbeb9","status":"completed","medicationCodeableConcept":{"coding":[{"system":"http://www.nlm.nih.gov/research/umls/rxnorm","code":"8698"}]},"subject":{"reference":"Patient/6dbff4d2-dd1c-48ee-958a-88d9b2e4c852"},"effectiveDateTime":"2022-10-08T00:00:00+00:00","dosage":[{"doseAndRate":[{"doseQuantity":{"value":2,"unit":"TAB","system":"http://terminology.hl7.org/CodeSystem/v3-orderableDrugForm","code":"TAB"}}]}]},"request":{"method":"POST","url":"MedicationStatement"}},{"fullUrl":"MedicationStatement/851dfd27-2568-41da-99e9-b28a1b7e548c","resource":{"resourceType":"MedicationStatement","id":"851dfd27-2568-41da-99e9-b28a1b7e548c","status":"completed","medicationCodeableConcept":{"coding":[{"system":"http://www.nlm.nih.gov/research/umls/rxnorm","code":"10395"}]},"subject":{"reference":"Patient/6dbff4d2-dd1c-48ee-958a-88d9b2e4c852"},"effectiveDateTime":"2022-07-09T00:00:00+00:00","dosage":[{"doseAndRate":[{"doseQuantity":{"value":1,"unit":"TAB","system":"http://terminology.hl7.org/CodeSystem/v3-orderableDrugForm","code":"TAB"}}]}]},"request":{"method":"POST","url":"MedicationStatement"}},{"fullUrl":"MedicationStatement/b08bcf65-e55a-4e9d-8f1b-4654948e4e58","resource":{"resourceType":"MedicationStatement","id":"b08bcf65-e55a-4e9d-8f1b-4654948e4e58","status":"completed","medicationCodeableConcept":{"coding":[{"system":"http://www.nlm.nih.gov/research/umls/rxnorm","code":"18631"}]},"subject":{"reference":"Patient/6dbff4d2-dd1c-48ee-958a-88d9b2e4c852"},"effectiveDateTime":"2022-12-07T00:00:00+00:00","dosage":[{"doseAndRate":[{"doseQuantity":{"value":2,"unit":"TAB","system":"http://terminology.hl7.org/CodeSystem/v3-orderableDrugForm","code":"TAB"}}]}]},"request":{"method":"POST","url":"MedicationStatement"}},{"fullUrl":"MedicationStatement/fb1ef362-1c8f-4f71-8254-4f3691fda5d6","resource":{"resourceType":"MedicationStatement","id":"fb1ef362-1c8f-4f71-8254-4f3691fda5d6","status":"completed","medicationCodeableConcept":{"coding":[{"system":"http://www.nlm.nih.gov/research/umls/rxnorm","code":"8698"}]},"subject":{"reference":"Patient/6dbff4d2-dd1c-48ee-958a-88d9b2e4c852"},"effectiveDateTime":"2022-06-17T00:00:00+00:00","dosage":[{"doseAndRate":[{"doseQuantity":{"value":2,"unit":"TAB","system":"http://terminology.hl7.org/CodeSystem/v3-orderableDrugForm","code":"TAB"}}]}]},"request":{"method":"POST","url":"MedicationStatement"}},{"fullUrl":"MedicationStatement/5ca625d7-5a32-468d-8426-bf0efd5d8e6c","resource":{"resourceType":"MedicationStatement","id":"5ca625d7-5a32-468d-8426-bf0efd5d8e6c","status":"completed","medicationCodeableConcept":{"coding":[{"system":"http://www.nlm.nih.gov/research/umls/rxnorm","code":"3640"}]},"subject":{"reference":"Patient/6dbff4d2-dd1c-48ee-958a-88d9b2e4c852"},"effectiveDateTime":"2022-06-10T00:00:00+00:00","dosage":[{"doseAndRate":[{"doseQuantity":{"value":5.7,"unit":"TAB","system":"http://terminology.hl7.org/CodeSystem/v3-orderableDrugForm","code":"TAB"}}]}]},"request":{"method":"POST","url":"MedicationStatement"}},{"fullUrl":"MedicationStatement/e75c6357-7c27-477e-8ab4-8e09f858a26b","resource":{"resourceType":"MedicationStatement","id":"e75c6357-7c27-477e-8ab4-8e09f858a26b","status":"completed","medicationCodeableConcept":{"coding":[{"system":"http://www.nlm.nih.gov/research/umls/rxnorm","code":"8698"}]},"subject":{"reference":"Patient/6dbff4d2-dd1c-48ee-958a-88d9b2e4c852"},"effectiveDateTime":"2022-11-14T00:00:00+00:00","dosage":[{"doseAndRate":[{"doseQuantity":{"value":6.4,"unit":"TAB","system":"http://terminology.hl7.org/CodeSystem/v3-orderableDrugForm","code":"TAB"}}]}]},"request":{"method":"POST","url":"MedicationStatement"}},{"fullUrl":"MedicationStatement/3be26daf-0eb9-40e5-91a0-e26414ed6981","resource":{"resourceType":"MedicationStatement","id":"3be26daf-0eb9-40e5-91a0-e26414ed6981","status":"completed","medicationCodeableConcept":{"coding":[{"system":"http://www.nlm.nih.gov/research/umls/rxnorm","code":"2193"}]},"subject":{"reference":"Patient/6dbff4d2-dd1c-48ee-958a-88d9b2e4c852"},"effectiveDateTime":"2022-06-19T00:00:00+00:00","dosage":[{"doseAndRate":[{"doseQuantity":{"value":5.6,"unit":"TAB","system":"http://terminology.hl7.org/CodeSystem/v3-orderableDrugForm","code":"TAB"}}]}]},"request":{"method":"POST","url":"MedicationStatement"}},{"fullUrl":"MedicationStatement/01416784-4405-4ed8-849b-f73a17d6cc41","resource":{"resourceType":"MedicationStatement","id":"01416784-4405-4ed8-849b-f73a17d6cc41","status":"completed","medicationCodeableConcept":{"coding":[{"system":"http://www.nlm.nih.gov/research/umls/rxnorm","code":"18631"}]},"subject":{"reference":"Patient/6dbff4d2-dd1c-48ee-958a-88d9b2e4c852"},"effectiveDateTime":"2022-08-05T00:00:00+00:00","dosage":[{"doseAndRate":[{"doseQuantity":{"value":4.7,"unit":"TAB","system":"http://terminology.hl7.org/CodeSystem/v3-orderableDrugForm","code":"TAB"}}]}]},"request":{"method":"POST","url":"MedicationStatement"}},{"fullUrl":"MedicationStatement/3c23c74c-5ea1-452d-be51-bdd4d4c269e7","resource":{"resourceType":"MedicationStatement","id":"3c23c74c-5ea1-452d-be51-bdd4d4c269e7","status":"completed","medicationCodeableConcept":{"coding":[{"system":"http://www.nlm.nih.gov/research/umls/rxnorm","code":"8698"}]},"subject":{"reference":"Patient/6dbff4d2-dd1c-48ee-958a-88d9b2e4c852"},"effectiveDateTime":"2022-04-02T00:00:00+00:00","dosage":[{"doseAndRate":[{"doseQuantity":{"value":4.6,"unit":"TAB","system":"http://terminology.hl7.org/CodeSystem/v3-orderableDrugForm","code":"TAB"}}]}]},"request":{"method":"POST","url":"MedicationStatement"}},{"fullUrl":"MedicationStatement/3d4bf6e1-610d-440e-9cb8-6dcfa77c566e","resource":{"resourceType":"MedicationStatement","id":"3d4bf6e1-610d-440e-9cb8-6dcfa77c566e","status":"completed","medicationCodeableConcept":{"coding":[{"system":"http://www.nlm.nih.gov/research/umls/rxnorm","code":"8698"}]},"subject":{"reference":"Patient/6dbff4d2-dd1c-48ee-958a-88d9b2e4c852"},"effectiveDateTime":"2022-07-06T00:00:00+00:00","dosage":[{"doseAndRate":[{"doseQuantity":{"value":4.1,"unit":"TAB","system":"http://terminology.hl7.org/CodeSystem/v3-orderableDrugForm","code":"TAB"}}]}]},"request":{"method":"POST","url":"MedicationStatement"}},{"fullUrl":"Encounter/d45a86df-c709-4a07-bcce-4f6ebbc9e60a","resource":{"resourceType":"Encounter","id":"d45a86df-c709-4a07-bcce-4f6ebbc9e60a","status":"finished","class":{"system":"http://terminology.hl7.org/CodeSystem/v3-ActCode","code":"IMP","display":"inpatient encounter"},"type":[{"coding":[{"system":"http://terminology.hl7.org/CodeSystem/encounter-type","code":"BD/BM-clin"}]}],"subject":{"reference":"Patient/6dbff4d2-dd1c-48ee-958a-88d9b2e4c852"},"period":{"start":"2022-07-31T00:00:00+00:00","end":"2022-08-05T00:00:00+00:00"}},"request":{"method":"POST","url":"Encounter"}},{"fullUrl":"Encounter/c8761463-2266-42f2-b735-811a3e93d963","resource":{"resourceType":"Encounter","id":"c8761463-2266-42f2-b735-811a3e93d963","status":"finished","class":{"system":"http://terminology.hl7.org/CodeSystem/v3-ActCode","code":"IMP","display":"inpatient encounter"},"type":[{"coding":[{"system":"http://terminology.hl7.org/CodeSystem/encounter-type","code":"ADMS"}]}],"subject":{"reference":"Patient/6dbff4d2-dd1c-48ee-958a-88d9b2e4c852"},"period":{"start":"2022-06-30T00:00:00+00:00","end":"2022-07-04T00:00:00+00:00"}},"request":{"method":"POST","url":"Encounter"}},{"fullUrl":"Encounter/4d4bb9cb-51ab-4067-b8df-e37eb8e9a1fc","resource":{"resourceType":"Encounter","id":"4d4bb9cb-51ab-4067-b8df-e37eb8e9a1fc","status":"finished","class":{"system":"http://terminology.hl7.org/CodeSystem/v3-ActCode","code":"ACUTE","display":"inpatient acute"},"type":[{"coding":[{"system":"http://terminology.hl7.org/CodeSystem/encounter-type","code":"BD/BM-clin"}]}],"subject":{"reference":"Patient/6dbff4d2-dd1c-48ee-958a-88d9b2e4c852"},"period":{"start":"2022-07-03T00:00:00+00:00","end":"2022-07-04T00:00:00+00:00"}},"request":{"method":"POST","url":"Encounter"}},{"fullUrl":"Encounter/b9ed243f-5601-4159-86de-15b8e7877a07","resource":{"resourceType":"Encounter","id":"b9ed243f-5601-4159-86de-15b8e7877a07","status":"finished","class":{"system":"http://terminology.hl7.org/CodeSystem/v3-ActCode","code":"IMP","display":"inpatient encounter"},"type":[{"coding":[{"system":"http://terminology.hl7.org/CodeSystem/encounter-type","code":"BD/BM-clin"}]}],"subject":{"reference":"Patient/6dbff4d2-dd1c-48ee-958a-88d9b2e4c852"},"period":{"start":"2022-06-25T00:00:00+00:00","end":"2022-06-28T00:00:00+00:00"}},"request":{"method":"POST","url":"Encounter"}},{"fullUrl":"Encounter/a21b7918-a603-46ea-826a-e50bf782430c","resource":{"resourceType":"Encounter","id":"a21b7918-a603-46ea-826a-e50bf782430c","status":"finished","class":{"system":"http://terminology.hl7.org/CodeSystem/v3-ActCode","code":"HH","display":"home health"},"type":[{"coding":[{"system":"http://terminology.hl7.org/CodeSystem/encounter-type","code":"CCS60"}]}],"subject":{"reference":"Patient/6dbff4d2-dd1c-48ee-958a-88d9b2e4c852"},"period":{"start":"2022-06-10T00:00:00+00:00","end":"2022-06-16T00:00:00+00:00"}},"request":{"method":"POST","url":"Encounter"}},{"fullUrl":"Patient/750bb46f-b419-4252-b7dc-94b1d01bf06a","resource":{"resourceType":"Patient","id":"750bb46f-b419-4252-b7dc-94b1d01bf06a","identifier":[{"type":{"coding":[{"system":"http://terminology.hl7.org/CodeSystem/v2-0203","code":"MR"}]},"system":"urn:fhirgen:mrn","value":"360-69-6171"}],"name":[{"family":"Higgins","given":["Katherine"]}],"telecom":[{"system":"phone","value":"+1-795-751-0180"}],"gender":"female","birthDate":"1977-12-27","address":[{"line":["3216 Austin Overpass"],"city":"Reedfurt","state":"Oregon","postalCode":"81856"}]},"request":{"method":"POST","url":"Patient"}},{"fullUrl":"Observation/6ffc8ca3-ab47-4cc6-84f2-6d4221604dc2","resource":{"resourceType":"Observation","id":"6ffc8ca3-ab47-4cc6-84f2-6d4221604dc2","status":"final","code":{"coding":[{"system":"http://loinc.org","code":"50695-6"}]},"subject":{"reference":"Patient/750bb46f-b419-4252-b7dc-94b1d01bf06a"},"effectiveDateTime":"2022-07-21T00:00:00+00:00","valueRatio":{"numerator":{"value":1},"denominator":{"value":4}}},"request":{"method":"POST","url":"Observation"}},{"fullUrl":"Observation/53cdb24f-12b2-455c-aa0d-df8c4bfcb998","resource":{"resourceType":"Observation","id":"53cdb24f-12b2-455c-aa0d-df8c4bfcb998","status":"final","code":{"coding":[{"system":"http://loinc.org","code":"34382-2"}]},"subject":{"reference":"Patient/750bb46f-b419-4252-b7dc-94b1d01bf06a"},"effectiveDateTime":"2022-09-15T00:00:00+00:00","valueRatio":{"numerator":{"value":1},"denominator":{"value":32}}},"request":{"method":"POST","url":"Observation"}},{"fullUrl":"Condition/5a1dd763-172e-4d28-9636-d5b3df0a5909","resource":{"resourceType":"Condition","id":"5a1dd763-172e-4d28-9636-d5b3df0a5909","code":{"coding":[{"system":"http://snomed.info/sct","code":"405737000"}]},"subject":{"reference":"Patient/750bb46f-b419-4252-b7dc-94b1d01bf06a"},"onsetDateTime":"2022-03-21T00:00:00+00:00"},"request":{"method":"POST","url":"Condition"}},{"fullUrl":"Condition/7c61631a-213e-4245-b9b2-0c656c6bfe97","resource":{"resourceType":"Condition","id":"7c61631a-213e-4245-b9b2-0c656c6bfe97","code":{"coding":[{"system":"http://snomed.info/sct","code":"271807003"}]},"subject":{"reference":"Patient/750bb46f-b419-4252-b7dc-94b1d01bf06a"},"onsetDateTime":"2022-03-18T00:00:00+00:00"},"request":{"method":"POST","url":"Condition"}},{"fullUrl":"Condition/242eaec6-9524-4bfc-b93d-92f9fcb5a351","resource":{"resourceType":"Condition","id":"242eaec6-9524-4bfc-b93d-92f9fcb5a351","code":{"coding":[{"system":"http://snomed.info/sct","code":"3951002"}]},"subject":{"reference":"Patient/750bb46f-b419-4252-b7dc-94b1d01bf06a"},"onsetDateTime":"2022-11-24T00:00:00+00:00"},"request":{"method":"POST","url":"Condition"}},{"fullUrl":"Condition/6906150d-e909-4861-8bb7-81314369be79","resource":{"resourceType":"Condition","id":"6906150d-e909-4861-8bb7-81314369be79","code":{"coding":[{"system":"http://snomed.info/sct","code":"709977002"}]},"subject":{"reference":"Patient/750bb46f-b419-4252-b7dc-94b1d01bf06a"},"onsetDateTime":"2022-10-21T00:00:00+00:00"},"request":{"method":"POST","url":"Condition"}},{"fullUrl":"Observation/69b014d8-af8d-4cb3-81de-8fbe33c46c25","resource":{"resourceType":"Observation","id":"69b014d8-af8d-4cb3-81de-8fbe33c46c25","status":"final","code":{"coding":[{"system":"http://www.ama-assn.org/go/cpt","code":"85048"}]},"subject":{"reference":"Patient/750bb46f-b419-4252-b7dc-94b1d01bf06a"},"effectiveDateTime":"2022-12-23T00:00:00+00:00","valueQuantity":{"value":6}},"request":{"method":"POST","url":"Observation"}},{"fullUrl":"Observation/97d53c2d-c08f-4dc0-95ee-bff43c0787b7","resource":{"resourceType":"Observation","id":"97d53c2d-c08f-4dc0-95ee-bff43c0787b7","status":"final","code":{"coding":[{"system":"http://www.ama-assn.org/go/cpt","code":"85048"}]},"subject":{"reference":"Patient/750bb46f-b419-4252-b7dc-94b1d01bf06a"},"effectiveDateTime":"2022-02-01T00:00:00+00:00","valueQuantity":{"value":10.7}},"request":{"method":"POST","url":"Observation"}},{"fullUrl":"Observation/1304f236-2a40-4394-810a-2596f1e3e240","resource":{"resourceType":"Observation","id":"1304f236-2a40-4394-810a-2596f1e3e240","status":"final","code":{"coding":[{"system":"http://loinc.org","code":"49498-9"}]},"subject":{"reference":"Patient/750bb46f-b419-4252-b7dc-94b1d01bf06a"},"effectiveDateTime":"2022-03-22T00:00:00+00:00"},"request":{"method":"POST","url":"Observation"}},{"fullUrl":"Observation/72540327-38c1-4f74-aa83-c00528097e16","resource":{"resourceType":"Observation","id":"72540327-38c1-4f74-aa83-c00528097e16","status":"final","code":{"coding":[{"system":"http://loinc.org","code":"49498-9"}]},"subject":{"reference":"Patient/750bb46f-b419-4252-b7dc-94b1d01bf06a"},"effectiveDateTime":"2022-06-13T00:00:00+00:00"},"request":{"method":"POST","url":"Observation"}},{"fullUrl":"Observation/fdd3f1aa-073c-450f-9c67-df67968c1fb5","resource":{"resourceType":"Observation","id":"fdd3f1aa-073c-450f-9c67-df67968c1fb5","status":"final","code":{"coding":[{"system":"http://loinc.org","code":"49498-9"}]},"subject":{"reference":"Patient/750bb46f-b419-4252-b7dc-94b1d01bf06a"},"effectiveDateTime":"2022-10-21T00:00:00+00:00"},"request":{"method":"POST","url":"Observation"}},{"fullUrl":"Procedure/0843ea37-ea48-4f42-b2e9-6245e95bcfd3","resource":{"resourceType":"Procedure","id":"0843ea37-ea48-4f42-b2e9-6245e95bcfd3","status":"completed","code":{"coding":[{"system":"http://snomed.info/sct","code":"146005"}]},"subject":{"reference":"Patient/750bb46f-b419-4252-b7dc-94b1d01bf06a"},"performedDateTime":"2022-11-15T00:00:00+00:00"},"request":{"method":"POST","url":"Procedure"}},{"fullUrl":"Procedure/ecb399c8-ade3-4eb8-8bc1-293055b92ff9","resource":{"resourceType":"Procedure","id":"ecb399c8-ade3-4eb8-8bc1-293055b92ff9","status":"completed","code":{"coding":[{"system":"http://snomed.info/sct","code":"647000"}]},"subject":{"reference":"Patient/750bb46f-b419-4252-b7dc-94b1d01bf06a"},"performedDateTime":"2022-10-29T00:00:00+00:00"},"request":{"method":"POST","url":"Procedure"}},{"fullUrl":"Procedure/b9ea28aa-2279-4370-963b-dd67a19000dc","resource":{"resourceType":"Procedure","id":"b9ea28aa-2279-4370-963b-dd67a19000dc","status":"completed","code":{"coding":[{"system":"http://snomed.info/sct","code":"146005"}]},"subject":{"reference":"Patient/750bb46f-b419-4252-b7dc-94b1d01bf06a"},"performedDateTime":"2022-03-21T00:00:00+00:00"},"request":{"method":"POST","url":"Procedure"}},{"fullUrl":"MedicationStatement/87120b30-9244-47bd-bfc2-8d4630854035","resource":{"resourceType":"MedicationStatement","id":"87120b30-9244-47bd-bfc2-8d4630854035","status":"completed","medicationCodeableConcept":{"coding":[{"system":"http://www.nlm.nih.gov/research/umls/rxnorm","code":"2193"}]},"subject":{"reference":"Patient/750bb46f-b419-4252-b7dc-94b1d01bf06a"},"effectiveDateTime":"2022-10-08T00:00:00+00:00","dosage":[{"doseAndRate":[{"doseQuantity":{"value":1,"unit":"TAB","system":"http://terminology.hl7.org/CodeSystem/v3-orderableDrugForm","code":"TAB"}}]}]},"request":{"method":"POST","url":"MedicationStatement"}},{"fullUrl":"MedicationStatement/87d5e5a0-ddd9-47a8-8135-9af59e1811a7","resource":{"resourceType":"MedicationStatement","id":"87d5e5a0-ddd9-47a8-8135-9af59e1811a7","status":"completed","medicationCodeableConcept":{"coding":[{"system":"http://www.nlm.nih.gov/research/umls/rxnorm","code":"10395"}]},"subject":{"reference":"Patient/750bb46f-b419-4252-b7dc-94b1d01bf06a"},"effectiveDateTime":"2022-07-18T00:00:00+00:00","dosage":[{"doseAndRate":[{"doseQuantity":{"value":2,"unit":"TAB","system":"http://terminology.hl7.org/CodeSystem/v3-orderableDrugForm","code":"TAB"}}]}]},"request":{"method":"POST","url":"MedicationStatement"}},{"fullUrl":"MedicationStatement/8b42f6c8-cb04-4dca-a84a-8b2bd23ff5d0","resource":{"resourceType":"MedicationStatement","id":"8b42f6c8-cb04-4dca-a84a-8b2bd23ff5d0","status":"completed","medicationCodeableConcept":{"coding":[{"system":"http://www.nlm.nih.gov/research/umls/rxnorm","code":"2193"}]},"subject":{"reference":"Patient/750bb46f-b419-4252-b7dc-94b1d01bf06a"},"effectiveDateTime":"2022-04-28T00:00:00+00:00","dosage":[{"doseAndRate":[{"doseQuantity":{"value":2,"unit":"TAB","system":"http://terminology.hl7.org/CodeSystem/v3-orderableDrugForm","code":"TAB"}}]}]},"request":{"method":"POST","url":"MedicationStatement"}},{"fullUrl":"MedicationStatement/fca93a46-d542-4c03-8fa4-7a29032bada9","resource":{"resourceType":"MedicationStatement","id":"fca93a46-d542-4c03-8fa4-7a29032bada9","status":"completed","medicationCodeableConcept":{"coding":[{"system":"http://www.nlm.nih.gov/research/umls/rxnorm","code":"10395"}]},"subject":{"reference":"Patient/750bb46f-b419-4252-b7dc-94b1d01bf06a"},"effectiveDateTime":"2022-10-25T00:00:00+00:00","dosage":[{"doseAndRate":[{"doseQuantity":{"value":2,"unit":"TAB","system":"http://terminology.hl7.org/CodeSystem/v3-orderableDrugForm","code":"TAB"}}]}]},"request":{"method":"POST","url":"MedicationStatement"}},{"fullUrl":"MedicationStatement/afb01745-8f67-4652-8ee8-4fcefcf0ea9c","resource":{"resourceType":"MedicationStatement","id":"afb01745-8f67-4652-8ee8-4fcefcf0ea9c","status":"completed","medicationCodeableConcept":{"coding":[{"system":"http://www.nlm.nih.gov/research/umls/rxnorm","code":"7984"}]},"subject":{"reference":"Patient/750bb46f-b419-4252-b7dc-94b1d01bf06a"},"effectiveDateTime":"2022-03-25T00:00:00+00:00","dosage":[{"doseAndRate":[{"doseQuantity":{"value":2,"unit":"TAB","system":"http://terminology.hl7.org/CodeSystem/v3-orderableDrugForm","code":"TAB"}}]}]},"request":{"method":"POST","url":"MedicationStatement"}},{"fullUrl":"MedicationStatement/bc8a9c40-5f5e-4fb0-a441-9accc9c76646","resource":{"resourceType":"MedicationStatement","id":"bc8a9c40-5f5e-4fb0-a441-9accc9c76646","status":"completed","medicationCodeableConcept":{"coding":[{"system":"http://www.nlm.nih.gov/research/umls/rxnorm","code":"7980"}]},"subject":{"reference":"Patient/750bb46f-b419-4252-b7dc-94b1d01bf06a"},"effectiveDateTime":"2022-05-01T00:00:00+00:00","dosage":[{"doseAndRate":[{"doseQuantity":{"value":6.6,"unit":"TAB","system":"http://terminology.hl7.org/CodeSystem/v3-orderableDrugForm","code":"TAB"}}]}]},"request":{"method":"POST","url":"MedicationStatement"}},{"fullUrl":"MedicationStatement/8d16ca5c-6a98-42d7-88aa-d795f2c9f699","resource":{"resourceType":"MedicationStatement","id":"8d16ca5c-6a98-42d7-88aa-d795f2c9f699","status":"completed","medicationCodeableConcept":{"coding":[{"system":"http://www.nlm.nih.gov/research/umls/rxnorm","code":"8698"}]},"subject":{"reference":"Patient/750bb46f-b419-4252-b7dc-94b1d01bf06a"},"effectiveDateTime":"2022-12-11T00:00:00+00:00","dosage":[{"doseAndRate":[{"doseQuantity":{"value":5.6,"unit":"TAB","system":"http://terminology.hl7.org/CodeSystem/v3-orderableDrugForm","code":"TAB"}}]}]},"request":{"method":"POST","url":"MedicationStatement"}},{"fullUrl":"Encounter/b92d8578-1ea9-4312-9c80-539e1697ea3d","resource":{"resourceType":"Encounter","id":"b92d8578-1ea9-4312-9c80-539e1697ea3d","status":"finished","class":{"system":"http://terminology.hl7.org/CodeSystem/v3-ActCode","code":"IMP","display":"inpatient encounter"},"type":[{"coding":[{"system":"http://terminology.hl7.org/CodeSystem/encounter-type","code":"ADMS"}]}],"subject":{"reference":"Patient/750bb46f-b419-4252-b7dc-94b1d01bf06a"},"period":{"start":"2022-07-23T00:00:00+00:00","end":"2022-07-29T00:00:00+00:00"}},"request":{"method":"POST","url":"Encounter"}},{"fullUrl":"Encounter/b03d3cad-75c4-4ece-8cff-bd6606b2c788","resource":{"resourceType":"Encounter","id":"b03d3cad-75c4-4ece-8cff-bd6606b2c788","status":"finished","class":{"system":"http://terminology.hl7.org/CodeSystem/v3-ActCode","code":"IMP","display":"inpatient encounter"},"type":[{"coding":[{"system":"http://terminology.hl7.org/CodeSystem/encounter-type","code":"OKI"}]}],"subject":{"reference":"Patient/750bb46f-b419-4252-b7dc-94b1d01bf06a"},"period":{"start":"2022-11-20T00:00:00+00:00","end":"2022-11-20T00:00:00+00:00"}},"request":{"method":"POST","url":"Encounter"}},{"fullUrl":"Encounter/3a79ee5f-2181-466e-8dea-f0f5f68dc0da","resource":{"resourceType":"Encounter","id":"3a79ee5f-2181-466e-8dea-f0f5f68dc0da","status":"finished","class":{"system":"http://terminology.hl7.org/CodeSystem/v3-ActCode","code":"EMER","display":"emergency"},"type":[{"coding":[{"system":"http://terminology.hl7.org/CodeSystem/encounter-type","code":"CCS60"}]}],"subject":{"reference":"Patient/750bb46f-b419-4252-b7dc-94b1d01bf06a"},"period":{"start":"2022-08-15T00:00:00+00:00","end":"2022-08-24T00:00:00+00:00"}},"request":{"method":"POST","url":"Encounter"}},{"fullUrl":"Encounter/d011c834-ccb4-4778-9c36-48d5ad2cd398","resource":{"resourceType":"Encounter","id":"d011c834-ccb4-4778-9c36-48d5ad2cd398","status":"finished","class":{"system":"http://terminology.hl7.org/CodeSystem/v3-ActCode","code":"AMB","display":"ambulatory"},"type":[{"coding":[{"system":"http://terminology.hl7.org/CodeSystem/encounter-type","code":"BD/BM-clin"}]}],"subject":{"reference":"Patient/750bb46f-b419-4252-b7dc-94b1d01bf06a"},"period":{"start":"2022-09-07T00:00:00+00:00","end":"2022-09-12T00:00:00+00:00"}},"request":{"method":"POST","url":"Encounter"}},{"fullUrl":"Patient/414b7c00-f2a6-4479-b6a1-f41cdd855788","resource":{"resourceType":"Patient","id":"414b7c00-f2a6-4479-b6a1-f41cdd855788","identifier":[{"type":{"coding":[{"system":"http://terminology.hl7.org/CodeSystem/v2-0203","code":"MR"}]},"system":"urn:fhirgen:mrn","value":"730-53-3411"}],"name":[{"family":"Ramsey","given":["Ronald"]}],"telecom":[{"system":"phone","value":"(946)783-5048x882"}],"gender":"other","birthDate":"1996-04-05","address":[{"line":["879 Little Vista Apt. 175"],"city":"Port Bethanyland","state":"Maine","postalCode":"61039"}]},"request":{"method":"POST","url":"Patient"}},{"fullUrl":"Observation/9d236fcc-ecb8-451b-bbf7-0ca237621704","resource":{"resourceType":"Observation","id":"9d236fcc-ecb8-451b-bbf7-0ca237621704","status":"final","code":{"coding":[{"system":"http://loinc.org","code":"34382-2"}]},"subject":{"reference":"Patient/414b7c00-f2a6-4479-b6a1-f41cdd855788"},"effectiveDateTime":"2022-07-11T00:00:00+00:00","valueRatio":{"numerator":{"value":1},"denominator":{"value":64}}},"request":{"method":"POST","url":"Observation"}},{"fullUrl":"Observation/1900bd60-a3e4-4c65-9122-8054bc848e3f","resource":{"resourceType":"Observation","id":"1900bd60-a3e4-4c65-9122-8054bc848e3f","status":"final","code":{"coding":[{"system":"http://loinc.org","code":"47476-7"}]},"subject":{"reference":"Patient/414b7c00-f2a6-4479-b6a1-f41cdd855788"},"effectiveDateTime":"2022-03-15T00:00:00+00:00","valueRatio":{"numerator":{"value":1},"denominator":{"value":32}}},"request":{"method":"POST","url":"Observation"}},{"fullUrl":"Observation/daeeb4d0-d7b6-4571-91fe-3fe72d0ac937","resource":{"resourceType":"Observation","id":"daeeb4d0-d7b6-4571-91fe-3fe72d0ac937","status":"final","code":{"coding":[{"system":"http://loinc.org","code":"51475-2"}]},"subject":{"reference":"Patient/414b7c00-f2a6-4479-b6a1-f41cdd855788"},"effectiveDateTime":"2022-10-14T00:00:00+00:00","valueRatio":{"numerator":{"value":1},"denominator":{"value":64}}},"request":{"method":"POST","url":"Observation"}},{"fullUrl":"Condition/22cb09f1-4085-4917-9680-cec11a015d35","resource":{"resourceType":"Condition","id":"22cb09f1-4085-4917-9680-cec11a015d35","code":{"coding":[{"system":"http://snomed.info/sct","code":"21522001"}]},"subject":{"reference":"Patient/414b7c00-f2a6-4479-b6a1-f41cdd855788"},"onsetDateTime":"2022-11-10T00:00:00+00:00"},"request":{"method":"POST","url":"Condition"}},{"fullUrl":"Condition/7d66bd68-7186-4089-ac88-4ebe3ae0fed8","resource":{"resourceType":"Condition","id":"7d66bd68-7186-4089-ac88-4ebe3ae0fed8","code":{"coding":[{"system":"http://snomed.info/sct","code":"297123002"}]},"subject":{"reference":"Patient/414b7c00-f2a6-4479-b6a1-f41cdd855788"},"onsetDateTime":"2022-12-31T00:00:00+00:00"},"request":{"method":"POST","url":"Condition"}},{"fullUrl":"Condition/cf35ba5a-3456-47af-9749-1789f2292b72","resource":{"resourceType":"Condition","id":"cf35ba5a-3456-47af-9749-1789f2292b72","code":{"coding":[{"system":"http://snomed.info/sct","code":"248980004"}]},"subject":{"reference":"Patient/414b7c00-f2a6-4479-b6a1-f41cdd855788"},"onsetDateTime":"2022-11-28T00:00:00+00:00"},"request":{"method":"POST","url":"Condition"}},{"fullUrl":"Condition/6b81f05c-ef70-44cb-83d8-dd700bfe7fa8","resource":{"resourceType":"Condition","id":"6b81f05c-ef70-44cb-83d8-dd700bfe7fa8","code":{"coding":[{"system":"http://snomed.info/sct","code":"386661006"}]},"subject":{"reference":"Patient/414b7c00-f2a6-4479-b6a1-f41cdd855788"},"onsetDateTime":"2022-04-12T00:00:00+00:00"},"request":{"method":"POST","url":"Condition"}},{"fullUrl":"Observation/40b3a8e5-5e77-405e-82fd-1a7840b7e180","resource":{"resourceType":"Observation","id":"40b3a8e5-5e77-405e-82fd-1a7840b7e180","status":"final","code":{"coding":[{"system":"http://loinc.org","code":"49498-9"}]},"subject":{"reference":"Patient/414b7c00-f2a6-4479-b6a1-f41cdd855788"},"effectiveDateTime":"2022-02-19T00:00:00+00:00","valueQuantity":{"value":7.1}},"request":{"method":"POST","url":"Observation"}},{"fullUrl":"Observation/d58d3bb6-d2b8-4cb7-905e-4c77e455f932","resource":{"resourceType":"Observation","id":"d58d3bb6-d2b8-4cb7-905e-4c77e455f932","status":"final","code":{"coding":[{"system":"http://loinc.org","code":"804-5"}]},"subject":{"reference":"Patient/414b7c00-f2a6-4479-b6a1-f41cdd855788"},"effectiveDateTime":"2022-12-05T00:00:00+00:00","valueQuantity":{"value":9.7}},"request":{"method":"POST","url":"Observation"}},{"fullUrl":"Observation/97d865aa-0463-444b-b105-a8631fa4e0bb","resource":{"resourceType":"Observation","id":"97d865aa-0463-444b-b105-a8631fa4e0bb","status":"final","code":{"coding":[{"system":"http://loinc.org","code":"49498-9"}]},"subject":{"reference":"Patient/414b7c00-f2a6-4479-b6a1-f41cdd855788"},"effectiveDateTime":"2022-11-03T00:00:00+00:00"},"request":{"method":"POST","url":"Observation"}},{"fullUrl":"Observation/c49a44cd-de96-42e9-bbf4-a9f1fbb0da9a","resource":{"resourceType":"Observation","id":"c49a44cd-de96-42e9-bbf4-a9f1fbb0da9a","status":"final","code":{"coding":[{"system":"http://loinc.org","code":"49498-9"}]},"subject":{"reference":"Patient/414b7c00-f2a6-4479-b6a1-f41cdd855788"},"effectiveDateTime":"2022-05-19T00:00:00+00:00"},"request":{"method":"POST","url":"Observation"}},{"fullUrl":"Observation/5f207bf5-476f-4cbc-8ba9-47e6b9c2f380","resource":{"resourceType":"Observation","id":"5f207bf5-476f-4cbc-8ba9-47e6b9c2f380","status":"final","code":{"coding":[{"system":"http://loinc.org","code":"49498-9"}]},"subject":{"reference":"Patient/414b7c00-f2a6-4479-b6a1-f41cdd855788"},"effectiveDateTime":"2022-02-14T00:00:00+00:00"},"request":{"method":"POST","url":"Observation"}},{"fullUrl":"Procedure/4b6de5f3-09ab-4ad9-b792-2c9c92d45508","resource":{"resourceType":"Procedure","id":"4b6de5f3-09ab-4ad9-b792-2c9c92d45508","status":"completed","code":{"coding":[{"system":"http://snomed.info/sct","code":"146005"}]},"subject":{"reference":"Patient/414b7c00-f2a6-4479-b6a1-f41cdd855788"},"performedDateTime":"2022-06-09T00:00:00+00:00"},"request":{"method":"POST","url":"Procedure"}},{"fullUrl":"Procedure/f0e9edde-1b05-454b-92f9-52f41217cea0","resource":{"resourceType":"Procedure","id":"f0e9edde-1b05-454b-92f9-52f41217cea0","status":"completed","code":{"coding":[{"system":"http://snomed.info/sct","code":"647000"}]},"subject":{"reference":"Patient/414b7c00-f2a6-4479-b6a1-f41cdd855788"},"performedDateTime":"2022-05-06T00:00:00+00:00"},"request":{"method":"POST","url":"Procedure"}},{"fullUrl":"Procedure/14955e74-eca9-4e46-b8d2-1a6bf73553c8","resource":{"resourceType":"Procedure","id":"14955e74-eca9-4e46-b8d2-1a6bf73553c8","status":"completed","code":{"coding":[{"system":"http://snomed.info/sct","code":"104001"}]},"subject":{"reference":"Patient/414b7c00-f2a6-4479-b6a1-f41cdd855788"},"performedDateTime":"2022-08-08T00:00:00+00:00"},"request":{"method":"POST","url":"Procedure"}},{"fullUrl":"MedicationStatement/aa611de3-e518-4a2a-80e8-8c4243e07061","resource":{"resourceType":"MedicationStatement","id":"aa611de3-e518-4a2a-80e8-8c4243e07061","status":"completed","medicationCodeableConcept":{"coding":[{"system":"http://www.nlm.nih.gov/research/umls/rxnorm","code":"8698"}]},"subject":{"reference":"Patient/414b7c00-f2a6-4479-b6a1-f41cdd855788"},"effectiveDateTime":"2022-09-03T00:00:00+00:00","dosage":[{"doseAndRate":[{"doseQuantity":{"value":1,"unit":"TAB","system":"http://terminology.hl7.org/CodeSystem/v3-orderableDrugForm","code":"TAB"}}]}]},"request":{"method":"POST","url":"MedicationStatement"}},{"fullUrl":"MedicationStatement/4ce78a9b-7486-4996-94a7-850e3fc60fad","resource":{"resourceType":"MedicationStatement","id":"4ce78a9b-7486-4996-94a7-850e3fc60fad","status":"completed","medicationCodeableConcept":{"coding":[{"system":"http://www.nlm.nih.gov/research/umls/rxnorm","code":"2193"}]},"subject":{"reference":"Patient/414b7c00-f2a6-4479-b6a1-f41cdd855788"},"effectiveDateTime":"2022-01-30T00:00:00+00:00","dosage":[{"doseAndRate":[{"doseQuantity":{"value":2,"unit":"TAB","system":"http://terminology.hl7.org/CodeSystem/v3-orderableDrugForm","code":"TAB"}}]}]},"request":{"method":"POST","url":"MedicationStatement"}},{"fullUrl":"MedicationStatement/29d8c544-e46d-4481-8e21-b981640cc19e","resource":{"resourceType":"MedicationStatement","id":"29d8c544-e46d-4481-8e21-b981640cc19e","status":"completed","medicationCodeableConcept":{"coding":[{"system":"http://www.nlm.nih.gov/research/umls/rxnorm","code":"18631"}]},"subject":{"reference":"Patient/414b7c00-f2a6-4479-b6a1-f41cdd855788"},"effectiveDateTime":"2022-10-30T00:00:00+00:00","dosage":[{"doseAndRate":[{"doseQuantity":{"value":2,"unit":"TAB","system":"http://terminology.hl7.org/CodeSystem/v3-orderableDrugForm","code":"TAB"}}]}]},"request":{"method":"POST","url":"MedicationStatement"}},{"fullUrl":"MedicationStatement/63d26d13-6c2c-45f7-8b8e-e537d8178b66","resource":{"resourceType":"MedicationStatement","id":"63d26d13-6c2c-45f7-8b8e-e537d8178b66","status":"completed","medicationCodeableConcept":{"coding":[{"system":"http://www.nlm.nih.gov/research/umls/rxnorm","code":"7984"}]},"subject":{"reference":"Patient/414b7c00-f2a6-4479-b6a1-f41cdd855788"},"effectiveDateTime":"2022-12-04T00:00:00+00:00","dosage":[{"doseAndRate":[{"doseQuantity":{"value":1,"unit":"TAB","system":"http://terminology.hl7.org/CodeSystem/v3-orderableDrugForm","code":"TAB"}}]}]},"request":{"method":"POST","url":"MedicationStatement"}},{"fullUrl":"MedicationStatement/cb86f016-13c9-4818-bbc6-1bf779b29ce9","resource":{"resourceType":"MedicationStatement","id":"cb86f016-13c9-4818-bbc6-1bf779b29ce9","status":"completed","medicationCodeableConcept":{"coding":[{"system":"http://www.nlm.nih.gov/research/umls/rxnorm","code":"2193"}]},"subject":{"reference":"Patient/414b7c00-f2a6-4479-b6a1-f41cdd855788"},"effectiveDateTime":"2022-07-01T00:00:00+00:00","dosage":[{"doseAndRate":[{"doseQuantity":{"value":2,"unit":"TAB","system":"http://terminology.hl7.org/CodeSystem/v3-orderableDrugForm","code":"TAB"}}]}]},"request":{"method":"POST","url":"MedicationStatement"}},{"fullUrl":"MedicationStatement/cd8998c9-6858-4911-8598-bce92de76070","resource":{"resourceType":"MedicationStatement","id":"cd8998c9-6858-4911-8598-bce92de76070","status":"completed","medicationCodeableConcept":{"coding":[{"system":"http://www.nlm.nih.gov/research/umls/rxnorm","code":"7980"}]},"subject":{"reference":"Patient/414b7c00-f2a6-4479-b6a1-f41cdd855788"},"effectiveDateTime":"2022-01-29T00:00:00+00:00","dosage":[{"doseAndRate":[{"doseQuantity":{"value":1,"unit":"TAB","system":"http://terminology.hl7.org/CodeSystem/v3-orderableDrugForm","code":"TAB"}}]}]},"request":{"method":"POST","url":"MedicationStatement"}},{"fullUrl":"MedicationStatement/343f7643-76f1-4b1d-aa12-a82f0621f1f9","resource":{"resourceType":"MedicationStatement","id":"343f7643-76f1-4b1d-aa12-a82f0621f1f9","status":"completed","medicationCodeableConcept":{"coding":[{"system":"http://www.nlm.nih.gov/research/umls/rxnorm","code":"7980"}]},"subject":{"reference":"Patient/414b7c00-f2a6-4479-b6a1-f41cdd855788"},"effectiveDateTime":"2022-09-24T00:00:00+00:00","dosage":[{"doseAndRate":[{"doseQuantity":{"value":1,"unit":"TAB","system":"http://terminology.hl7.org/CodeSystem/v3-orderableDrugForm","code":"TAB"}}]}]},"request":{"method":"POST","url":"MedicationStatement"}},{"fullUrl":"MedicationStatement/fe5c2c92-9f2d-456c-b6af-05920e0d075e","resource":{"resourceType":"MedicationStatement","id":"fe5c2c92-9f2d-456c-b6af-05920e0d075e","status":"completed","medicationCodeableConcept":{"coding":[{"system":"http://www.nlm.nih.gov/research/umls/rxnorm","code":"18631"}]},"subject":{"reference":"Patient/414b7c00-f2a6-4479-b6a1-f41cdd855788"},"effectiveDateTime":"2022-12-10T00:00:00+00:00","dosage":[{"doseAndRate":[{"doseQuantity":{"value":5.2,"unit":"TAB","system":"http://terminology.hl7.org/CodeSystem/v3-orderableDrugForm","code":"TAB"}}]}]},"request":{"method":"POST","url":"MedicationStatement"}},{"fullUrl":"MedicationStatement/cf2f0faf-ff03-4637-8daf-3165626be0bb","resource":{"resourceType":"MedicationStatement","id":"cf2f0faf-ff03-4637-8daf-3165626be0bb","status":"completed","medicationCodeableConcept":{"coding":[{"system":"http://www.nlm.nih.gov/research/umls/rxnorm","code":"2193"}]},"subject":{"reference":"Patient/414b7c00-f2a6-4479-b6a1-f41cdd855788"},"effectiveDateTime":"2022-09-16T00:00:00+00:00","dosage":[{"doseAndRate":[{"doseQuantity":{"value":4.8,"unit":"TAB","system":"http://terminology.hl7.org/CodeSystem/v3-orderableDrugForm","code":"TAB"}}]}]},"request":{"method":"POST","url":"MedicationStatement"}},{"fullUrl":"MedicationStatement/740842ed-ac2a-4e34-8087-cf592f5ff944","resource":{"resourceType":"MedicationStatement","id":"740842ed-ac2a-4e34-8087-cf592f5ff944","status":"completed","medicationCodeableConcept":{"coding":[{"system":"http://www.nlm.nih.gov/research/umls/rxnorm","code":"18631"}]},"subject":{"reference":"Patient/414b7c00-f2a6-4479-b6a1-f41cdd855788"},"effectiveDateTime":"2022-08-24T00:00:00+00:00","dosage":[{"doseAndRate":[{"doseQuantity":{"value":3.4,"unit":"TAB","system":"http://terminology.hl7.org/CodeSystem/v3-orderableDrugForm","code":"TAB"}}]}]},"request":{"method":"POST","url":"MedicationStatement"}},{"fullUrl":"MedicationStatement/4e8396ab-dc57-4ece-8258-b36a013f56fd","resource":{"resourceType":"MedicationStatement","id":"4e8396ab-dc57-4ece-8258-b36a013f56fd","status":"completed","medicationCodeableConcept":{"coding":[{"system":"http://www.nlm.nih.gov/research/umls/rxnorm","code":"3640"}]},"subject":{"reference":"Patient/414b7c00-f2a6-4479-b6a1-f41cdd855788"},"effectiveDateTime":"2022-09-11T00:00:00+00:00","dosage":[{"doseAndRate":[{"doseQuantity":{"value":4.5,"unit":"TAB","system":"http://terminology.hl7.org/CodeSystem/v3-orderableDrugForm","code":"TAB"}}]}]},"request":{"method":"POST","url":"MedicationStatement"}},{"fullUrl":"MedicationStatement/57d9c6f7-ebd6-4ff2-bdbf-9b24e568342a","resource":{"resourceType":"MedicationStatement","id":"57d9c6f7-ebd6-4ff2-bdbf-9b24e568342a","status":"completed","medicationCodeableConcept":{"coding":[{"system":"http://www.nlm.nih.gov/research/umls/rxnorm","code":"7980"}]},"subject":{"reference":"Patient/414b7c00-f2a6-4479-b6a1-f41cdd855788"},"effectiveDateTime":"2022-12-19T00:00:00+00:00","dosage":[{"doseAndRate":[{"doseQuantity":{"value":6.9,"unit":"TAB","system":"http://terminology.hl7.org/CodeSystem/v3-orderableDrugForm","code":"TAB"}}]}]},"request":{"method":"POST","url":"MedicationStatement"}},{"fullUrl":"Encounter/5ccd16cc-4326-4f2d-a879-799c82f56df6","resource":{"resourceType":"Encounter","id":"5ccd16cc-4326-4f2d-a879-799c82f56df6","status":"finished","class":{"system":"http://terminology.hl7.org/CodeSystem/v3-ActCode","code":"IMP","display":"inpatient encounter"},"type":[{"coding":[{"system":"http://terminology.hl7.org/CodeSystem/encounter-type","code":"BD/BM-clin"}]}],"subject":{"reference":"Patient/414b7c00-f2a6-4479-b6a1-f41cdd855788"},"period":{"start":"2022-09-07T00:00:00+00:00","end":"2022-09-15T00:00:00+00:00"}},"request":{"method":"POST","url":"Encounter"}},{"fullUrl":"Encounter/3639ed26-e2ee-450a-b813-9ff741280d4f","resource":{"resourceType":"Encounter","id":"3639ed26-e2ee-450a-b813-9ff741280d4f","status":"finished","class":{"system":"http://terminology.hl7.org/CodeSystem/v3-ActCode","code":"IMP","display":"inpatient encounter"},"type":[{"coding":[{"system":"http://terminology.hl7.org/CodeSystem/encounter-type","code":"ADMS"}]}],"subject":{"reference":"Patient/414b7c00-f2a6-4479-b6a1-f41cdd855788"},"period":{"start":"2022-04-21T00:00:00+00:00","end":"2022-04-21T00:00:00+00:00"}},"request":{"method":"POST","url":"Encounter"}},{"fullUrl":"Encounter/acd5255d-6503-41d4-8b61-0fff693e3fd2","resource":{"resourceType":"Encounter","id":"acd5255d-6503-41d4-8b61-0fff693e3fd2","status":"finished","class":{"system":"http://terminology.hl7.org/CodeSystem/v3-ActCode","code":"IMP","display":"inpatient encounter"},"type":[{"coding":[{"system":"http://terminology.hl7.org/CodeSystem/encounter-type","code":"BD/BM-clin"}]}],"subject":{"reference":"Patient/414b7c00-f2a6-4479-b6a1-f41cdd855788"},"period":{"start":"2022-03-08T00:00:00+00:00","end":"2022-03-15T00:00:00+00:00"}},"request":{"method":"POST","url":"Encounter"}},{"fullUrl":"Encounter/e61afdb6-89f3-48b4-a50f-5a3899ec08cb","resource":{"resourceType":"Encounter","id":"e61afdb6-89f3-48b4-a50f-5a3899ec08cb","status":"finished","class":{"system":"http://terminology.hl7.org/CodeSystem/v3-ActCode","code":"NONAC","display":"inpatient non-acute"},"type":[{"coding":[{"system":"http://terminology.hl7.org/CodeSystem/encounter-type","code":"BD/BM-clin"}]}],"subject":{"reference":"Patient/414b7c00-f2a6-4479-b6a1-f41cdd855788"},"period":{"start":"2022-02-10T00:00:00+00:00","end":"2022-02-19T00:00:00+00:00"}},"request":{"method":"POST","url":"Encounter"}},{"fullUrl":"Encounter/f550bd65-4ce1-425d-a9cb-6d5912e88e37","resource":{"resourceType":"Encounter","id":"f550bd65-4ce1-425d-a9cb-6d5912e88e37","status":"finished","class":{"system":"http://terminology.hl7.org/CodeSystem/v3-ActCode","code":"NONAC","display":"inpatient non-acute"},"type":[{"coding":[{"system":"http://terminology.hl7.org/CodeSystem/encounter-type","code":"OKI"}]}],"subject":{"reference":"Patient/414b7c00-f2a6-4479-b6a1-f41cdd855788"},"period":{"start":"2022-07-05T00:00:00+00:00","end":"2022-07-13T00:00:00+00:00"}},"request":{"method":"POST","url":"Encounter"}}]}