{"resourceType":"Bundle","id":"e165ef12-cb55-4359-8462-996d6254b4a9","type":"transaction","entry":[{"fullUrl":"Patient/68ad87fa-8d62-4098-af7b-96f556ef396a","resource":{"resourceType":"Patient","id":"68ad87fa-8d62-4098-af7b-96f556ef396a","meta":{"profile":["http://hl7.org/fhir/us/core/StructureDefinition/us-core-patient"]},"extension":[{"extension":[{"url":"ombCategory","valueCoding":{"system":"http://terminology.hl7.org/CodeSystem/v3-NullFlavor","code":"ASKU","display":"asked but unknown"}},{"url":"text","valueString":"asked but unknown"}],"url":"http://hl7.org/fhir/us/core/StructureDefinition/us-core-race"},{"extension":[{"url":"ombCategory","valueCoding":{"system":"urn:oid:2.16.840.1.113883.6.238","code":"2135-2","display":"Hispanic or Latino"}},{"url":"text","valueString":"Hispanic or Latino"}],"url":"http://hl7.org/fhir/us/core/StructureDefinition/us-core-ethnicity"}],"identifier":[{"type":{"coding":[{"system":"http://terminology.hl7.org/CodeSystem/v2-0203","code":"MR"}]},"system":"urn:fhirgen:mrn","value":"190-62-3122"}],"name":[{"use":"official","family":"Grimes","given":["Maurice"]},{"use":"maiden","family":"Hines"}],"telecom":[{"system":"phone","value":"+1-031-875-0969x7405","use":"work"},{"system":"email","value":"palmerryan@hotmail.com","use":"mobile"}],"gender":"male","birthDate":"1948-09-07","address":[{"use":"home","line":["46062 Mason Dam"],"city":"Angelachester","state":"DC","postalCode":"43184"},{"use":"old","line":["415 Spencer Drive"],"city":"Lake Katiechester","state":"NC","postalCode":"54087"}]},"request":{"method":"POST","url":"Patient"}},{"fullUrl":"Observation/49cc1683-4e5a-4f3e-879d-67683a198869","resource":{"resourceType":"Observation","id":"49cc1683-4e5a-4f3e-879d-67683a198869","meta":{"profile":["http://hl7.org/fhir/us/core/StructureDefinition/us-core-observation-lab"]},"status":"final","category":[{"coding":[{"system":"http://terminology.hl7.org/CodeSystem/observation-category","code":"laboratory","display":"Laboratory"}]}],"code":{"coding":[{"system":"http://loinc.org","code":"71793-4"}]},"subject":{"reference":"Patient/68ad87fa-8d62-4098-af7b-96f556ef396a"},"effectiveDateTime":"2022-07-12T00:00:00+00:00","valueRatio":{"numerator":{"value":1},"denominator":{"value":64}}},"request":{"method":"POST","url":"Observation"}},{"fullUrl":"Observation/44c0aa9a-6d46-4d92-9b61-fbc171e52b57","resource":{"resourceType":"Observation","id":"44c0aa9a-6d46-4d92-9b61-fbc171e52b57","meta":{"profile":["http://hl7.org/fhir/us/core/StructureDefinition/us-core-observation-lab"]},"status":"final","category":[{"coding":[{"system":"http://terminology.hl7.org/CodeSystem/observation-category","code":"laboratory","display":"Laboratory"}]}],"code":{"coding":[{"system":"http://loinc.org","code":"47235-7"}]},"subject":{"reference":"Patient/68ad87fa-8d62-4098-af7b-96f556ef396a"},"effectiveDateTime":"2022-12-04T00:00:00+00:00","valueRatio":{"numerator":{"value":1},"denominator":{"value":32}}},"request":{"method":"POST","url":"Observation"}},{"fullUrl":"Observation/cb4a82de-ddec-48ec-9894-b31caf1debdd","resource":{"resourceType":"Observation","id":"cb4a82de-ddec-48ec-9894-b31caf1debdd","meta":{"profile":["http://hl7.org/fhir/us/core/StructureDefinition/us-core-observation-lab"]},"status":"final","category":[{"coding":[{"system":"http://terminology.hl7.org/CodeSystem/observation-category","code":"laboratory","display":"Laboratory"}]}],"code":{"coding":[{"system":"http://loinc.org","code":"51475-2"}]},"subject":{"reference":"Patient/68ad87fa-8d62-4098-af7b-96f556ef396a"},"effectiveDateTime":"2022-12-26T00:00:00+00:00","valueRatio":{"numerator":{"value":1},"denominator":{"value":64}}},"request":{"method":"POST","url":"Observation"}},{"fullUrl":"Condition/335c2e9b-8b8f-47f8-bde3-6edb0920ec42","resource":{"resourceType":"Condition","id":"335c2e9b-8b8f-47f8-bde3-6edb0920ec42","meta":{"profile":["http://hl7.org/fhir/us/core/StructureDefinition/us-core-condition"]},"clinicalStatus":{"coding":[{"system":"http://terminology.hl7.org/CodeSystem/condition-clinical","code":"active","display":"Active"}]},"category":[{"coding":[{"system":"http://terminology.hl7.org/CodeSystem/condition-category","code":"problem-list-item"}]}],"code":{"coding":[{"system":"http://snomed.info/sct","code":"736686006"}]},"subject":{"reference":"Patient/68ad87fa-8d62-4098-af7b-96f556ef396a"},"onsetDateTime":"2022-03-07T00:00:00+00:00"},"request":{"method":"POST","url":"Condition"}},{"fullUrl":"Condition/fd622da7-0bbb-4b9a-a6dd-959516458aa1","resource":{"resourceType":"Condition","id":"fd622da7-0bbb-4b9a-a6dd-959516458aa1","meta":{"profile":["http://hl7.org/fhir/us/core/StructureDefinition/us-core-condition"]},"clinicalStatus":{"coding":[{"system":"http://terminology.hl7.org/CodeSystem/condition-clinical","code":"active","display":"Active"}]},"category":[{"coding":[{"system":"http://terminology.hl7.org/CodeSystem/condition-category","code":"problem-list-item"}]}],"code":{"coding":[{"system":"http://snomed.info/sct","code":"91554004"}]},"subject":{"reference":"Patient/68ad87fa-8d62-4098-af7b-96f556ef396a"},"onsetDateTime":"2022-06-24T00:00:00+00:00"},"request":{"method":"POST","url":"Condition"}},{"fullUrl":"Condition/77beb8dd-4d92-49b0-9b7a-918a1ce6aeb3","resource":{"resourceType":"Condition","id":"77beb8dd-4d92-49b0-9b7a-918a1ce6aeb3","meta":{"profile":["http://hl7.org/fhir/us/core/StructureDefinition/us-core-condition"]},"clinicalStatus":{"coding":[{"system":"http://terminology.hl7.org/CodeSystem/condition-clinical","code":"active","display":"Active"}]},"category":[{"coding":[{"system":"http://terminology.hl7.org/CodeSystem/condition-category","code":"problem-list-item"}]}],"code":{"coding":[{"system":"http://snomed.info/sct","code":"91554004"}]},"subject":{"reference":"Patient/68ad87fa-8d62-4098-af7b-96f556ef396a"},"onsetDateTime":"2022-11-24T00:00:00+00:00"},"request":{"method":"POST","url":"Condition"}},{"fullUrl":"Condition/e8c681f6-bee8-44d7-84a8-be9e779301ea","resource":{"resourceType":"Condition","id":"e8c681f6-bee8-44d7-84a8-be9e779301ea","meta":{"profile":["http://hl7.org/fhir/us/core/StructureDefinition/us-core-condition"]},"clinicalStatus":{"coding":[{"system":"http://terminology.hl7.org/CodeSystem/condition-clinical","code":"active","display":"Active"}]},"category":[{"coding":[{"system":"http://terminology.hl7.org/CodeSystem/condition-category","code":"problem-list-item"}]}],"code":{"coding":[{"system":"http://snomed.info/sct","code":"418290006"}]},"subject":{"reference":"Patient/68ad87fa-8d62-4098-af7b-96f556ef396a"},"onsetDateTime":"2022-10-09T00:00:00+00:00"},"request":{"method":"POST","url":"Condition"}},{"fullUrl":"Condition/6ed6a65d-1d0f-46ee-842e-ce08db2ceac8","resource":{"resourceType":"Condition","id":"6ed6a65d-1d0f-46ee-842e-ce08db2ceac8","meta":{"profile":["http://hl7.org/fhir/us/core/StructureDefinition/us-core-condition"]},"clinicalStatus":{"coding":[{"system":"http://terminology.hl7.org/CodeSystem/condition-clinical","code":"active","display":"Active"}]},"category":[{"coding":[{"system":"http://terminology.hl7.org/CodeSystem/condition-category","code":"problem-list-item"}]}],"code":{"coding":[{"system":"http://snomed.info/sct","code":"709977002"}]},"subject":{"reference":"Patient/68ad87fa-8d62-4098-af7b-96f556ef396a"},"onsetDateTime":"2022-10-03T00:00:00+00:00"},"request":{"method":"POST","url":"Condition"}},{"fullUrl":"Condition/faaba2d5-dead-49df-8119-6716c4253fdd","resource":{"resourceType":"Condition","id":"faaba2d5-dead-49df-8119-6716c4253fdd","meta":{"profile":["http://hl7.org/fhir/us/core/StructureDefinition/us-core-condition"]},"clinicalStatus":{"coding":[{"system":"http://terminology.hl7.org/CodeSystem/condition-clinical","code":"active","display":"Active"}]},"category":[{"coding":[{"system":"http://terminology.hl7.org/CodeSystem/condition-category","code":"problem-list-item"}]}],"code":{"coding":[{"system":"http://snomed.info/sct","code":"91554004"}]},"subject":{"reference":"Patient/68ad87fa-8d62-4098-af7b-96f556ef396a"},"onsetDateTime":"2022-02-06T00:00:00+00:00"},"request":{"method":"POST","url":"Condition"}},{"fullUrl":"Observation/aaca2dfd-ee32-497e-a678-cf8a862ba506","resource":{"resourceType":"Observation","id":"aaca2dfd-ee32-497e-a678-cf8a862ba506","meta":{"profile":["http://hl7.org/fhir/us/core/StructureDefinition/us-core-observation-lab"]},"status":"final","category":[{"coding":[{"system":"http://terminology.hl7.org/CodeSystem/observation-category","code":"laboratory","display":"Laboratory"}]}],"code":{"coding":[{"system":"http://loinc.org","code":"6690-2"}]},"subject":{"reference":"Patient/68ad87fa-8d62-4098-af7b-96f556ef396a"},"effectiveDateTime":"2022-08-28T00:00:00+00:00","valueQuantity":{"value":8.8}},"request":{"method":"POST","url":"Observation"}},{"fullUrl":"Observation/5f4089ab-8afb-4c0d-b713-8cdfecafdaa3","resource":{"resourceType":"Observation","id":"5f4089ab-8afb-4c0d-b713-8cdfecafdaa3","meta":{"profile":["http://hl7.org/fhir/us/core/StructureDefinition/us-core-observation-lab"]},"status":"final","category":[{"coding":[{"system":"http://terminology.hl7.org/CodeSystem/observation-category","code":"laboratory","display":"Laboratory"}]}],"code":{"coding":[{"system":"http://loinc.org","code":"26464-8"}]},"subject":{"reference":"Patient/68ad87fa-8d62-4098-af7b-96f556ef396a"},"effectiveDateTime":"2022-10-04T00:00:00+00:00","valueQuantity":{"value":8.7}},"request":{"method":"POST","url":"Observation"}},{"fullUrl":"Observation/c564a1c4-efe9-45f5-8959-320a135d28dc","resource":{"resourceType":"Observation","id":"c564a1c4-efe9-45f5-8959-320a135d28dc","meta":{"profile":["http://hl7.org/fhir/us/core/StructureDefinition/us-core-bmi"]},"status":"final","category":[{"coding":[{"system":"http://terminology.hl7.org/CodeSystem/observation-category","code":"vital-signs","display":"Vital Signs"}]}],"code":{"coding":[{"system":"http://loinc.org","code":"39156-5"}]},"subject":{"reference":"Patient/68ad87fa-8d62-4098-af7b-96f556ef396a"},"effectiveDateTime":"2022-08-05T00:00:00+00:00","valueQuantity":{"value":21.69,"unit":"kg/m2","system":"http://unitsofmeasure.org","code":"kg/m2"}},"request":{"method":"POST","url":"Observation"}},{"fullUrl":"Observation/a623ffea-7875-45be-828e-c7b626e21bec","resource":{"resourceType":"Observation","id":"a623ffea-7875-45be-828e-c7b626e21bec","meta":{"profile":["http://hl7.org/fhir/us/core/StructureDefinition/us-core-bmi"]},"status":"final","category":[{"coding":[{"system":"http://terminology.hl7.org/CodeSystem/observation-category","code":"vital-signs","display":"Vital Signs"}]}],"code":{"coding":[{"system":"http://loinc.org","code":"39156-5"}]},"subject":{"reference":"Patient/68ad87fa-8d62-4098-af7b-96f556ef396a"},"effectiveDateTime":"2022-03-01T00:00:00+00:00","valueQuantity":{"value":10.3,"unit":"kg/m2","system":"http://unitsofmeasure.org","code":"kg/m2"}},"request":{"method":"POST","url":"Observation"}},{"fullUrl":"Observation/31ee5dc4-9c2e-4f14-85ac-85782affb9b1","resource":{"resourceType":"Observation","id":"31ee5dc4-9c2e-4f14-85ac-85782affb9b1","meta":{"profile":["http://hl7.org/fhir/us/core/StructureDefinition/us-core-head-circumference"]},"status":"final","category":[{"coding":[{"system":"http://terminology.hl7.org/CodeSystem/observation-category","code":"vital-signs","display":"Vital Signs"}]}],"code":{"coding":[{"system":"http://loinc.org","code":"9843-4"}]},"subject":{"reference":"Patient/68ad87fa-8d62-4098-af7b-96f556ef396a"},"effectiveDateTime":"2022-05-17T00:00:00+00:00","valueQuantity":{"value":9.1,"unit":"Inch","system":"http://unitsofmeasure.org","code":"[in_i]"}},"request":{"method":"POST","url":"Observation"}},{"fullUrl":"Observation/26ecb374-261c-459c-a7d8-d4cdae07ae68","resource":{"resourceType":"Observation","id":"26ecb374-261c-459c-a7d8-d4cdae07ae68","meta":{"profile":["http://hl7.org/fhir/us/core/StructureDefinition/us-core-head-circumference"]},"status":"final","category":[{"coding":[{"system":"http://terminology.hl7.org/CodeSystem/observation-category","code":"vital-signs","display":"Vital Signs"}]}],"code":{"coding":[{"system":"http://loinc.org","code":"9843-4"}]},"subject":{"reference":"Patient/68ad87fa-8d62-4098-af7b-96f556ef396a"},"effectiveDateTime":"2022-06-19T00:00:00+00:00","valueQuantity":{"value":6.5,"unit":"Inch","system":"http://unitsofmeasure.org","code":"[in_i]"}},"request":{"method":"POST","url":"Observation"}},{"fullUrl":"Observation/9793a230-a63a-46d0-b989-328a4a760309","resource":{"resourceType":"Observation","id":"9793a230-a63a-46d0-b989-328a4a760309","meta":{"profile":["http://hl7.org/fhir/us/core/StructureDefinition/us-core-body-height"]},"status":"final","category":[{"coding":[{"system":"http://terminology.hl7.org/CodeSystem/observation-category","code":"vital-signs","display":"Vital Signs"}]}],"code":{"coding":[{"system":"http://loinc.org","code":"8302-2"}]},"subject":{"reference":"Patient/68ad87fa-8d62-4098-af7b-96f556ef396a"},"effectiveDateTime":"2022-02-22T00:00:00+00:00","valueQuantity":{"value":69.7,"unit":"Inch","system":"http://unitsofmeasure.org","code":"[in_i]"}},"request":{"method":"POST","url":"Observation"}},{"fullUrl":"Observation/c4a33018-85cf-42c4-973c-bbc5e9b85593","resource":{"resourceType":"Observation","id":"c4a33018-85cf-42c4-973c-bbc5e9b85593","meta":{"profile":["http://hl7.org/fhir/us/core/StructureDefinition/us-core-body-height"]},"status":"final","category":[{"coding":[{"system":"http://terminology.hl7.org/CodeSystem/observation-category","code":"vital-signs","display":"Vital Signs"}]}],"code":{"coding":[{"system":"http://loinc.org","code":"8302-2"}]},"subject":{"reference":"Patient/68ad87fa-8d62-4098-af7b-96f556ef396a"},"effectiveDateTime":"2022-10-24T00:00:00+00:00","valueQuantity":{"value":71.9,"unit":"Inch","system":"http://unitsofmeasure.org","code":"[in_i]"}},"request":{"method":"POST","url":"Observation"}},{"fullUrl":"Observation/02943ee6-ad62-438f-85c1-378c8e666af2","resource":{"resourceType":"Observation","id":"02943ee6-ad62-438f-85c1-378c8e666af2","meta":{"profile":["http://hl7.org/fhir/us/core/StructureDefinition/us-core-body-weight"]},"status":"final","category":[{"coding":[{"system":"http://terminology.hl7.org/CodeSystem/observation-category","code":"vital-signs","display":"Vital Signs"}]}],"code":{"coding":[{"system":"http://loinc.org","code":"29463-7"}]},"subject":{"reference":"Patient/68ad87fa-8d62-4098-af7b-96f556ef396a"},"effectiveDateTime":"2022-09-17T00:00:00+00:00","valueQuantity":{"value":89.89,"unit":"kilogram","system":"http://unitsofmeasure.org","code":"kg"}},"request":{"method":"POST","url":"Observation"}},{"fullUrl":"Observation/0c7be4ea-1d64-4b9c-b8df-0ddcef23b74f","resource":{"resourceType":"Observation","id":"0c7be4ea-1d64-4b9c-b8df-0ddcef23b74f","meta":{"profile":["http://hl7.org/fhir/us/core/StructureDefinition/us-core-body-temperature"]},"status":"final","category":[{"coding":[{"system":"http://terminology.hl7.org/CodeSystem/observation-category","code":"vital-signs","display":"Vital Signs"}]}],"code":{"coding":[{"system":"http://loinc.org","code":"8310-5"}]},"subject":{"reference":"Patient/68ad87fa-8d62-4098-af7b-96f556ef396a"},"effectiveDateTime":"2022-08-12T00:00:00+00:00","valueQuantity":{"value":44.47,"unit":"Degrees Fahrenheit","system":"http://unitsofmeasure.org","code":"[degF]"}},"request":{"method":"POST","url":"Observation"}},{"fullUrl":"Observation/46a4b8b4-d617-40e3-92dc-7d9cd6362c35","resource":{"resourceType":"Observation","id":"46a4b8b4-d617-40e3-92dc-7d9cd6362c35","meta":{"profile":["http://hl7.org/fhir/us/core/StructureDefinition/us-core-body-temperature"]},"status":"final","category":[{"coding":[{"system":"http://terminology.hl7.org/CodeSystem/observation-category","code":"vital-signs","display":"Vital Signs"}]}],"code":{"coding":[{"system":"http://loinc.org","code":"8310-5"}]},"subject":{"reference":"Patient/68ad87fa-8d62-4098-af7b-96f556ef396a"},"effectiveDateTime":"2022-07-17T00:00:00+00:00","valueQuantity":{"value":42.08,"unit":"Degrees Fahrenheit","system":"http://unitsofmeasure.org","code":"[degF]"}},"request":{"method":"POST","url":"Observation"}},{"fullUrl":"Observation/aac65417-da24-4618-8656-1677a421e557","resource":{"resourceType":"Observation","id":"aac65417-da24-4618-8656-1677a421e557","meta":{"profile":["http://hl7.org/fhir/us/core/StructureDefinition/us-core-heart-rate"]},"status":"final","category":[{"coding":[{"system":"http://terminology.hl7.org/CodeSystem/observation-category","code":"vital-signs","display":"Vital Signs"}]}],"code":{"coding":[{"system":"http://loinc.org","code":"8867-4"}]},"subject":{"reference":"Patient/68ad87fa-8d62-4098-af7b-96f556ef396a"},"effectiveDateTime":"2022-07-10T00:00:00+00:00","valueQuantity":{"value":99.7,"unit":"Per Minute","system":"http://unitsofmeasure.org","code":"/min"}},"request":{"method":"POST","url":"Observation"}},{"fullUrl":"Patient/09413841-f834-4222-9367-99da0ebc1b4a","resource":{"resourceType":"Patient","id":"09413841-f834-4222-9367-99da0ebc1b4a","meta":{"profile":["http://hl7.org/fhir/us/core/StructureDefinition/us-core-patient"]},"extension":[{"extension":[{"url":"ombCategory","valueCoding":{"system":"http://terminology.hl7.org/CodeSystem/v3-NullFlavor","code":"ASKU","display":"asked but unknown"}},{"url":"text","valueString":"asked but unknown"}],"url":"http://hl7.org/fhir/us/core/StructureDefinition/us-core-race"},{"extension":[{"url":"ombCategory","valueCoding":{"system":"urn:oid:2.16.840.1.113883.6.238","code":"2135-2","display":"Hispanic or Latino"}},{"url":"text","valueString":"Hispanic or Latino"}],"url":"http://hl7.org/fhir/us/core/StructureDefinition/us-core-ethnicity"}],"identifier":[{"type":{"coding":[{"system":"http://terminology.hl7.org/CodeSystem/v2-0203","code":"MR"}]},"system":"urn:fhirgen:mrn","value":"258-28-1810"}],"name":[{"use":"official","family":"Gutierrez","given":["Scott"]},{"use":"maiden","family":"Lewis"}],"telecom":[{"system":"phone","value":"(381)679-1391x4291","use":"work"},{"system":"email","value":"vanessahopkins@yahoo.com","use":"mobile"}],"gender":"male","birthDate":"1949-03-03","address":[{"use":"home","line":["34187 Shannon Locks Apt. 253"],"city":"Ericport","state":"KY","postalCode":"15102"},{"use":"old","line":["34146 Williams Circle Suite 246"],"city":"West Laurafort","state":"MO","postalCode":"12007"}]},"request":{"method":"POST","url":"Patient"}},{"fullUrl":"Observation/e3671212-866e-4453-ac51-c98fa1dece98","resource":{"resourceType":"Observation","id":"e3671212-866e-4453-ac51-c98fa1dece98","meta":{"profile":["http://hl7.org/fhir/us/core/StructureDefinition/us-core-observation-lab"]},"status":"final","category":[{"coding":[{"system":"http://terminology.hl7.org/CodeSystem/observation-category","code":"laboratory","display":"Laboratory"}]}],"code":{"coding":[{"system":"http://loinc.org","code":"47235-7"}]},"subject":{"reference":"Patient/09413841-f834-4222-9367-99da0ebc1b4a"},"effectiveDateTime":"2022-11-03T00:00:00+00:00","valueRatio":{"numerator":{"value":1},"denominator":{"value":32}}},"request":{"method":"POST","url":"Observation"}},{"fullUrl":"Observation/d4f738a2-a150-4a67-98e1-6438a82350b4","resource":{"resourceType":"Observation","id":"d4f738a2-a150-4a67-98e1-6438a82350b4","meta":{"profile":["http://hl7.org/fhir/us/core/StructureDefinition/us-core-observation-lab"]},"status":"final","category":[{"coding":[{"system":"http://terminology.hl7.org/CodeSystem/observation-category","code":"laboratory","display":"Laboratory"}]}],"code":{"coding":[{"system":"http://loinc.org","code":"47235-7"}]},"subject":{"reference":"Patient/09413841-f834-4222-9367-99da0ebc1b4a"},"effectiveDateTime":"2022-11-21T00:00:00+00:00","valueRatio":{"numerator":{"value":1},"denominator":{"value":32}}},"request":{"method":"POST","url":"Observation"}},{"fullUrl":"Observation/ce089920-8b2b-46dc-b27f-8e851349af96","resource":{"resourceType":"Observation","id":"ce089920-8b2b-46dc-b27f-8e851349af96","meta":{"profile":["http://hl7.org/fhir/us/core/StructureDefinition/us-core-observation-lab"]},"status":"final","category":[{"coding":[{"system":"http://terminology.hl7.org/CodeSystem/observation-category","code":"laboratory","display":"Laboratory"}]}],"code":{"coding":[{"system":"http://loinc.org","code":"5394-2"}]},"subject":{"reference":"Patient/09413841-f834-4222-9367-99da0ebc1b4a"},"effectiveDateTime":"2022-05-25T00:00:00+00:00","valueRatio":{"numerator":{"value":1},"denominator":{"value":32}}},"request":{"method":"POST","url":"Observation"}},{"fullUrl":"Condition/20f5cd7f-d509-433f-9f90-4130742b94d4","resource":{"resourceType":"Condition","id":"20f5cd7f-d509-433f-9f90-4130742b94d4","meta":{"profile":["http://hl7.org/fhir/us/core/StructureDefinition/us-core-condition"]},"clinicalStatus":{"coding":[{"system":"http://terminology.hl7.org/CodeSystem/condition-clinical","code":"active","display":"Active"}]},"category":[{"coding":[{"system":"http://terminology.hl7.org/CodeSystem/condition-category","code":"problem-list-item"}]}],"code":{"coding":[{"system":"http://snomed.info/sct","code":"44882003"}]},"subject":{"reference":"Patient/09413841-f834-4222-9367-99da0ebc1b4a"},"onsetDateTime":"2022-10-14T00:00:00+00:00"},"request":{"method":"POST","url":"Condition"}},{"fullUrl":"Condition/523b44d5-f8ef-4d1f-b90e-9e9ab91821db","resource":{"resourceType":"Condition","id":"523b44d5-f8ef-4d1f-b90e-9e9ab91821db","meta":{"profile":["http://hl7.org/fhir/us/core/StructureDefinition/us-core-condition"]},"clinicalStatus":{"coding":[{"system":"http://terminology.hl7.org/CodeSystem/condition-clinical","code":"active","display":"Active"}]},"category":[{"coding":[{"system":"http://terminology.hl7.org/CodeSystem/condition-category","code":"problem-list-item"}]}],"code":{"coding":[{"system":"http://snomed.info/sct","code":"91554004"}]},"subject":{"reference":"Patient/09413841-f834-4222-9367-99da0ebc1b4a"},"onsetDateTime":"2022-09-28T00:00:00+00:00"},"request":{"method":"POST","url":"Condition"}},{"fullUrl":"Condition/a6ae5123-c571-446e-bfdf-0862588e869d","resource":{"resourceType":"Condition","id":"a6ae5123-c571-446e-bfdf-0862588e869d","meta":{"profile":["http://hl7.org/fhir/us/core/StructureDefinition/us-core-condition"]},"clinicalStatus":{"coding":[{"system":"http://terminology.hl7.org/CodeSystem/condition-clinical","code":"active","display":"Active"}]},"category":[{"coding":[{"system":"http://terminology.hl7.org/CodeSystem/condition-category","code":"problem-list-item"}]}],"code":{"coding":[{"system":"http://snomed.info/sct","code":"418290006"}]},"subject":{"reference":"Patient/09413841-f834-4222-9367-99da0ebc1b4a"},"onsetDateTime":"2022-01-23T00:00:00+00:00"},"request":{"method":"POST","url":"Condition"}},{"fullUrl":"Condition/7b9553ff-beee-45b8-86f6-0c578f4e8c87","resource":{"resourceType":"Condition","id":"7b9553ff-beee-45b8-86f6-0c578f4e8c87","meta":{"profile":["http://hl7.org/fhir/us/core/StructureDefinition/us-core-condition"]},"clinicalStatus":{"coding":[{"system":"http://terminology.hl7.org/CodeSystem/condition-clinical","code":"active","display":"Active"}]},"category":[{"coding":[{"system":"http://terminology.hl7.org/CodeSystem/condition-category","code":"problem-list-item"}]}],"code":{"coding":[{"system":"http://snomed.info/sct","code":"91554004"}]},"subject":{"reference":"Patient/09413841-f834-4222-9367-99da0ebc1b4a"},"onsetDateTime":"2022-09-30T00:00:00+00:00"},"request":{"method":"POST","url":"Condition"}},{"fullUrl":"Condition/9b8b5e90-823d-4bb0-b1ea-edfff99db8e4","resource":{"resourceType":"Condition","id":"9b8b5e90-823d-4bb0-b1ea-edfff99db8e4","meta":{"profile":["http://hl7.org/fhir/us/core/StructureDefinition/us-core-condition"]},"clinicalStatus":{"coding":[{"system":"http://terminology.hl7.org/CodeSystem/condition-clinical","code":"active","display":"Active"}]},"category":[{"coding":[{"system":"http://terminology.hl7.org/CodeSystem/condition-category","code":"problem-list-item"}]}],"code":{"coding":[{"system":"http://snomed.info/sct","code":"709977002"}]},"subject":{"reference":"Patient/09413841-f834-4222-9367-99da0ebc1b4a"},"onsetDateTime":"2022-07-10T00:00:00+00:00"},"request":{"method":"POST","url":"Condition"}},{"fullUrl":"Observation/9aa7d683-f64f-4404-bae7-afe3e3dc5e18","resource":{"resourceType":"Observation","id":"9aa7d683-f64f-4404-bae7-afe3e3dc5e18","meta":{"profile":["http://hl7.org/fhir/us/core/StructureDefinition/us-core-observation-lab"]},"status":"final","category":[{"coding":[{"system":"http://terminology.hl7.org/CodeSystem/observation-category","code":"laboratory","display":"Laboratory"}]}],"code":{"coding":[{"system":"http://loinc.org","code":"804-5"}]},"subject":{"reference":"Patient/09413841-f834-4222-9367-99da0ebc1b4a"},"effectiveDateTime":"2022-12-13T00:00:00+00:00","valueQuantity":{"value":4.4}},"request":{"method":"POST","url":"Observation"}},{"fullUrl":"Observation/3fa73714-1845-4b1b-87da-8dd006d8d0c5","resource":{"resourceType":"Observation","id":"3fa73714-1845-4b1b-87da-8dd006d8d0c5","meta":{"profile":["http://hl7.org/fhir/us/core/StructureDefinition/us-core-observation-lab"]},"status":"final","category":[{"coding":[{"system":"http://terminology.hl7.org/CodeSystem/observation-category","code":"laboratory","display":"Laboratory"}]}],"code":{"coding":[{"system":"http://loinc.org","code":"49498-9"}]},"subject":{"reference":"Patient/09413841-f834-4222-9367-99da0ebc1b4a"},"effectiveDateTime":"2022-07-04T00:00:00+00:00","valueQuantity":{"value":8.9}},"request":{"method":"POST","url":"Observation"}},{"fullUrl":"Observation/d18d969a-572e-4498-a3d5-3e119a2eabc7","resource":{"resourceType":"Observation","id":"d18d969a-572e-4498-a3d5-3e119a2eabc7","meta":{"profile":["http://hl7.org/fhir/us/core/StructureDefinition/us-core-observation-lab"]},"status":"final","category":[{"coding":[{"system":"http://terminology.hl7.org/CodeSystem/observation-category","code":"laboratory","display":"Laboratory"}]}],"code":{"coding":[{"system":"http://loinc.org","code":"26464-8"}]},"subject":{"reference":"Patient/09413841-f834-4222-9367-99da0ebc1b4a"},"effectiveDateTime":"2022-12-27T00:00:00+00:00","valueQuantity":{"value":6.8}},"request":{"method":"POST","url":"Observation"}},{"fullUrl":"Observation/c251d036-687f-4897-8491-2624a13f7cfc","resource":{"resourceType":"Observation","id":"c251d036-687f-4897-8491-2624a13f7cfc","meta":{"profile":["http://hl7.org/fhir/us/core/StructureDefinition/us-core-bmi"]},"status":"final","category":[{"coding":[{"system":"http://terminology.hl7.org/CodeSystem/observation-category","code":"vital-signs","display":"Vital Signs"}]}],"code":{"coding":[{"system":"http://loinc.org","code":"39156-5"}]},"subject":{"reference":"Patient/09413841-f834-4222-9367-99da0ebc1b4a"},"effectiveDateTime":"2022-04-07T00:00:00+00:00","valueQuantity":{"value":22.44,"unit":"kg/m2","system":"http://unitsofmeasure.org","code":"kg/m2"}},"request":{"method":"POST","url":"Observation"}},{"fullUrl":"Observation/5cee84ce-d830-4650-a5d5-cd424afa252d","resource":{"resourceType":"Observation","id":"5cee84ce-d830-4650-a5d5-cd424afa252d","meta":{"profile":["http://hl7.org/fhir/us/core/StructureDefinition/us-core-head-circumference"]},"status":"final","category":[{"coding":[{"system":"http://terminology.hl7.org/CodeSystem/observation-category","code":"vital-signs","display":"Vital Signs"}]}],"code":{"coding":[{"system":"http://loinc.org","code":"9843-4"}]},"subject":{"reference":"Patient/09413841-f834-4222-9367-99da0ebc1b4a"},"effectiveDateTime":"2022-06-11T00:00:00+00:00","valueQuantity":{"value":4.5,"unit":"Inch","system":"http://unitsofmeasure.org","code":"[in_i]"}},"request":{"method":"POST","url":"Observation"}},{"fullUrl":"Observation/5e9a3ae0-b2c3-4e18-aaea-2fdaef52d757","resource":{"resourceType":"Observation","id":"5e9a3ae0-b2c3-4e18-aaea-2fdaef52d757","meta":{"profile":["http://hl7.org/fhir/us/core/StructureDefinition/us-core-head-circumference"]},"status":"final","category":[{"coding":[{"system":"http://terminology.hl7.org/CodeSystem/observation-category","code":"vital-signs","display":"Vital Signs"}]}],"code":{"coding":[{"system":"http://loinc.org","code":"9843-4"}]},"subject":{"reference":"Patient/09413841-f834-4222-9367-99da0ebc1b4a"},"effectiveDateTime":"2022-10-10T00:00:00+00:00","valueQuantity":{"value":8.2,"unit":"Inch","system":"http://unitsofmeasure.org","code":"[in_i]"}},"request":{"method":"POST","url":"Observation"}},{"fullUrl":"Observation/4806156f-5342-4b1d-b5d5-2061de7aebe9","resource":{"resourceType":"Observation","id":"4806156f-5342-4b1d-b5d5-2061de7aebe9","meta":{"profile":["http://hl7.org/fhir/us/core/StructureDefinition/us-core-body-height"]},"status":"final","category":[{"coding":[{"system":"http://terminology.hl7.org/CodeSystem/observation-category","code":"vital-signs","display":"Vital Signs"}]}],"code":{"coding":[{"system":"http://loinc.org","code":"8302-2"}]},"subject":{"reference":"Patient/09413841-f834-4222-9367-99da0ebc1b4a"},"effectiveDateTime":"2022-07-17T00:00:00+00:00","valueQuantity":{"value":76.2,"unit":"Inch","system":"http://unitsofmeasure.org","code":"[in_i]"}},"request":{"method":"POST","url":"Observation"}},{"fullUrl":"Observation/23dd5033-f40e-43a8-b432-2c0c2735d124","resource":{"resourceType":"Observation","id":"23dd5033-f40e-43a8-b432-2c0c2735d124","meta":{"profile":["http://hl7.org/fhir/us/core/StructureDefinition/us-core-body-weight"]},"status":"final","category":[{"coding":[{"system":"http://terminology.hl7.org/CodeSystem/observation-category","code":"vital-signs","display":"Vital Signs"}]}],"code":{"coding":[{"system":"http://loinc.org","code":"29463-7"}]},"subject":{"reference":"Patient/09413841-f834-4222-9367-99da0ebc1b4a"},"effectiveDateTime":"2022-01-19T00:00:00+00:00","valueQuantity":{"value":73.24,"unit":"kilogram","system":"http://unitsofmeasure.org","code":"kg"}},"request":{"method":"POST","url":"Observation"}},{"fullUrl":"Observation/ab500977-8246-4109-af1c-51bbe6723019","resource":{"resourceType":"Observation","id":"ab500977-8246-4109-af1c-51bbe6723019","meta":{"profile":["http://hl7.org/fhir/us/core/StructureDefinition/us-core-body-weight"]},"status":"final","category":[{"coding":[{"system":"http://terminology.hl7.org/CodeSystem/observation-category","code":"vital-signs","display":"Vital Signs"}]}],"code":{"coding":[{"system":"http://loinc.org","code":"29463-7"}]},"subject":{"reference":"Patient/09413841-f834-4222-9367-99da0ebc1b4a"},"effectiveDateTime":"2022-12-29T00:00:00+00:00","valueQuantity":{"value":146.93,"unit":"kilogram","system":"http://unitsofmeasure.org","code":"kg"}},"request":{"method":"POST","url":"Observation"}},{"fullUrl":"Observation/090b76ff-78c5-4f20-8efd-169446f40bfa","resource":{"resourceType":"Observation","id":"090b76ff-78c5-4f20-8efd-169446f40bfa","meta":{"profile":["http://hl7.org/fhir/us/core/StructureDefinition/us-core-body-temperature"]},"status":"final","category":[{"coding":[{"system":"http://terminology.hl7.org/CodeSystem/observation-category","code":"vital-signs","display":"Vital Signs"}]}],"code":{"coding":[{"system":"http://loinc.org","code":"8310-5"}]},"subject":{"reference":"Patient/09413841-f834-4222-9367-99da0ebc1b4a"},"effectiveDateTime":"2022-05-27T00:00:00+00:00","valueQuantity":{"value":100.65,"unit":"Degrees Fahrenheit","system":"http://unitsofmeasure.org","code":"[degF]"}},"request":{"method":"POST","url":"Observation"}},{"fullUrl":"Observation/631a12a9-72a6-4423-a95d-8c6c0189da7d","resource":{"resourceType":"Observation","id":"631a12a9-72a6-4423-a95d-8c6c0189da7d","meta":{"profile":["http://hl7.org/fhir/us/core/StructureDefinition/us-core-heart-rate"]},"status":"final","category":[{"coding":[{"system":"http://terminology.hl7.org/CodeSystem/observation-category","code":"vital-signs","display":"Vital Signs"}]}],"code":{"coding":[{"system":"http://loinc.org","code":"8867-4"}]},"subject":{"reference":"Patient/09413841-f834-4222-9367-99da0ebc1b4a"},"effectiveDateTime":"2022-09-10T00:00:00+00:00","valueQuantity":{"value":98.1,"unit":"Per Minute","system":"http://unitsofmeasure.org","code":"/min"}},"request":{"method":"POST","url":"Observation"}},{"fullUrl":"Patient/95ccc4ec-3197-44d5-a897-29c841dd54a9","resource":{"resourceType":"Patient","id":"95ccc4ec-3197-44d5-a897-29c841dd54a9","meta":{"profile":["http://hl7.org/fhir/us/core/StructureDefinition/us-core-patient"]},"extension":[{"extension":[{"url":"ombCategory","valueCoding":{"system":"urn:oid:2.16.840.1.113883.6.238","code":"2076-8","display":"Native Hawaiian or Other Pacific Islander"}},{"url":"text","valueString":"Native Hawaiian or Other Pacific Islander"}],"url":"http://hl7.org/fhir/us/core/StructureDefinition/us-core-race"},{"extension":[{"url":"ombCategory","valueCoding":{"system":"urn:oid:2.16.840.1.113883.6.238","code":"2186-5","display":"Non Hispanic or Latino"}},{"url":"text","valueString":"Non Hispanic or Latino"}],"url":"http://hl7.org/fhir/us/core/StructureDefinition/us-core-ethnicity"}],"identifier":[{"type":{"coding":[{"system":"http://terminology.hl7.org/CodeSystem/v2-0203","code":"MR"}]},"system":"urn:fhirgen:mrn","value":"075-97-3671"}],"name":[{"use":"official","family":"Carr","given":["Kelly"]},{"use":"maiden","family":"Gonzalez"}],"telecom":[{"system":"phone","value":"(982)951-2064x66069","use":"work"},{"system":"email","value":"owagner@yahoo.com","use":"mobile"}],"gender":"female","birthDate":"1967-04-18","address":[{"use":"home","line":["2003 Jamie Inlet"],"city":"Huangchester","state":"IL","postalCode":"66678"},{"use":"old","line":["838 Heather Plain Suite 902"],"city":"Port William","state":"TN","postalCode":"12127"}]},"request":{"method":"POST","url":"Patient"}},{"fullUrl":"Observation/cdb31343-1f68-4ef9-ae29-9b30e855f17d","resource":{"resourceType":"Observation","id":"cdb31343-1f68-4ef9-ae29-9b30e855f17d","meta":{"profile":["http://hl7.org/fhir/us/core/StructureDefinition/us-core-observation-lab"]},"status":"final","category":[{"coding":[{"system":"http://terminology.hl7.org/CodeSystem/observation-category","code":"laboratory","display":"Laboratory"}]}],"code":{"coding":[{"system":"http://loinc.org","code":"22590-4"}]},"subject":{"reference":"Patient/95ccc4ec-3197-44d5-a897-29c841dd54a9"},"effectiveDateTime":"2022-05-28T00:00:00+00:00","valueRatio":{"numerator":{"value":1},"denominator":{"value":32}}},"request":{"method":"POST","url":"Observation"}},{"fullUrl":"Observation/4c404405-b8d5-4e06-8492-8d4af54c5ba4","resource":{"resourceType":"Observation","id":"4c404405-b8d5-4e06-8492-8d4af54c5ba4","meta":{"profile":["http://hl7.org/fhir/us/core/StructureDefinition/us-core-observation-lab"]},"status":"final","category":[{"coding":[{"system":"http://terminology.hl7.org/CodeSystem/observation-category","code":"laboratory","display":"Laboratory"}]}],"code":{"coding":[{"system":"http://loinc.org","code":"47476-7"}]},"subject":{"reference":"Patient/95ccc4ec-3197-44d5-a897-29c841dd54a9"},"effectiveDateTime":"2022-05-09T00:00:00+00:00","valueRatio":{"numerator":{"value":1},"denominator":{"value":64}}},"request":{"method":"POST","url":"Observation"}},{"fullUrl":"Observation/70a5aa9f-1259-4c2c-9a1e-5c1ce56a9010","resource":{"resourceType":"Observation","id":"70a5aa9f-1259-4c2c-9a1e-5c1ce56a9010","meta":{"profile":["http://hl7.org/fhir/us/core/StructureDefinition/us-core-observation-lab"]},"status":"final","category":[{"coding":[{"system":"http://terminology.hl7.org/CodeSystem/observation-category","code":"laboratory","display":"Laboratory"}]}],"code":{"coding":[{"system":"http://loinc.org","code":"50695-6"}]},"subject":{"reference":"Patient/95ccc4ec-3197-44d5-a897-29c841dd54a9"},"effectiveDateTime":"2022-09-30T00:00:00+00:00","valueRatio":{"numerator":{"value":1},"denominator":{"value":4}}},"request":{"method":"POST","url":"Observation"}},{"fullUrl":"Condition/92c06c9c-a336-4e16-869f-95f798bdac10","resource":{"resourceType":"Condition","id":"92c06c9c-a336-4e16-869f-95f798bdac10","meta":{"profile":["http://hl7.org/fhir/us/core/StructureDefinition/us-core-condition"]},"clinicalStatus":{"coding":[{"system":"http://terminology.hl7.org/CodeSystem/condition-clinical","code":"active","display":"Active"}]},"category":[{"coding":[{"system":"http://terminology.hl7.org/CodeSystem/condition-category","code":"problem-list-item"}]}],"code":{"coding":[{"system":"http://snomed.info/sct","code":"709977002"}]},"subject":{"reference":"Patient/95ccc4ec-3197-44d5-a897-29c841dd54a9"},"onsetDateTime":"2022-12-03T00:00:00+00:00"},"request":{"method":"POST","url":"Condition"}},{"fullUrl":"Condition/a91933f3-e52e-4c83-9e2a-9f97e7aa12f3","resource":{"resourceType":"Condition","id":"a91933f3-e52e-4c83-9e2a-9f97e7aa12f3","meta":{"profile":["http://hl7.org/fhir/us/core/StructureDefinition/us-core-condition"]},"clinicalStatus":{"coding":[{"system":"http://terminology.hl7.org/CodeSystem/condition-clinical","code":"active","display":"Active"}]},"category":[{"coding":[{"system":"http://terminology.hl7.org/CodeSystem/condition-category","code":"problem-list-item"}]}],"code":{"coding":[{"system":"http://snomed.info/sct","code":"91554004"}]},"subject":{"reference":"Patient/95ccc4ec-3197-44d5-a897-29c841dd54a9"},"onsetDateTime":"2022-07-11T00:00:00+00:00"},"request":{"method":"POST","url":"Condition"}},{"fullUrl":"Condition/7c9593c4-b081-42e4-97ae-c200d5600d96","resource":{"resourceType":"Condition","id":"7c9593c4-b081-42e4-97ae-c200d5600d96","meta":{"profile":["http://hl7.org/fhir/us/core/StructureDefinition/us-core-condition"]},"clinicalStatus":{"coding":[{"system":"http://terminology.hl7.org/CodeSystem/condition-clinical","code":"active","display":"Active"}]},"category":[{"coding":[{"system":"http://terminology.hl7.org/CodeSystem/condition-category","code":"problem-list-item"}]}],"code":{"coding":[{"system":"http://snomed.info/sct","code":"44882003"}]},"subject":{"reference":"Patient/95ccc4ec-3197-44d5-a897-29c841dd54a9"},"onsetDateTime":"2022-11-09T00:00:00+00:00"},"request":{"method":"POST","url":"Condition"}},{"fullUrl":"Condition/149a7d07-93ee-4395-a691-15de10f97025","resource":{"resourceType":"Condition","id":"149a7d07-93ee-4395-a691-15de10f97025","meta":{"profile":["http://hl7.org/fhir/us/core/StructureDefinition/us-core-condition"]},"clinicalStatus":{"coding":[{"system":"http://terminology.hl7.org/CodeSystem/condition-clinical","code":"active","display":"Active"}]},"category":[{"coding":[{"system":"http://terminology.hl7.org/CodeSystem/condition-category","code":"problem-list-item"}]}],"code":{"coding":[{"system":"http://snomed.info/sct","code":"709977002"}]},"subject":{"reference":"Patient/95ccc4ec-3197-44d5-a897-29c841dd54a9"},"onsetDateTime":"2022-03-24T00:00:00+00:00"},"request":{"method":"POST","url":"Condition"}},{"fullUrl":"Condition/7578ffef-f063-4435-b216-4fe7333a4711","resource":{"resourceType":"Condition","id":"7578ffef-f063-4435-b216-4fe7333a4711","meta":{"profile":["http://hl7.org/fhir/us/core/StructureDefinition/us-core-condition"]},"clinicalStatus":{"coding":[{"system":"http://terminology.hl7.org/CodeSystem/condition-clinical","code":"active","display":"Active"}]},"category":[{"coding":[{"system":"http://terminology.hl7.org/CodeSystem/condition-category","code":"problem-list-item"}]}],"code":{"coding":[{"system":"http://snomed.info/sct","code":"709977002"}]},"subject":{"reference":"Patient/95ccc4ec-3197-44d5-a897-29c841dd54a9"},"onsetDateTime":"2022-09-14T00:00:00+00:00"},"request":{"method":"POST","url":"Condition"}},{"fullUrl":"Observation/0ae48f02-b720-495d-bfe1-06e10f74e1e6","resource":{"resourceType":"Observation","id":"0ae48f02-b720-495d-bfe1-06e10f74e1e6","meta":{"profile":["http://hl7.org/fhir/us/core/StructureDefinition/us-core-observation-lab"]},"status":"final","category":[{"coding":[{"system":"http://terminology.hl7.org/CodeSystem/observation-category","code":"laboratory","display":"Laboratory"}]}],"code":{"coding":[{"system":"http://loinc.org","code":"26464-8"}]},"subject":{"reference":"Patient/95ccc4ec-3197-44d5-a897-29c841dd54a9"},"effectiveDateTime":"2022-12-25T00:00:00+00:00","valueQuantity":{"value":4.1}},"request":{"method":"POST","url":"Observation"}},{"fullUrl":"Observation/5c84717f-a930-46e5-9098-67a288b032b7","resource":{"resourceType":"Observation","id":"5c84717f-a930-46e5-9098-67a288b032b7","meta":{"profile":["http://hl7.org/fhir/us/core/StructureDefinition/us-core-observation-lab"]},"status":"final","category":[{"coding":[{"system":"http://terminology.hl7.org/CodeSystem/observation-category","code":"laboratory","display":"Laboratory"}]}],"code":{"coding":[{"system":"http://loinc.org","code":"6690-2"}]},"subject":{"reference":"Patient/95ccc4ec-3197-44d5-a897-29c841dd54a9"},"effectiveDateTime":"2022-11-26T00:00:00+00:00","valueQuantity":{"value":6.9}},"request":{"method":"POST","url":"Observation"}},{"fullUrl":"Observation/9c734a3b-675f-4691-a190-493de2cd4c2d","resource":{"resourceType":"Observation","id":"9c734a3b-675f-4691-a190-493de2cd4c2d","meta":{"profile":["http://hl7.org/fhir/us/core/StructureDefinition/us-core-bmi"]},"status":"final","category":[{"coding":[{"system":"http://terminology.hl7.org/CodeSystem/observation-category","code":"vital-signs","display":"Vital Signs"}]}],"code":{"coding":[{"system":"http://loinc.org","code":"39156-5"}]},"subject":{"reference":"Patient/95ccc4ec-3197-44d5-a897-29c841dd54a9"},"effectiveDateTime":"2022-12-27T00:00:00+00:00","valueQuantity":{"value":11.67,"unit":"kg/m2","system":"http://unitsofmeasure.org","code":"kg/m2"}},"request":{"method":"POST","url":"Observation"}},{"fullUrl":"Observation/38b12fec-5fd0-42ec-8aca-a13a1febcefe","resource":{"resourceType":"Observation","id":"38b12fec-5fd0-42ec-8aca-a13a1febcefe","meta":{"profile":["http://hl7.org/fhir/us/core/StructureDefinition/us-core-bmi"]},"status":"final","category":[{"coding":[{"system":"http://terminology.hl7.org/CodeSystem/observation-category","code":"vital-signs","display":"Vital Signs"}]}],"code":{"coding":[{"system":"http://loinc.org","code":"39156-5"}]},"subject":{"reference":"Patient/95ccc4ec-3197-44d5-a897-29c841dd54a9"},"effectiveDateTime":"2022-10-03T00:00:00+00:00","valueQuantity":{"value":13.16,"unit":"kg/m2","system":"http://unitsofmeasure.org","code":"kg/m2"}},"request":{"method":"POST","url":"Observation"}},{"fullUrl":"Observation/b1781314-4582-4833-a363-7afcb1928302","resource":{"resourceType":"Observation","id":"b1781314-4582-4833-a363-7afcb1928302","meta":{"profile":["http://hl7.org/fhir/us/core/StructureDefinition/us-core-head-circumference"]},"status":"final","category":[{"coding":[{"system":"http://terminology.hl7.org/CodeSystem/observation-category","code":"vital-signs","display":"Vital Signs"}]}],"code":{"coding":[{"system":"http://loinc.org","code":"9843-4"}]},"subject":{"reference":"Patient/95ccc4ec-3197-44d5-a897-29c841dd54a9"},"effectiveDateTime":"2022-12-31T00:00:00+00:00","valueQuantity":{"value":5.4,"unit":"Inch","system":"http://unitsofmeasure.org","code":"[in_i]"}},"request":{"method":"POST","url":"Observation"}},{"fullUrl":"Observation/e9a05a60-f05f-4533-9829-7e6686f8fae6","resource":{"resourceType":"Observation","id":"e9a05a60-f05f-4533-9829-7e6686f8fae6","meta":{"profile":["http://hl7.org/fhir/us/core/StructureDefinition/us-core-body-height"]},"status":"final","category":[{"coding":[{"system":"http://terminology.hl7.org/CodeSystem/observation-category","code":"vital-signs","display":"Vital Signs"}]}],"code":{"coding":[{"system":"http://loinc.org","code":"8302-2"}]},"subject":{"reference":"Patient/95ccc4ec-3197-44d5-a897-29c841dd54a9"},"effectiveDateTime":"2022-12-05T00:00:00+00:00","valueQuantity":{"value":83.5,"unit":"Inch","system":"http://unitsofmeasure.org","code":"[in_i]"}},"request":{"method":"POST","url":"Observation"}},{"fullUrl":"Observation/b68b3289-043f-4a59-8715-400eda625ac4","resource":{"resourceType":"Observation","id":"b68b3289-043f-4a59-8715-400eda625ac4","meta":{"profile":["http://hl7.org/fhir/us/core/StructureDefinition/us-core-body-height"]},"status":"final","category":[{"coding":[{"system":"http://terminology.hl7.org/CodeSystem/observation-category","code":"vital-signs","display":"Vital Signs"}]}],"code":{"coding":[{"system":"http://loinc.org","code":"8302-2"}]},"subject":{"reference":"Patient/95ccc4ec-3197-44d5-a897-29c841dd54a9"},"effectiveDateTime":"2022-01-23T00:00:00+00:00","valueQuantity":{"value":78.7,"unit":"Inch","system":"http://unitsofmeasure.org","code":"[in_i]"}},"request":{"method":"POST","url":"Observation"}},{"fullUrl":"Observation/96f740bd-23a7-4f58-82ec-9c77bcdeb26f","resource":{"resourceType":"Observation","id":"96f740bd-23a7-4f58-82ec-9c77bcdeb26f","meta":{"profile":["http://hl7.org/fhir/us/core/StructureDefinition/us-core-body-weight"]},"status":"final","category":[{"coding":[{"system":"http://terminology.hl7.org/CodeSystem/observation-category","code":"vital-signs","display":"Vital Signs"}]}],"code":{"coding":[{"system":"http://loinc.org","code":"29463-7"}]},"subject":{"reference":"Patient/95ccc4ec-3197-44d5-a897-29c841dd54a9"},"effectiveDateTime":"2022-07-19T00:00:00+00:00","valueQuantity":{"value":20.11,"unit":"kilogram","system":"http://unitsofmeasure.org","code":"kg"}},"request":{"method":"POST","url":"Observation"}},{"fullUrl":"Observation/b68cb7b7-1c53-45b0-8a2b-690064cc6f9f","resource":{"resourceType":"Observation","id":"b68cb7b7-1c53-45b0-8a2b-690064cc6f9f","meta":{"profile":["http://hl7.org/fhir/us/core/StructureDefinition/us-core-body-weight"]},"status":"final","category":[{"coding":[{"system":"http://terminology.hl7.org/CodeSystem/observation-category","code":"vital-signs","display":"Vital Signs"}]}],"code":{"coding":[{"system":"http://loinc.org","code":"29463-7"}]},"subject":{"reference":"Patient/95ccc4ec-3197-44d5-a897-29c841dd54a9"},"effectiveDateTime":"2022-07-28T00:00:00+00:00","valueQuantity":{"value":28.64,"unit":"kilogram","system":"http://unitsofmeasure.org","code":"kg"}},"request":{"method":"POST","url":"Observation"}},{"fullUrl":"Observation/e0915067-7310-40dc-9d13-6c5566c4cf31","resource":{"resourceType":"Observation","id":"e0915067-7310-40dc-9d13-6c5566c4cf31","meta":{"profile":["http://hl7.org/fhir/us/core/StructureDefinition/us-core-body-temperature"]},"status":"final","category":[{"coding":[{"system":"http://terminology.hl7.org/CodeSystem/observation-category","code":"vital-signs","display":"Vital Signs"}]}],"code":{"coding":[{"system":"http://loinc.org","code":"8310-5"}]},"subject":{"reference":"Patient/95ccc4ec-3197-44d5-a897-29c841dd54a9"},"effectiveDateTime":"2022-08-05T00:00:00+00:00","valueQuantity":{"value":55.8,"unit":"Degrees Fahrenheit","system":"http://unitsofmeasure.org","code":"[degF]"}},"request":{"method":"POST","url":"Observation"}},{"fullUrl":"Observation/27bc3a49-b8d8-40ee-8915-aa783bd6a032","resource":{"resourceType":"Observation","id":"27bc3a49-b8d8-40ee-8915-aa783bd6a032","meta":{"profile":["http://hl7.org/fhir/us/core/StructureDefinition/us-core-heart-rate"]},"status":"final","category":[{"coding":[{"system":"http://terminology.hl7.org/CodeSystem/observation-category","code":"vital-signs","display":"Vital Signs"}]}],"code":{"coding":[{"system":"http://loinc.org","code":"8867-4"}]},"subject":{"reference":"Patient/95ccc4ec-3197-44d5-a897-29c841dd54a9"},"effectiveDateTime":"2022-10-05T00:00:00+00:00","valueQuantity":{"value":99.4,"unit":"Per Minute","system":"http://unitsofmeasure.org","code":"/min"}},"request":{"method":"POST","url":"Observation"}},{"fullUrl":"Patient/0ecd3bcc-71f8-447f-b0dc-976da6f1de43","resource":{"resourceType":"Patient","id":"0ecd3bcc-71f8-447f-b0dc-976da6f1de43","meta":{"profile":["http://hl7.org/fhir/us/core/StructureDefinition/us-core-patient"]},"extension":[{"extension":[{"url":"ombCategory","valueCoding":{"system":"urn:oid:2.16.840.1.113883.6.238","code":"2106-3","display":"White"}},{"url":"text","valueString":"White"}],"url":"http://hl7.org/fhir/us/core/StructureDefinition/us-core-race"},{"extension":[{"url":"ombCategory","valueCoding":{"system":"urn:oid:2.16.840.1.113883.6.238","code":"2186-5","display":"Non Hispanic or Latino"}},{"url":"text","valueString":"Non Hispanic or Latino"}],"url":"http://hl7.org/fhir/us/core/StructureDefinition/us-core-ethnicity"}],"identifier":[{"type":{"coding":[{"system":"http://terminology.hl7.org/CodeSystem/v2-0203","code":"MR"}]},"system":"urn:fhirgen:mrn","value":"623-14-4186"}],"name":[{"use":"official","family":"Owens","given":["Kimberly"]},{"use":"maiden","family":"Quinn"}],"telecom":[{"system":"phone","value":"855-824-3646","use":"work"},{"system":"email","value":"kathrynraymond@hotmail.com","use":"home"}],"gender":"female","birthDate":"1964-02-24","address":[{"use":"home","line":["795 Pena Village Suite 940"],"city":"South Brianview","state":"SD","postalCode":"50726"},{"use":"old","line":["6061 Scott Valleys Apt. 428"],"city":"Aprilfurt","state":"IL","postalCode":"19609"}]},"request":{"method":"POST","url":"Patient"}},{"fullUrl":"Observation/7db02513-f41c-4754-989b-1f49c96a9315","resource":{"resourceType":"Observation","id":"7db02513-f41c-4754-989b-1f49c96a9315","meta":{"profile":["http://hl7.org/fhir/us/core/StructureDefinition/us-core-observation-lab"]},"status":"final","category":[{"coding":[{"system":"http://terminology.hl7.org/CodeSystem/observation-category","code":"laboratory","display":"Laboratory"}]}],"code":{"coding":[{"system":"http://loinc.org","code":"11084-1"}]},"subject":{"reference":"Patient/0ecd3bcc-71f8-447f-b0dc-976da6f1de43"},"effectiveDateTime":"2022-03-29T00:00:00+00:00","valueRatio":{"numerator":{"value":1},"denominator":{"value":4}}},"request":{"method":"POST","url":"Observation"}},{"fullUrl":"Observation/2e26937a-4366-44d0-82af-2b24b7eba192","resource":{"resourceType":"Observation","id":"2e26937a-4366-44d0-82af-2b24b7eba192","meta":{"profile":["http://hl7.org/fhir/us/core/StructureDefinition/us-core-observation-lab"]},"status":"final","category":[{"coding":[{"system":"http://terminology.hl7.org/CodeSystem/observation-category","code":"laboratory","display":"Laboratory"}]}],"code":{"coding":[{"system":"http://loinc.org","code":"31146-4"}]},"subject":{"reference":"Patient/0ecd3bcc-71f8-447f-b0dc-976da6f1de43"},"effectiveDateTime":"2022-06-20T00:00:00+00:00","valueRatio":{"numerator":{"value":1},"denominator":{"value":64}}},"request":{"method":"POST","url":"Observation"}},{"fullUrl":"Observation/727c296c-0e2d-45fc-8c49-48e51f98df8f","resource":{"resourceType":"Observation","id":"727c296c-0e2d-45fc-8c49-48e51f98df8f","meta":{"profile":["http://hl7.org/fhir/us/core/StructureDefinition/us-core-observation-lab"]},"status":"final","category":[{"coding":[{"system":"http://terminology.hl7.org/CodeSystem/observation-category","code":"laboratory","display":"Laboratory"}]}],"code":{"coding":[{"system":"http://loinc.org","code":"50695-6"}]},"subject":{"reference":"Patient/0ecd3bcc-71f8-447f-b0dc-976da6f1de43"},"effectiveDateTime":"2022-07-16T00:00:00+00:00","valueRatio":{"numerator":{"value":1},"denominator":{"value":32}}},"request":{"method":"POST","url":"Observation"}},{"fullUrl":"Condition/2165c239-0667-4533-a7e2-500bbe29bf22","resource":{"resourceType":"Condition","id":"2165c239-0667-4533-a7e2-500bbe29bf22","meta":{"profile":["http://hl7.org/fhir/us/core/StructureDefinition/us-core-condition"]},"clinicalStatus":{"coding":[{"system":"http://terminology.hl7.org/CodeSystem/condition-clinical","code":"active","display":"Active"}]},"category":[{"coding":[{"system":"http://terminology.hl7.org/CodeSystem/condition-category","code":"problem-list-item"}]}],"code":{"coding":[{"system":"http://snomed.info/sct","code":"418290006"}]},"subject":{"reference":"Patient/0ecd3bcc-71f8-447f-b0dc-976da6f1de43"},"onsetDateTime":"2022-10-24T00:00:00+00:00"},"request":{"method":"POST","url":"Condition"}},{"fullUrl":"Condition/c035f46b-92bf-4b68-aaab-5a7ec8629d8c","resource":{"resourceType":"Condition","id":"c035f46b-92bf-4b68-aaab-5a7ec8629d8c","meta":{"profile":["http://hl7.org/fhir/us/core/StructureDefinition/us-core-condition"]},"clinicalStatus":{"coding":[{"system":"http://terminology.hl7.org/CodeSystem/condition-clinical","code":"active","display":"Active"}]},"category":[{"coding":[{"system":"http://terminology.hl7.org/CodeSystem/condition-category","code":"problem-list-item"}]}],"code":{"coding":[{"system":"http://snomed.info/sct","code":"44882003"}]},"subject":{"reference":"Patient/0ecd3bcc-71f8-447f-b0dc-976da6f1de43"},"onsetDateTime":"2022-04-18T00:00:00+00:00"},"request":{"method":"POST","url":"Condition"}},{"fullUrl":"Condition/f7ad3f4e-0a6f-41f9-b8da-f8ad944eb49a","resource":{"resourceType":"Condition","id":"f7ad3f4e-0a6f-41f9-b8da-f8ad944eb49a","meta":{"profile":["http://hl7.org/fhir/us/core/StructureDefinition/us-core-condition"]},"clinicalStatus":{"coding":[{"system":"http://terminology.hl7.org/CodeSystem/condition-clinical","code":"active","display":"Active"}]},"category":[{"coding":[{"system":"http://terminology.hl7.org/CodeSystem/condition-category","code":"problem-list-item"}]}],"code":{"coding":[{"system":"http://snomed.info/sct","code":"736686006"}]},"subject":{"reference":"Patient/0ecd3bcc-71f8-447f-b0dc-976da6f1de43"},"onsetDateTime":"2022-10-28T00:00:00+00:00"},"request":{"method":"POST","url":"Condition"}},{"fullUrl":"Condition/66a5f030-3733-403d-92a6-6212bb46e9d7","resource":{"resourceType":"Condition","id":"66a5f030-3733-403d-92a6-6212bb46e9d7","meta":{"profile":["http://hl7.org/fhir/us/core/StructureDefinition/us-core-condition"]},"clinicalStatus":{"coding":[{"system":"http://terminology.hl7.org/CodeSystem/condition-clinical","code":"active","display":"Active"}]},"category":[{"coding":[{"system":"http://terminology.hl7.org/CodeSystem/condition-category","code":"problem-list-item"}]}],"code":{"coding":[{"system":"http://snomed.info/sct","code":"44882003"}]},"subject":{"reference":"Patient/0ecd3bcc-71f8-447f-b0dc-976da6f1de43"},"onsetDateTime":"2022-06-27T00:00:00+00:00"},"request":{"method":"POST","url":"Condition"}},{"fullUrl":"Condition/83490d9d-40e3-452f-b6b2-f08657f0a565","resource":{"resourceType":"Condition","id":"83490d9d-40e3-452f-b6b2-f08657f0a565","meta":{"profile":["http://hl7.org/fhir/us/core/StructureDefinition/us-core-condition"]},"clinicalStatus":{"coding":[{"system":"http://terminology.hl7.org/CodeSystem/condition-clinical","code":"active","display":"Active"}]},"category":[{"coding":[{"system":"http://terminology.hl7.org/CodeSystem/condition-category","code":"problem-list-item"}]}],"code":{"coding":[{"system":"http://snomed.info/sct","code":"709977002"}]},"subject":{"reference":"Patient/0ecd3bcc-71f8-447f-b0dc-976da6f1de43"},"onsetDateTime":"2022-08-28T00:00:00+00:00"},"request":{"method":"POST","url":"Condition"}},{"fullUrl":"Observation/ed0edd66-92cc-4896-b223-954fef4c4825","resource":{"resourceType":"Observation","id":"ed0edd66-92cc-4896-b223-954fef4c4825","meta":{"profile":["http://hl7.org/fhir/us/core/StructureDefinition/us-core-observation-lab"]},"status":"final","category":[{"coding":[{"system":"http://terminology.hl7.org/CodeSystem/observation-category","code":"laboratory","display":"Laboratory"}]}],"code":{"coding":[{"system":"http://loinc.org","code":"49498-9"}]},"subject":{"reference":"Patient/0ecd3bcc-71f8-447f-b0dc-976da6f1de43"},"effectiveDateTime":"2022-06-30T00:00:00+00:00","valueQuantity":{"value":9.9}},"request":{"method":"POST","url":"Observation"}},{"fullUrl":"Observation/826299be-f7e8-4b0c-89c9-da2ca6c8f49f","resource":{"resourceType":"Observation","id":"826299be-f7e8-4b0c-89c9-da2ca6c8f49f","meta":{"profile":["http://hl7.org/fhir/us/core/StructureDefinition/us-core-observation-lab"]},"status":"final","category":[{"coding":[{"system":"http://terminology.hl7.org/CodeSystem/observation-category","code":"laboratory","display":"Laboratory"}]}],"code":{"coding":[{"system":"http://loinc.org","code":"26464-8"}]},"subject":{"reference":"Patient/0ecd3bcc-71f8-447f-b0dc-976da6f1de43"},"effectiveDateTime":"2022-10-11T00:00:00+00:00","valueQuantity":{"value":4.1}},"request":{"method":"POST","url":"Observation"}},{"fullUrl":"Observation/4a0a4dac-97e1-478e-b8de-969133644b19","resource":{"resourceType":"Observation","id":"4a0a4dac-97e1-478e-b8de-969133644b19","meta":{"profile":["http://hl7.org/fhir/us/core/StructureDefinition/us-core-observation-lab"]},"status":"final","category":[{"coding":[{"system":"http://terminology.hl7.org/CodeSystem/observation-category","code":"laboratory","display":"Laboratory"}]}],"code":{"coding":[{"system":"http://loinc.org","code":"6690-2"}]},"subject":{"reference":"Patient/0ecd3bcc-71f8-447f-b0dc-976da6f1de43"},"effectiveDateTime":"2022-04-02T00:00:00+00:00","valueQuantity":{"value":8.4}},"request":{"method":"POST","url":"Observation"}},{"fullUrl":"Observation/9cb7162e-a8b3-4397-a1ca-3159e0339706","resource":{"resourceType":"Observation","id":"9cb7162e-a8b3-4397-a1ca-3159e0339706","meta":{"profile":["http://hl7.org/fhir/us/core/StructureDefinition/us-core-bmi"]},"status":"final","category":[{"coding":[{"system":"http://terminology.hl7.org/CodeSystem/observation-category","code":"vital-signs","display":"Vital Signs"}]}],"code":{"coding":[{"system":"http://loinc.org","code":"39156-5"}]},"subject":{"reference":"Patient/0ecd3bcc-71f8-447f-b0dc-976da6f1de43"},"effectiveDateTime":"2022-06-29T00:00:00+00:00","valueQuantity":{"value":13.11,"unit":"kg/m2","system":"http://unitsofmeasure.org","code":"kg/m2"}},"request":{"method":"POST","url":"Observation"}},{"fullUrl":"Observation/4a9c65e1-46fb-47ad-93a7-ef525de7ce4a","resource":{"resourceType":"Observation","id":"4a9c65e1-46fb-47ad-93a7-ef525de7ce4a","meta":{"profile":["http://hl7.org/fhir/us/core/StructureDefinition/us-core-bmi"]},"status":"final","category":[{"coding":[{"system":"http://terminology.hl7.org/CodeSystem/observation-category","code":"vital-signs","display":"Vital Signs"}]}],"code":{"coding":[{"system":"http://loinc.org","code":"39156-5"}]},"subject":{"reference":"Patient/0ecd3bcc-71f8-447f-b0dc-976da6f1de43"},"effectiveDateTime":"2022-03-08T00:00:00+00:00","valueQuantity":{"value":23.35,"unit":"kg/m2","system":"http://unitsofmeasure.org","code":"kg/m2"}},"request":{"method":"POST","url":"Observation"}},{"fullUrl":"Observation/cff90bd1-83a4-4216-86c4-be1e9d72c980","resource":{"resourceType":"Observation","id":"cff90bd1-83a4-4216-86c4-be1e9d72c980","meta":{"profile":["http://hl7.org/fhir/us/core/StructureDefinition/us-core-head-circumference"]},"status":"final","category":[{"coding":[{"system":"http://terminology.hl7.org/CodeSystem/observation-category","code":"vital-signs","display":"Vital Signs"}]}],"code":{"coding":[{"system":"http://loinc.org","code":"9843-4"}]},"subject":{"reference":"Patient/0ecd3bcc-71f8-447f-b0dc-976da6f1de43"},"effectiveDateTime":"2022-07-17T00:00:00+00:00","valueQuantity":{"value":8.1,"unit":"Inch","system":"http://unitsofmeasure.org","code":"[in_i]"}},"request":{"method":"POST","url":"Observation"}},{"fullUrl":"Observation/facc2e98-7188-4731-90fc-19b7fdfa0d8b","resource":{"resourceType":"Observation","id":"facc2e98-7188-4731-90fc-19b7fdfa0d8b","meta":{"profile":["http://hl7.org/fhir/us/core/StructureDefinition/us-core-head-circumference"]},"status":"final","category":[{"coding":[{"system":"http://terminology.hl7.org/CodeSystem/observation-category","code":"vital-signs","display":"Vital Signs"}]}],"code":{"coding":[{"system":"http://loinc.org","code":"9843-4"}]},"subject":{"reference":"Patient/0ecd3bcc-71f8-447f-b0dc-976da6f1de43"},"effectiveDateTime":"2022-12-31T00:00:00+00:00","valueQuantity":{"value":5.5,"unit":"Inch","system":"http://unitsofmeasure.org","code":"[in_i]"}},"request":{"method":"POST","url":"Observation"}},{"fullUrl":"Observation/7ec04379-6de1-4d1f-b842-32a71bcae36f","resource":{"resourceType":"Observation","id":"7ec04379-6de1-4d1f-b842-32a71bcae36f","meta":{"profile":["http://hl7.org/fhir/us/core/StructureDefinition/us-core-body-height"]},"status":"final","category":[{"coding":[{"system":"http://terminology.hl7.org/CodeSystem/observation-category","code":"vital-signs","display":"Vital Signs"}]}],"code":{"coding":[{"system":"http://loinc.org","code":"8302-2"}]},"subject":{"reference":"Patient/0ecd3bcc-71f8-447f-b0dc-976da6f1de43"},"effectiveDateTime":"2022-03-08T00:00:00+00:00","valueQuantity":{"value":62.1,"unit":"Inch","system":"http://unitsofmeasure.org","code":"[in_i]"}},"request":{"method":"POST","url":"Observation"}},{"fullUrl":"Observation/cbce3457-426f-4d82-bf9e-0471b0faff03","resource":{"resourceType":"Observation","id":"cbce3457-426f-4d82-bf9e-0471b0faff03","meta":{"profile":["http://hl7.org/fhir/us/core/StructureDefinition/us-core-body-weight"]},"status":"final","category":[{"coding":[{"system":"http://terminology.hl7.org/CodeSystem/observation-category","code":"vital-signs","display":"Vital Signs"}]}],"code":{"coding":[{"system":"http://loinc.org","code":"29463-7"}]},"subject":{"reference":"Patient/0ecd3bcc-71f8-447f-b0dc-976da6f1de43"},"effectiveDateTime":"2022-06-03T00:00:00+00:00","valueQuantity":{"value":94.63,"unit":"kilogram","system":"http://unitsofmeasure.org","code":"kg"}},"request":{"method":"POST","url":"Observation"}},{"fullUrl":"Observation/48156567-f4d5-4aa5-beba-e4bbe80e4ea5","resource":{"resourceType":"Observation","id":"48156567-f4d5-4aa5-beba-e4bbe80e4ea5","meta":{"profile":["http://hl7.org/fhir/us/core/StructureDefinition/us-core-body-temperature"]},"status":"final","category":[{"coding":[{"system":"http://terminology.hl7.org/CodeSystem/observation-category","code":"vital-signs","display":"Vital Signs"}]}],"code":{"coding":[{"system":"http://loinc.org","code":"8310-5"}]},"subject":{"reference":"Patient/0ecd3bcc-71f8-447f-b0dc-976da6f1de43"},"effectiveDateTime":"2022-01-26T00:00:00+00:00","valueQuantity":{"value":34.95,"unit":"Degrees Fahrenheit","system":"http://unitsofmeasure.org","code":"[degF]"}},"request":{"method":"POST","url":"Observation"}},{"fullUrl":"Observation/3229a001-c9b0-4164-bcdd-33f934f9c3e6","resource":{"resourceType":"Observation","id":"3229a001-c9b0-4164-bcdd-33f934f9c3e6","meta":{"profile":["http://hl7.org/fhir/us/core/StructureDefinition/us-core-body-temperature"]},"status":"final","category":[{"coding":[{"system":"http://terminology.hl7.org/CodeSystem/observation-category","code":"vital-signs","display":"Vital Signs"}]}],"code":{"coding":[{"system":"http://loinc.org","code":"8310-5"}]},"subject":{"reference":"Patient/0ecd3bcc-71f8-447f-b0dc-976da6f1de43"},"effectiveDateTime":"2022-10-31T00:00:00+00:00","valueQuantity":{"value":139.66,"unit":"Degrees Fahrenheit","system":"http://unitsofmeasure.org","code":"[degF]"}},"request":{"method":"POST","url":"Observation"}},{"fullUrl":"Observation/b442fa5b-80fe-438c-a97f-87a39e7a703b","resource":{"resourceType":"Observation","id":"b442fa5b-80fe-438c-a97f-87a39e7a703b","meta":{"profile":["http://hl7.org/fhir/us/core/StructureDefinition/us-core-heart-rate"]},"status":"final","category":[{"coding":[{"system":"http://terminology.hl7.org/CodeSystem/observation-category","code":"vital-signs","display":"Vital Signs"}]}],"code":{"coding":[{"system":"http://loinc.org","code":"8867-4"}]},"subject":{"reference":"Patient/0ecd3bcc-71f8-447f-b0dc-976da6f1de43"},"effectiveDateTime":"2022-12-28T00:00:00+00:00","valueQuantity":{"value":101.5,"unit":"Per Minute","system":"http://unitsofmeasure.org","code":"/min"}},"request":{"method":"POST","url":"Observation"}},{"fullUrl":"Patient/b297ac0b-16fd-4d36-9f1a-342b2689a6a5","resource":{"resourceType":"Patient","id":"b297ac0b-16fd-4d36-9f1a-342b2689a6a5","meta":{"profile":["http://hl7.org/fhir/us/core/StructureDefinition/us-core-patient"]},"extension":[{"extension":[{"url":"ombCategory","valueCoding":{"system":"urn:oid:2.16.840.1.113883.6.238","code":"2106-3","display":"White"}},{"url":"text","valueString":"White"}],"url":"http://hl7.org/fhir/us/core/StructureDefinition/us-core-race"},{"extension":[{"url":"ombCategory","valueCoding":{"system":"urn:oid:2.16.840.1.113883.6.238","code":"2186-5","display":"Non Hispanic or Latino"}},{"url":"text","valueString":"Non Hispanic or Latino"}],"url":"http://hl7.org/fhir/us/core/StructureDefinition/us-core-ethnicity"}],"identifier":[{"type":{"coding":[{"system":"http://terminology.hl7.org/CodeSystem/v2-0203","code":"MR"}]},"system":"urn:fhirgen:mrn","value":"057-72-5564"}],"name":[{"use":"official","family":"Jordan","given":["Timothy"]},{"use":"maiden","family":"Woodward"}],"telecom":[{"system":"phone","value":"(053)183-3347x848","use":"mobile"},{"system":"email","value":"pgregory@gmail.com","use":"mobile"}],"gender":"other","birthDate":"1957-03-28","address":[{"use":"home","line":["1063 Kelly Isle Suite 196"],"city":"Joneston","state":"IN","postalCode":"44059"},{"use":"old","line":["801 Kennedy Brooks"],"city":"West Bridget","state":"DE","postalCode":"36212"}]},"request":{"method":"POST","url":"Patient"}},{"fullUrl":"Observation/d05bb5f9-4f49-4219-a1e0-0bbc7bdcdab6","resource":{"resourceType":"Observation","id":"d05bb5f9-4f49-4219-a1e0-0bbc7bdcdab6","meta":{"profile":["http://hl7.org/fhir/us/core/StructureDefinition/us-core-observation-lab"]},"status":"final","category":[{"coding":[{"system":"http://terminology.hl7.org/CodeSystem/observation-category","code":"laboratory","display":"Laboratory"}]}],"code":{"coding":[{"system":"http://loinc.org","code":"71793-4"}]},"subject":{"reference":"Patient/b297ac0b-16fd-4d36-9f1a-342b2689a6a5"},"effectiveDateTime":"2022-03-17T00:00:00+00:00","valueRatio":{"numerator":{"value":1},"denominator":{"value":32}}},"request":{"method":"POST","url":"Observation"}},{"fullUrl":"Observation/9a73e159-c85e-45c9-8e8b-dad4633d1f76","resource":{"resourceType":"Observation","id":"9a73e159-c85e-45c9-8e8b-dad4633d1f76","meta":{"profile":["http://hl7.org/fhir/us/core/StructureDefinition/us-core-observation-lab"]},"status":"final","category":[{"coding":[{"system":"http://terminology.hl7.org/CodeSystem/observation-category","code":"laboratory","display":"Laboratory"}]}],"code":{"coding":[{"system":"http://loinc.org","code":"5394-2"}]},"subject":{"reference":"Patient/b297ac0b-16fd-4d36-9f1a-342b2689a6a5"},"effectiveDateTime":"2022-02-04T00:00:00+00:00","valueRatio":{"numerator":{"value":1},"denominator":{"value":64}}},"request":{"method":"POST","url":"Observation"}},{"fullUrl":"Observation/26283632-3740-42c5-8490-7714aedd5164","resource":{"resourceType":"Observation","id":"26283632-3740-42c5-8490-7714aedd5164","meta":{"profile":["http://hl7.org/fhir/us/core/StructureDefinition/us-core-observation-lab"]},"status":"final","category":[{"coding":[{"system":"http://terminology.hl7.org/CodeSystem/observation-category","code":"laboratory","display":"Laboratory"}]}],"code":{"coding":[{"system":"http://loinc.org","code":"50695-6"}]},"subject":{"reference":"Patient/b297ac0b-16fd-4d36-9f1a-342b2689a6a5"},"effectiveDateTime":"2022-09-05T00:00:00+00:00","valueRatio":{"numerator":{"value":1},"denominator":{"value":4}}},"request":{"method":"POST","url":"Observation"}},{"fullUrl":"Condition/332a89f8-535e-49c1-a884-140fa62b0fc1","resource":{"resourceType":"Condition","id":"332a89f8-535e-49c1-a884-140fa62b0fc1","meta":{"profile":["http://hl7.org/fhir/us/core/StructureDefinition/us-core-condition"]},"clinicalStatus":{"coding":[{"system":"http://terminology.hl7.org/CodeSystem/condition-clinical","code":"active","display":"Active"}]},"category":[{"coding":[{"system":"http://terminology.hl7.org/CodeSystem/condition-category","code":"problem-list-item"}]}],"code":{"coding":[{"system":"http://snomed.info/sct","code":"44882003"}]},"subject":{"reference":"Patient/b297ac0b-16fd-4d36-9f1a-342b2689a6a5"},"onsetDateTime":"2022-12-02T00:00:00+00:00"},"request":{"method":"POST","url":"Condition"}},{"fullUrl":"Condition/84ae37ac-6139-4917-8c78-28d704955263","resource":{"resourceType":"Condition","id":"84ae37ac-6139-4917-8c78-28d704955263","meta":{"profile":["http://hl7.org/fhir/us/core/StructureDefinition/us-core-condition"]},"clinicalStatus":{"coding":[{"system":"http://terminology.hl7.org/CodeSystem/condition-clinical","code":"active","display":"Active"}]},"category":[{"coding":[{"system":"http://terminology.hl7.org/CodeSystem/condition-category","code":"problem-list-item"}]}],"code":{"coding":[{"system":"http://snomed.info/sct","code":"44882003"}]},"subject":{"reference":"Patient/b297ac0b-16fd-4d36-9f1a-342b2689a6a5"},"onsetDateTime":"2022-05-04T00:00:00+00:00"},"request":{"method":"POST","url":"Condition"}},{"fullUrl":"Condition/6d822b4c-c2ff-4d20-a419-3c69ff7b523c","resource":{"resourceType":"Condition","id":"6d822b4c-c2ff-4d20-a419-3c69ff7b523c","meta":{"profile":["http://hl7.org/fhir/us/core/StructureDefinition/us-core-condition"]},"clinicalStatus":{"coding":[{"system":"http://terminology.hl7.org/CodeSystem/condition-clinical","code":"active","display":"Active"}]},"category":[{"coding":[{"system":"http://terminology.hl7.org/CodeSystem/condition-category","code":"problem-list-item"}]}],"code":{"coding":[{"system":"http://snomed.info/sct","code":"736686006"}]},"subject":{"reference":"Patient/b297ac0b-16fd-4d36-9f1a-342b2689a6a5"},"onsetDateTime":"2022-12-01T00:00:00+00:00"},"request":{"method":"POST","url":"Condition"}},{"fullUrl":"Condition/a84a7b0f-27db-4f62-9dfe-7fc8d798687c","resource":{"resourceType":"Condition","id":"a84a7b0f-27db-4f62-9dfe-7fc8d798687c","meta":{"profile":["http://hl7.org/fhir/us/core/StructureDefinition/us-core-condition"]},"clinicalStatus":{"coding":[{"system":"http://terminology.hl7.org/CodeSystem/condition-clinical","code":"active","display":"Active"}]},"category":[{"coding":[{"system":"http://terminology.hl7.org/CodeSystem/condition-category","code":"problem-list-item"}]}],"code":{"coding":[{"system":"http://snomed.info/sct","code":"44882003"}]},"subject":{"reference":"Patient/b297ac0b-16fd-4d36-9f1a-342b2689a6a5"},"onsetDateTime":"2022-09-26T00:00:00+00:00"},"request":{"method":"POST","url":"Condition"}},{"fullUrl":"Condition/fe6bc371-0d04-4387-a806-896393bd01b2","resource":{"resourceType":"Condition","id":"fe6bc371-0d04-4387-a806-896393bd01b2","meta":{"profile":["http://hl7.org/fhir/us/core/StructureDefinition/us-core-condition"]},"clinicalStatus":{"coding":[{"system":"http://terminology.hl7.org/CodeSystem/condition-clinical","code":"active","display":"Active"}]},"category":[{"coding":[{"system":"http://terminology.hl7.org/CodeSystem/condition-category","code":"problem-list-item"}]}],"code":{"coding":[{"system":"http://snomed.info/sct","code":"736686006"}]},"subject":{"reference":"Patient/b297ac0b-16fd-4d36-9f1a-342b2689a6a5"},"onsetDateTime":"2022-09-06T00:00:00+00:00"},"request":{"method":"POST","url":"Condition"}},{"fullUrl":"Condition/103a160b-21d1-48ad-8c6c-a3d89fd85ff7","resource":{"resourceType":"Condition","id":"103a160b-21d1-48ad-8c6c-a3d89fd85ff7","meta":{"profile":["http://hl7.org/fhir/us/core/StructureDefinition/us-core-condition"]},"clinicalStatus":{"coding":[{"system":"http://terminology.hl7.org/CodeSystem/condition-clinical","code":"active","display":"Active"}]},"category":[{"coding":[{"system":"http://terminology.hl7.org/CodeSystem/condition-category","code":"problem-list-item"}]}],"code":{"coding":[{"system":"http://snomed.info/sct","code":"44882003"}]},"subject":{"reference":"Patient/b297ac0b-16fd-4d36-9f1a-342b2689a6a5"},"onsetDateTime":"2022-06-13T00:00:00+00:00"},"request":{"method":"POST","url":"Condition"}},{"fullUrl":"Condition/225ebe4f-fee6-4715-a6f4-b5ad50d1434b","resource":{"resourceType":"Condition","id":"225ebe4f-fee6-4715-a6f4-b5ad50d1434b","meta":{"profile":["http://hl7.org/fhir/us/core/StructureDefinition/us-core-condition"]},"clinicalStatus":{"coding":[{"system":"http://terminology.hl7.org/CodeSystem/condition-clinical","code":"active","display":"Active"}]},"category":[{"coding":[{"system":"http://terminology.hl7.org/CodeSystem/condition-category","code":"problem-list-item"}]}],"code":{"coding":[{"system":"http://snomed.info/sct","code":"91554004"}]},"subject":{"reference":"Patient/b297ac0b-16fd-4d36-9f1a-342b2689a6a5"},"onsetDateTime":"2022-04-25T00:00:00+00:00"},"request":{"method":"POST","url":"Condition"}},{"fullUrl":"Observation/9755c06d-9ebf-44b8-b434-9222f20827bc","resource":{"resourceType":"Observation","id":"9755c06d-9ebf-44b8-b434-9222f20827bc","meta":{"profile":["http://hl7.org/fhir/us/core/StructureDefinition/us-core-observation-lab"]},"status":"final","category":[{"coding":[{"system":"http://terminology.hl7.org/CodeSystem/observation-category","code":"laboratory","display":"Laboratory"}]}],"code":{"coding":[{"system":"http://loinc.org","code":"804-5"}]},"subject":{"reference":"Patient/b297ac0b-16fd-4d36-9f1a-342b2689a6a5"},"effectiveDateTime":"2022-01-02T00:00:00+00:00","valueQuantity":{"value":10.9}},"request":{"method":"POST","url":"Observation"}},{"fullUrl":"Observation/2b72f997-49f6-4285-8895-fc913113cb4f","resource":{"resourceType":"Observation","id":"2b72f997-49f6-4285-8895-fc913113cb4f","meta":{"profile":["http://hl7.org/fhir/us/core/StructureDefinition/us-core-observation-lab"]},"status":"final","category":[{"coding":[{"system":"http://terminology.hl7.org/CodeSystem/observation-category","code":"laboratory","display":"Laboratory"}]}],"code":{"coding":[{"system":"http://loinc.org","code":"804-5"}]},"subject":{"reference":"Patient/b297ac0b-16fd-4d36-9f1a-342b2689a6a5"},"effectiveDateTime":"2022-07-24T00:00:00+00:00","valueQuantity":{"value":9.6}},"request":{"method":"POST","url":"Observation"}},{"fullUrl":"Observation/959d8964-3617-4459-b44a-36ffd6aca6dc","resource":{"resourceType":"Observation","id":"959d8964-3617-4459-b44a-36ffd6aca6dc","meta":{"profile":["http://hl7.org/fhir/us/core/StructureDefinition/us-core-bmi"]},"status":"final","category":[{"coding":[{"system":"http://terminology.hl7.org/CodeSystem/observation-category","code":"vital-signs","display":"Vital Signs"}]}],"code":{"coding":[{"system":"http://loinc.org","code":"39156-5"}]},"subject":{"reference":"Patient/b297ac0b-16fd-4d36-9f1a-342b2689a6a5"},"effectiveDateTime":"2022-10-21T00:00:00+00:00","valueQuantity":{"value":21.51,"unit":"kg/m2","system":"http://unitsofmeasure.org","code":"kg/m2"}},"request":{"method":"POST","url":"Observation"}},{"fullUrl":"Observation/152e13cb-3f92-4c46-a65d-00fa39fd0e3f","resource":{"resourceType":"Observation","id":"152e13cb-3f92-4c46-a65d-00fa39fd0e3f","meta":{"profile":["http://hl7.org/fhir/us/core/StructureDefinition/us-core-head-circumference"]},"status":"final","category":[{"coding":[{"system":"http://terminology.hl7.org/CodeSystem/observation-category","code":"vital-signs","display":"Vital Signs"}]}],"code":{"coding":[{"system":"http://loinc.org","code":"9843-4"}]},"subject":{"reference":"Patient/b297ac0b-16fd-4d36-9f1a-342b2689a6a5"},"effectiveDateTime":"2022-08-10T00:00:00+00:00","valueQuantity":{"value":5.5,"unit":"Inch","system":"http://unitsofmeasure.org","code":"[in_i]"}},"request":{"method":"POST","url":"Observation"}},{"fullUrl":"Observation/37195c96-470d-440d-8d50-85de2f57320d","resource":{"resourceType":"Observation","id":"37195c96-470d-440d-8d50-85de2f57320d","meta":{"profile":["http://hl7.org/fhir/us/core/StructureDefinition/us-core-head-circumference"]},"status":"final","category":[{"coding":[{"system":"http://terminology.hl7.org/CodeSystem/observation-category","code":"vital-signs","display":"Vital Signs"}]}],"code":{"coding":[{"system":"http://loinc.org","code":"9843-4"}]},"subject":{"reference":"Patient/b297ac0b-16fd-4d36-9f1a-342b2689a6a5"},"effectiveDateTime":"2022-06-29T00:00:00+00:00","valueQuantity":{"value":6.4,"unit":"Inch","system":"http://unitsofmeasure.org","code":"[in_i]"}},"request":{"method":"POST","url":"Observation"}},{"fullUrl":"Observation/b3b3661c-2ee4-481c-af30-d0cb56acac8b","resource":{"resourceType":"Observation","id":"b3b3661c-2ee4-481c-af30-d0cb56acac8b","meta":{"profile":["http://hl7.org/fhir/us/core/StructureDefinition/us-core-body-height"]},"status":"final","category":[{"coding":[{"system":"http://terminology.hl7.org/CodeSystem/observation-category","code":"vital-signs","display":"Vital Signs"}]}],"code":{"coding":[{"system":"http://loinc.org","code":"8302-2"}]},"subject":{"reference":"Patient/b297ac0b-16fd-4d36-9f1a-342b2689a6a5"},"effectiveDateTime":"2022-07-03T00:00:00+00:00","valueQuantity":{"value":72.6,"unit":"Inch","system":"http://unitsofmeasure.org","code":"[in_i]"}},"request":{"method":"POST","url":"Observation"}},{"fullUrl":"Observation/239e5c17-a2fe-4840-929e-0dea45f29b99","resource":{"resourceType":"Observation","id":"239e5c17-a2fe-4840-929e-0dea45f29b99","meta":{"profile":["http://hl7.org/fhir/us/core/StructureDefinition/us-core-body-height"]},"status":"final","category":[{"coding":[{"system":"http://terminology.hl7.org/CodeSystem/observation-category","code":"vital-signs","display":"Vital Signs"}]}],"code":{"coding":[{"system":"http://loinc.org","code":"8302-2"}]},"subject":{"reference":"Patient/b297ac0b-16fd-4d36-9f1a-342b2689a6a5"},"effectiveDateTime":"2022-07-14T00:00:00+00:00","valueQuantity":{"value":83.7,"unit":"Inch","system":"http://unitsofmeasure.org","code":"[in_i]"}},"request":{"method":"POST","url":"Observation"}},{"fullUrl":"Observation/942e7b54-1ecf-4a3e-9ed7-6b6364230935","resource":{"resourceType":"Observation","id":"942e7b54-1ecf-4a3e-9ed7-6b6364230935","meta":{"profile":["http://hl7.org/fhir/us/core/StructureDefinition/us-core-body-weight"]},"status":"final","category":[{"coding":[{"system":"http://terminology.hl7.org/CodeSystem/observation-category","code":"vital-signs","display":"Vital Signs"}]}],"code":{"coding":[{"system":"http://loinc.org","code":"29463-7"}]},"subject":{"reference":"Patient/b297ac0b-16fd-4d36-9f1a-342b2689a6a5"},"effectiveDateTime":"2022-11-27T00:00:00+00:00","valueQuantity":{"value":98.32,"unit":"kilogram","system":"http://unitsofmeasure.org","code":"kg"}},"request":{"method":"POST","url":"Observation"}},{"fullUrl":"Observation/f4dcc155-a1a2-41ed-8807-f7e2a066e287","resource":{"resourceType":"Observation","id":"f4dcc155-a1a2-41ed-8807-f7e2a066e287","meta":{"profile":["http://hl7.org/fhir/us/core/StructureDefinition/us-core-body-temperature"]},"status":"final","category":[{"coding":[{"system":"http://terminology.hl7.org/CodeSystem/observation-category","code":"vital-signs","display":"Vital Signs"}]}],"code":{"coding":[{"system":"http://loinc.org","code":"8310-5"}]},"subject":{"reference":"Patient/b297ac0b-16fd-4d36-9f1a-342b2689a6a5"},"effectiveDateTime":"2022-07-01T00:00:00+00:00","valueQuantity":{"value":29.54,"unit":"Degrees Fahrenheit","system":"http://unitsofmeasure.org","code":"[degF]"}},"request":{"method":"POST","url":"Observation"}},{"fullUrl":"Observation/473e20cc-b959-4da6-bce6-542094b1467a","resource":{"resourceType":"Observation","id":"473e20cc-b959-4da6-bce6-542094b1467a","meta":{"profile":["http://hl7.org/fhir/us/core/StructureDefinition/us-core-body-temperature"]},"status":"final","category":[{"coding":[{"system":"http://terminology.hl7.org/CodeSystem/observation-category","code":"vital-signs","display":"Vital Signs"}]}],"code":{"coding":[{"system":"http://loinc.org","code":"8310-5"}]},"subject":{"reference":"Patient/b297ac0b-16fd-4d36-9f1a-342b2689a6a5"},"effectiveDateTime":"2022-05-18T00:00:00+00:00","valueQuantity":{"value":87.33,"unit":"Degrees Fahrenheit","system":"http://unitsofmeasure.org","code":"[degF]"}},"request":{"method":"POST","url":"Observation"}},{"fullUrl":"Observation/744fbd79-d062-41a7-83d6-858bc2b43d9c","resource":{"resourceType":"Observation","id":"744fbd79-d062-41a7-83d6-858bc2b43d9c","meta":{"profile":["http://hl7.org/fhir/us/core/StructureDefinition/us-core-heart-rate"]},"status":"final","category":[{"coding":[{"system":"http://terminology.hl7.org/CodeSystem/observation-category","code":"vital-signs","display":"Vital Signs"}]}],"code":{"coding":[{"system":"http://loinc.org","code":"8867-4"}]},"subject":{"reference":"Patient/b297ac0b-16fd-4d36-9f1a-342b2689a6a5"},"effectiveDateTime":"2022-09-29T00:00:00+00:00","valueQuantity":{"value":99.2,"unit":"Per Minute","system":"http://unitsofmeasure.org","code":"/min"}},"request":{"method":"POST","url":"Observation"}}]}