{"resourceType":"Bundle","id":"189c7a60-af20-4ea7-8085-8f097f28fc11","type":"transaction","entry":[{"fullUrl":"Patient/cdb31512-62e7-4dfb-88d8-3b97fe716d15","resource":{"resourceType":"Patient","id":"cdb31512-62e7-4dfb-88d8-3b97fe716d15","identifier":[{"type":{"coding":[{"system":"http://terminology.hl7.org/CodeSystem/v2-0203","code":"MR"}]},"system":"urn:fhirgen:mrn","value":"695-46-4826"}],"name":[{"family":"Lewis","given":["Scott"]}],"telecom":[{"system":"phone","value":"7356293100","use":"home"}],"gender":"male","birthDate":"1964-03-28","address":[{"line":["842 Lee Grove"],"city":"South Jasmine","state":"NM","postalCode":"13463"}]},"request":{"method":"POST","url":"Patient"}},{"fullUrl":"Observation/c1d5e578-b1c6-4641-ba46-7649faf39245","resource":{"resourceType":"Observation","id":"c1d5e578-b1c6-4641-ba46-7649faf39245","status":"final","code":{"coding":[{"system":"http://loinc.org","code":"31147-2"}]},"subject":{"reference":"Patient/cdb31512-62e7-4dfb-88d8-3b97fe716d15"},"effectiveDateTime":"2022-06-05T00:00:00+00:00","valueRatio":{"numerator":{"value":1},"denominator":{"value":64}}},"request":{"method":"POST","url":"Observation"}},{"fullUrl":"Observation/909803a1-5662-407d-b6b1-59fa115d1583","resource":{"resourceType":"Observation","id":"909803a1-5662-407d-b6b1-59fa115d1583","status":"final","code":{"coding":[{"system":"http://loinc.org","code":"31146-4"}]},"subject":{"reference":"Patient/cdb31512-62e7-4dfb-88d8-3b97fe716d15"},"effectiveDateTime":"2022-05-26T00:00:00+00:00","valueRatio":{"numerator":{"value":1},"denominator":{"value":4}}},"request":{"method":"POST","url":"Observation"}},{"fullUrl":"Observation/c0156228-4940-407a-9b31-a360769975fe","resource":{"resourceType":"Observation","id":"c0156228-4940-407a-9b31-a360769975fe","status":"final","code":{"coding":[{"system":"http://loinc.org","code":"31147-2"}]},"subject":{"reference":"Patient/cdb31512-62e7-4dfb-88d8-3b97fe716d15"},"effectiveDateTime":"2022-10-03T00:00:00+00:00","valueRatio":{"numerator":{"value":1},"denominator":{"value":32}}},"request":{"method":"POST","url":"Observation"}},{"fullUrl":"Condition/9b448e73-ee80-4732-986d-4b574488961c","resource":{"resourceType":"Condition","id":"9b448e73-ee80-4732-986d-4b574488961c","code":{"coding":[{"system":"http://snomed.info/sct","code":"31070006"}]},"subject":{"reference":"Patient/cdb31512-62e7-4dfb-88d8-3b97fe716d15"},"onsetDateTime":"2022-12-09T00:00:00+00:00"},"request":{"method":"POST","url":"Condition"}},{"fullUrl":"Condition/92b1597f-24ca-4ab6-b587-7a5e98bc9dec","resource":{"resourceType":"Condition","id":"92b1597f-24ca-4ab6-b587-7a5e98bc9dec","code":{"coding":[{"system":"http://snomed.info/sct","code":"79342006"}]},"subject":{"reference":"Patient/cdb31512-62e7-4dfb-88d8-3b97fe716d15"},"onsetDateTime":"2022-05-28T00:00:00+00:00"},"request":{"method":"POST","url":"Condition"}},{"fullUrl":"Condition/c66a3e6b-6ad7-4a4f-b650-517e9000c06b","resource":{"resourceType":"Condition","id":"c66a3e6b-6ad7-4a4f-b650-517e9000c06b","code":{"coding":[{"system":"http://snomed.info/sct","code":"418290006"}]},"subject":{"reference":"Patient/cdb31512-62e7-4dfb-88d8-3b97fe716d15"},"onsetDateTime":"2022-07-22T00:00:00+00:00"},"request":{"method":"POST","url":"Condition"}},{"fullUrl":"Condition/29ca646c-acc5-4d10-92b5-8e1695fdc7fb","resource":{"resourceType":"Condition","id":"29ca646c-acc5-4d10-92b5-8e1695fdc7fb","code":{"coding":[{"system":"http://snomed.info/sct","code":"297123002"}]},"subject":{"reference":"Patient/cdb31512-62e7-4dfb-88d8-3b97fe716d15"},"onsetDateTime":"2022-11-21T00:00:00+00:00"},"request":{"method":"POST","url":"Condition"}},{"fullUrl":"Condition/79df9736-b92b-4c27-9d8e-28bf5f5874a4","resource":{"resourceType":"Condition","id":"79df9736-b92b-4c27-9d8e-28bf5f5874a4","code":{"coding":[{"system":"http://snomed.info/sct","code":"18165001"}]},"subject":{"reference":"Patient/cdb31512-62e7-4dfb-88d8-3b97fe716d15"},"onsetDateTime":"2022-01-20T00:00:00+00:00"},"request":{"method":"POST","url":"Condition"}},{"fullUrl":"Condition/3aa62e1a-4e05-45cd-b18e-490790a74667","resource":{"resourceType":"Condition","id":"3aa62e1a-4e05-45cd-b18e-490790a74667","code":{"coding":[{"system":"http://snomed.info/sct","code":"91554004"}]},"subject":{"reference":"Patient/cdb31512-62e7-4dfb-88d8-3b97fe716d15"},"onsetDateTime":"2022-07-13T00:00:00+00:00"},"request":{"method":"POST","url":"Condition"}},{"fullUrl":"Condition/248d4efc-9bcb-4cf8-9631-82e17a222e4d","resource":{"resourceType":"Condition","id":"248d4efc-9bcb-4cf8-9631-82e17a222e4d","code":{"coding":[{"system":"http://snomed.info/sct","code":"709977002"}]},"subject":{"reference":"Patient/cdb31512-62e7-4dfb-88d8-3b97fe716d15"},"onsetDateTime":"2022-01-28T00:00:00+00:00"},"request":{"method":"POST","url":"Condition"}},{"fullUrl":"Observation/f78c4f96-ea03-461a-9b60-05be078cd61d","resource":{"resourceType":"Observation","id":"f78c4f96-ea03-461a-9b60-05be078cd61d","status":"final","code":{"coding":[{"system":"http://loinc.org","code":"26464-8"}]},"subject":{"reference":"Patient/cdb31512-62e7-4dfb-88d8-3b97fe716d15"},"effectiveDateTime":"2022-01-17T00:00:00+00:00","valueQuantity":{"value":8.6}},"request":{"method":"POST","url":"Observation"}},{"fullUrl":"Observation/4394e2ea-05c3-48da-96ee-3761cfa94459","resource":{"resourceType":"Observation","id":"4394e2ea-05c3-48da-96ee-3761cfa94459","status":"final","code":{"coding":[{"system":"http://loinc.org","code":"804-5"}]},"subject":{"reference":"Patient/cdb31512-62e7-4dfb-88d8-3b97fe716d15"},"effectiveDateTime":"2022-07-28T00:00:00+00:00","valueQuantity":{"value":10.1}},"request":{"method":"POST","url":"Observation"}},{"fullUrl":"Observation/1468fb13-9386-4a39-a2ac-2943034eb610","resource":{"resourceType":"Observation","id":"1468fb13-9386-4a39-a2ac-2943034eb610","status":"final","code":{"coding":[{"system":"http://loinc.org","code":"49498-9"}]},"subject":{"reference":"Patient/cdb31512-62e7-4dfb-88d8-3b97fe716d15"},"effectiveDateTime":"2022-02-03T00:00:00+00:00"},"request":{"method":"POST","url":"Observation"}},{"fullUrl":"Observation/22c18899-5112-4c3d-8ee1-37be95c6e037","resource":{"resourceType":"Observation","id":"22c18899-5112-4c3d-8ee1-37be95c6e037","status":"final","code":{"coding":[{"system":"http://loinc.org","code":"49498-9"}]},"subject":{"reference":"Patient/cdb31512-62e7-4dfb-88d8-3b97fe716d15"},"effectiveDateTime":"2022-03-27T00:00:00+00:00"},"request":{"method":"POST","url":"Observation"}},{"fullUrl":"Observation/f124fc35-1378-4645-8b7f-fe85c3f99ac2","resource":{"resourceType":"Observation","id":"f124fc35-1378-4645-8b7f-fe85c3f99ac2","status":"final","code":{"coding":[{"system":"http://loinc.org","code":"49498-9"}]},"subject":{"reference":"Patient/cdb31512-62e7-4dfb-88d8-3b97fe716d15"},"effectiveDateTime":"2022-10-03T00:00:00+00:00"},"request":{"method":"POST","url":"Observation"}},{"fullUrl":"Procedure/66208f90-e97e-41c5-8211-414884f72646","resource":{"resourceType":"Procedure","id":"66208f90-e97e-41c5-8211-414884f72646","status":"completed","code":{"coding":[{"system":"http://snomed.info/sct","code":"146005"}]},"subject":{"reference":"Patient/cdb31512-62e7-4dfb-88d8-3b97fe716d15"},"performedDateTime":"2022-10-23T00:00:00+00:00"},"request":{"method":"POST","url":"Procedure"}},{"fullUrl":"Procedure/07743236-3eba-48b4-99c9-aa676b462b2c","resource":{"resourceType":"Procedure","id":"07743236-3eba-48b4-99c9-aa676b462b2c","status":"completed","code":{"coding":[{"system":"http://snomed.info/sct","code":"647000"}]},"subject":{"reference":"Patient/cdb31512-62e7-4dfb-88d8-3b97fe716d15"},"performedDateTime":"2022-09-19T00:00:00+00:00"},"request":{"method":"POST","url":"Procedure"}},{"fullUrl":"Procedure/8b64ecba-cea3-4691-bca1-4d1dd7347d96","resource":{"resourceType":"Procedure","id":"8b64ecba-cea3-4691-bca1-4d1dd7347d96","status":"completed","code":{"coding":[{"system":"http://snomed.info/sct","code":"189009"}]},"subject":{"reference":"Patient/cdb31512-62e7-4dfb-88d8-3b97fe716d15"},"performedDateTime":"2022-08-08T00:00:00+00:00"},"request":{"method":"POST","url":"Procedure"}},{"fullUrl":"MedicationStatement/fcd4db27-59a3-4efd-af24-d7e6d7b1b417","resource":{"resourceType":"MedicationStatement","id":"fcd4db27-59a3-4efd-af24-d7e6d7b1b417","status":"completed","medicationCodeableConcept":{"coding":[{"system":"http://www.nlm.nih.gov/research/umls/rxnorm","code":"10395"}]},"subject":{"reference":"Patient/cdb31512-62e7-4dfb-88d8-3b97fe716d15"},"effectiveDateTime":"2022-05-07T00:00:00+00:00","dosage":[{"doseAndRate":[{"doseQuantity":{"value":2,"unit":"TAB","system":"http://terminology.hl7.org/CodeSystem/v3-orderableDrugForm","code":"TAB"}}]}]},"request":{"method":"POST","url":"MedicationStatement"}},{"fullUrl":"MedicationStatement/6504f97a-b7c6-481b-9c87-17f4332496b1","resource":{"resourceType":"MedicationStatement","id":"6504f97a-b7c6-481b-9c87-17f4332496b1","status":"completed","medicationCodeableConcept":{"coding":[{"system":"http://www.nlm.nih.gov/research/umls/rxnorm","code":"18631"}]},"subject":{"reference":"Patient/cdb31512-62e7-4dfb-88d8-3b97fe716d15"},"effectiveDateTime":"2022-10-17T00:00:00+00:00","dosage":[{"doseAndRate":[{"doseQuantity":{"value":2,"unit":"TAB","system":"http://terminology.hl7.org/CodeSystem/v3-orderableDrugForm","code":"TAB"}}]}]},"request":{"method":"POST","url":"MedicationStatement"}},{"fullUrl":"MedicationStatement/65c8c6dd-45f7-49f2-8f49-03bd67656ec4","resource":{"resourceType":"MedicationStatement","id":"65c8c6dd-45f7-49f2-8f49-03bd67656ec4","status":"completed","medicationCodeableConcept":{"coding":[{"system":"http://www.nlm.nih.gov/research/umls/rxnorm","code":"7984"}]},"subject":{"reference":"Patient/cdb31512-62e7-4dfb-88d8-3b97fe716d15"},"effectiveDateTime":"2022-06-05T00:00:00+00:00","dosage":[{"doseAndRate":[{"doseQuantity":{"value":1,"unit":"TAB","system":"http://terminology.hl7.org/CodeSystem/v3-orderableDrugForm","code":"TAB"}}]}]},"request":{"method":"POST","url":"MedicationStatement"}},{"fullUrl":"MedicationStatement/b531ae9e-7f4e-481c-9a87-4378af193486","resource":{"resourceType":"MedicationStatement","id":"b531ae9e-7f4e-481c-9a87-4378af193486","status":"completed","medicationCodeableConcept":{"coding":[{"system":"http://www.nlm.nih.gov/research/umls/rxnorm","code":"3640"}]},"subject":{"reference":"Patient/cdb31512-62e7-4dfb-88d8-3b97fe716d15"},"effectiveDateTime":"2022-03-21T00:00:00+00:00","dosage":[{"doseAndRate":[{"doseQuantity":{"value":2,"unit":"TAB","system":"http://terminology.hl7.org/CodeSystem/v3-orderableDrugForm","code":"TAB"}}]}]},"request":{"method":"POST","url":"MedicationStatement"}},{"fullUrl":"MedicationStatement/8e066c5d-9dee-4d74-8c3f-9b297dc27dda","resource":{"resourceType":"MedicationStatement","id":"8e066c5d-9dee-4d74-8c3f-9b297dc27dda","status":"completed","medicationCodeableConcept":{"coding":[{"system":"http://www.nlm.nih.gov/research/umls/rxnorm","code":"3640"}]},"subject":{"reference":"Patient/cdb31512-62e7-4dfb-88d8-3b97fe716d15"},"effectiveDateTime":"2022-11-22T00:00:00+00:00","dosage":[{"doseAndRate":[{"doseQuantity":{"value":1,"unit":"TAB","system":"http://terminology.hl7.org/CodeSystem/v3-orderableDrugForm","code":"TAB"}}]}]},"request":{"method":"POST","url":"MedicationStatement"}},{"fullUrl":"MedicationStatement/328d30f3-d3cc-4c7e-8f46-3f8cb63d9f2e","resource":{"resourceType":"MedicationStatement","id":"328d30f3-d3cc-4c7e-8f46-3f8cb63d9f2e","status":"completed","medicationCodeableConcept":{"coding":[{"system":"http://www.nlm.nih.gov/research/umls/rxnorm","code":"3640"}]},"subject":{"reference":"Patient/cdb31512-62e7-4dfb-88d8-3b97fe716d15"},"effectiveDateTime":"2022-11-27T00:00:00+00:00","dosage":[{"doseAndRate":[{"doseQuantity":{"value":1,"unit":"TAB","system":"http://terminology.hl7.org/CodeSystem/v3-orderableDrugForm","code":"TAB"}}]}]},"request":{"method":"POST","url":"MedicationStatement"}},{"fullUrl":"MedicationStatement/d1d3aebf-391e-48f9-b4ac-4d3441fda0ca","resource":{"resourceType":"MedicationStatement","id":"d1d3aebf-391e-48f9-b4ac-4d3441fda0ca","status":"completed","medicationCodeableConcept":{"coding":[{"system":"http://www.nlm.nih.gov/research/umls/rxnorm","code":"7984"}]},"subject":{"reference":"Patient/cdb31512-62e7-4dfb-88d8-3b97fe716d15"},"effectiveDateTime":"2022-08-01T00:00:00+00:00","dosage":[{"doseAndRate":[{"doseQuantity":{"value":6.2,"unit":"TAB","system":"http://terminology.hl7.org/CodeSystem/v3-orderableDrugForm","code":"TAB"}}]}]},"request":{"method":"POST","url":"MedicationStatement"}},{"fullUrl":"MedicationStatement/baef2d10-209c-4b98-a53a-c0d2fc35fedc","resource":{"resourceType":"MedicationStatement","id":"baef2d10-209c-4b98-a53a-c0d2fc35fedc","status":"completed","medicationCodeableConcept":{"coding":[{"system":"http://www.nlm.nih.gov/research/umls/rxnorm","code":"8698"}]},"subject":{"reference":"Patient/cdb31512-62e7-4dfb-88d8-3b97fe716d15"},"effectiveDateTime":"2022-08-12T00:00:00+00:00","dosage":[{"doseAndRate":[{"doseQuantity":{"value":5.4,"unit":"TAB","system":"http://terminology.hl7.org/CodeSystem/v3-orderableDrugForm","code":"TAB"}}]}]},"request":{"method":"POST","url":"MedicationStatement"}},{"fullUrl":"MedicationStatement/50ed8c16-56f4-4c62-9663-c00dd4334f88","resource":{"resourceType":"MedicationStatement","id":"50ed8c16-56f4-4c62-9663-c00dd4334f88","status":"completed","medicationCodeableConcept":{"coding":[{"system":"http://www.nlm.nih.gov/research/umls/rxnorm","code":"18631"}]},"subject":{"reference":"Patient/cdb31512-62e7-4dfb-88d8-3b97fe716d15"},"effectiveDateTime":"2022-08-31T00:00:00+00:00","dosage":[{"doseAndRate":[{"doseQuantity":{"value":3.3,"unit":"TAB","system":"http://terminology.hl7.org/CodeSystem/v3-orderableDrugForm","code":"TAB"}}]}]},"request":{"method":"POST","url":"MedicationStatement"}},{"fullUrl":"Encounter/87ad6e79-c2e3-4261-b538-3d7ad18ca071","resource":{"resourceType":"Encounter","id":"87ad6e79-c2e3-4261-b538-3d7ad18ca071","status":"finished","class":{"system":"http://terminology.hl7.org/CodeSystem/v3-ActCode","code":"IMP","display":"inpatient encounter"},"type":[{"coding":[{"system":"http://terminology.hl7.org/CodeSystem/encounter-type","code":"BD/BM-clin"}]}],"subject":{"reference":"Patient/cdb31512-62e7-4dfb-88d8-3b97fe716d15"},"period":{"start":"2022-08-09T00:00:00+00:00","end":"2022-08-12T00:00:00+00:00"}},"request":{"method":"POST","url":"Encounter"}},{"fullUrl":"Encounter/3242e8b4-2eb6-4540-b61a-a6c5295f07c1","resource":{"resourceType":"Encounter","id":"3242e8b4-2eb6-4540-b61a-a6c5295f07c1","status":"finished","class":{"system":"http://terminology.hl7.org/CodeSystem/v3-ActCode","code":"IMP","display":"inpatient encounter"},"type":[{"coding":[{"system":"http://terminology.hl7.org/CodeSystem/encounter-type","code":"CCS60"}]}],"subject":{"reference":"Patient/cdb31512-62e7-4dfb-88d8-3b97fe716d15"},"period":{"start":"2022-03-25T00:00:00+00:00","end":"2022-03-30T00:00:00+00:00"}},"request":{"method":"POST","url":"Encounter"}},{"fullUrl":"Encounter/5e157f9e-a7d6-4109-b410-3f5bf3c296ef","resource":{"resourceType":"Encounter","id":"5e157f9e-a7d6-4109-b410-3f5bf3c296ef","status":"finished","class":{"system":"http://terminology.hl7.org/CodeSystem/v3-ActCode","code":"NONAC","display":"inpatient non-acute"},"type":[{"coding":[{"system":"http://terminology.hl7.org/CodeSystem/encounter-type","code":"BD/BM-clin"}]}],"subject":{"reference":"Patient/cdb31512-62e7-4dfb-88d8-3b97fe716d15"},"period":{"start":"2022-12-22T00:00:00+00:00","end":"2022-12-25T00:00:00+00:00"}},"request":{"method":"POST","url":"Encounter"}},{"fullUrl":"Encounter/11a9ff17-cc9f-43a8-b66e-ebde50ba3138","resource":{"resourceType":"Encounter","id":"11a9ff17-cc9f-43a8-b66e-ebde50ba3138","status":"finished","class":{"system":"http://terminology.hl7.org/CodeSystem/v3-ActCode","code":"VR","display":"virtual"},"type":[{"coding":[{"system":"http://terminology.hl7.org/CodeSystem/encounter-type","code":"CCS60"}]}],"subject":{"reference":"Patient/cdb31512-62e7-4dfb-88d8-3b97fe716d15"},"period":{"start":"2022-06-21T00:00:00+00:00","end":"2022-06-23T00:00:00+00:00"}},"request":{"method":"POST","url":"Encounter"}},{"fullUrl":"Encounter/0bc8935c-e4e6-4405-aaa7-382bd8c8c79b","resource":{"resourceType":"Encounter","id":"0bc8935c-e4e6-4405-aaa7-382bd8c8c79b","status":"finished","class":{"system":"http://terminology.hl7.org/CodeSystem/v3-ActCode","code":"VR","display":"virtual"},"type":[{"coding":[{"system":"http://terminology.hl7.org/CodeSystem/encounter-type","code":"BD/BM-clin"}]}],"subject":{"reference":"Patient/cdb31512-62e7-4dfb-88d8-3b97fe716d15"},"period":{"start":"2022-04-20T00:00:00+00:00","end":"2022-04-27T00:00:00+00:00"}},"request":{"method":"POST","url":"Encounter"}},{"fullUrl":"Patient/7d5b8d69-63cb-4c18-ae87-7d792ae01fae","resource":{"resourceType":"Patient","id":"7d5b8d69-63cb-4c18-ae87-7d792ae01fae","identifier":[{"type":{"coding":[{"system":"http://terminology.hl7.org/CodeSystem/v2-0203","code":"MR"}]},"system":"urn:fhirgen:mrn","value":"630-84-6434"}],"name":[{"family":"Hernandez","given":["Anthony"]}],"telecom":[{"system":"phone","value":"191-790-6380x8884","use":"home"}],"gender":"male","birthDate":"1972-12-21","address":[{"line":["443 Rocha Plaza Apt. 855"],"city":"Lauraport","state":"NJ","postalCode":"63536"}]},"request":{"method":"POST","url":"Patient"}},{"fullUrl":"Observation/4ef09c78-acdb-431f-9d19-3ea5be0cb935","resource":{"resourceType":"Observation","id":"4ef09c78-acdb-431f-9d19-3ea5be0cb935","status":"final","code":{"coding":[{"system":"http://loinc.org","code":"22590-4"}]},"subject":{"reference":"Patient/7d5b8d69-63cb-4c18-ae87-7d792ae01fae"},"effectiveDateTime":"2022-07-07T00:00:00+00:00","valueRatio":{"numerator":{"value":1},"denominator":{"value":64}}},"request":{"method":"POST","url":"Observation"}},{"fullUrl":"Observation/03908ac5-e688-4c02-8082-41508ac5e883","resource":{"resourceType":"Observation","id":"03908ac5-e688-4c02-8082-41508ac5e883","status":"final","code":{"coding":[{"system":"http://loinc.org","code":"5394-2"}]},"subject":{"reference":"Patient/7d5b8d69-63cb-4c18-ae87-7d792ae01fae"},"effectiveDateTime":"2022-08-06T00:00:00+00:00","valueRatio":{"numerator":{"value":1},"denominator":{"value":64}}},"request":{"method":"POST","url":"Observation"}},{"fullUrl":"Observation/5147d81b-3f2c-4166-946a-3d3d752760c2","resource":{"resourceType":"Observation","id":"5147d81b-3f2c-4166-946a-3d3d752760c2","status":"final","code":{"coding":[{"system":"http://loinc.org","code":"47476-7"}]},"subject":{"reference":"Patient/7d5b8d69-63cb-4c18-ae87-7d792ae01fae"},"effectiveDateTime":"2022-10-26T00:00:00+00:00","valueRatio":{"numerator":{"value":1},"denominator":{"value":32}}},"request":{"method":"POST","url":"Observation"}},{"fullUrl":"Condition/0d59ae33-f8b8-4e50-a785-4166a1e8e49a","resource":{"resourceType":"Condition","id":"0d59ae33-f8b8-4e50-a785-4166a1e8e49a","code":{"coding":[{"system":"http://snomed.info/sct","code":"30746006"}]},"subject":{"reference":"Patient/7d5b8d69-63cb-4c18-ae87-7d792ae01fae"},"onsetDateTime":"2022-06-23T00:00:00+00:00"},"request":{"method":"POST","url":"Condition"}},{"fullUrl":"Condition/d51f123c-8cc5-4a46-b96a-ae54ed5186d8","resource":{"resourceType":"Condition","id":"d51f123c-8cc5-4a46-b96a-ae54ed5186d8","code":{"coding":[{"system":"http://snomed.info/sct","code":"418290006"}]},"subject":{"reference":"Patient/7d5b8d69-63cb-4c18-ae87-7d792ae01fae"},"onsetDateTime":"2022-10-13T00:00:00+00:00"},"request":{"method":"POST","url":"Condition"}},{"fullUrl":"Condition/40b5a68d-07f8-45dd-9032-6028b5b258aa","resource":{"resourceType":"Condition","id":"40b5a68d-07f8-45dd-9032-6028b5b258aa","code":{"coding":[{"system":"http://snomed.info/sct","code":"297123002"}]},"subject":{"reference":"Patient/7d5b8d69-63cb-4c18-ae87-7d792ae01fae"},"onsetDateTime":"2022-04-06T00:00:00+00:00"},"request":{"method":"POST","url":"Condition"}},{"fullUrl":"Observation/2c3adfb9-8653-46ab-bd2b-22334472e564","resource":{"resourceType":"Observation","id":"2c3adfb9-8653-46ab-bd2b-22334472e564","status":"final","code":{"coding":[{"system":"http://www.ama-assn.org/go/cpt","code":"85048"}]},"subject":{"reference":"Patient/7d5b8d69-63cb-4c18-ae87-7d792ae01fae"},"effectiveDateTime":"2022-02-15T00:00:00+00:00","valueQuantity":{"value":7.2}},"request":{"method":"POST","url":"Observation"}},{"fullUrl":"Observation/00eb7c2e-207a-4507-b8b6-dc5c74a58c0a","resource":{"resourceType":"Observation","id":"00eb7c2e-207a-4507-b8b6-dc5c74a58c0a","status":"final","code":{"coding":[{"system":"http://loinc.org","code":"49498-9"}]},"subject":{"reference":"Patient/7d5b8d69-63cb-4c18-ae87-7d792ae01fae"},"effectiveDateTime":"2022-08-17T00:00:00+00:00","valueQuantity":{"value":7.4}},"request":{"method":"POST","url":"Observation"}},{"fullUrl":"Observation/5d18cfe9-731c-485d-b55b-71bd757cf86e","resource":{"resourceType":"Observation","id":"5d18cfe9-731c-485d-b55b-71bd757cf86e","status":"final","code":{"coding":[{"system":"http://loinc.org","code":"49498-9"}]},"subject":{"reference":"Patient/7d5b8d69-63cb-4c18-ae87-7d792ae01fae"},"effectiveDateTime":"2022-04-23T00:00:00+00:00"},"request":{"method":"POST","url":"Observation"}},{"fullUrl":"Observation/4b8ad4ee-cd8d-471e-9882-eaee1ad842d3","resource":{"resourceType":"Observation","id":"4b8ad4ee-cd8d-471e-9882-eaee1ad842d3","status":"final","code":{"coding":[{"system":"http://loinc.org","code":"49498-9"}]},"subject":{"reference":"Patient/7d5b8d69-63cb-4c18-ae87-7d792ae01fae"},"effectiveDateTime":"2022-12-13T00:00:00+00:00"},"request":{"method":"POST","url":"Observation"}},{"fullUrl":"Procedure/e3fe7bff-7d90-49ce-b2ac-c36ce850b4f7","resource":{"resourceType":"Procedure","id":"e3fe7bff-7d90-49ce-b2ac-c36ce850b4f7","status":"completed","code":{"coding":[{"system":"http://snomed.info/sct","code":"189009"}]},"subject":{"reference":"Patient/7d5b8d69-63cb-4c18-ae87-7d792ae01fae"},"performedDateTime":"2022-12-27T00:00:00+00:00"},"request":{"method":"POST","url":"Procedure"}},{"fullUrl":"Procedure/9bacfe73-f505-4424-b062-003e999547d8","resource":{"resourceType":"Procedure","id":"9bacfe73-f505-4424-b062-003e999547d8","status":"completed","code":{"coding":[{"system":"http://snomed.info/sct","code":"146005"}]},"subject":{"reference":"Patient/7d5b8d69-63cb-4c18-ae87-7d792ae01fae"},"performedDateTime":"2022-10-13T00:00:00+00:00"},"request":{"method":"POST","url":"Procedure"}},{"fullUrl":"Procedure/84bae29f-7b63-43af-b79e-f98ca1ae2d8c","resource":{"resourceType":"Procedure","id":"84bae29f-7b63-43af-b79e-f98ca1ae2d8c","status":"completed","code":{"coding":[{"system":"http://snomed.info/sct","code":"104001"}]},"subject":{"reference":"Patient/7d5b8d69-63cb-4c18-ae87-7d792ae01fae"},"performedDateTime":"2022-03-30T00:00:00+00:00"},"request":{"method":"POST","url":"Procedure"}},{"fullUrl":"MedicationStatement/94a5857e-64ea-4e64-933b-9741b8e9dbd5","resource":{"resourceType":"MedicationStatement","id":"94a5857e-64ea-4e64-933b-9741b8e9dbd5","status":"completed","medicationCodeableConcept":{"coding":[{"system":"http://www.nlm.nih.gov/research/umls/rxnorm","code":"7980"}]},"subject":{"reference":"Patient/7d5b8d69-63cb-4c18-ae87-7d792ae01fae"},"effectiveDateTime":"2022-09-08T00:00:00+00:00","dosage":[{"doseAndRate":[{"doseQuantity":{"value":2,"unit":"TAB","system":"http://terminology.hl7.org/CodeSystem/v3-orderableDrugForm","code":"TAB"}}]}]},"request":{"method":"POST","url":"MedicationStatement"}},{"fullUrl":"MedicationStatement/b2b7b2e1-fff5-456d-9f11-de73cdc21315","resource":{"resourceType":"MedicationStatement","id":"b2b7b2e1-fff5-456d-9f11-de73cdc21315","status":"completed","medicationCodeableConcept":{"coding":[{"system":"http://www.nlm.nih.gov/research/umls/rxnorm","code":"7980"}]},"subject":{"reference":"Patient/7d5b8d69-63cb-4c18-ae87-7d792ae01fae"},"effectiveDateTime":"2022-03-09T00:00:00+00:00","dosage":[{"doseAndRate":[{"doseQuantity":{"value":1,"unit":"TAB","system":"http://terminology.hl7.org/CodeSystem/v3-orderableDrugForm","code":"TAB"}}]}]},"request":{"method":"POST","url":"MedicationStatement"}},{"fullUrl":"MedicationStatement/5d0fcce0-7e38-4b12-a244-88af5dcb5c21","resource":{"resourceType":"MedicationStatement","id":"5d0fcce0-7e38-4b12-a244-88af5dcb5c21","status":"completed","medicationCodeableConcept":{"coding":[{"system":"http://www.nlm.nih.gov/research/umls/rxnorm","code":"7980"}]},"subject":{"reference":"Patient/7d5b8d69-63cb-4c18-ae87-7d792ae01fae"},"effectiveDateTime":"2022-09-28T00:00:00+00:00","dosage":[{"doseAndRate":[{"doseQuantity":{"value":1,"unit":"TAB","system":"http://terminology.hl7.org/CodeSystem/v3-orderableDrugForm","code":"TAB"}}]}]},"request":{"method":"POST","url":"MedicationStatement"}},{"fullUrl":"MedicationStatement/f50d3437-e178-4464-b12b-dd8a4153e33e","resource":{"resourceType":"MedicationStatement","id":"f50d3437-e178-4464-b12b-dd8a4153e33e","status":"completed","medicationCodeableConcept":{"coding":[{"system":"http://www.nlm.nih.gov/research/umls/rxnorm","code":"7984"}]},"subject":{"reference":"Patient/7d5b8d69-63cb-4c18-ae87-7d792ae01fae"},"effectiveDateTime":"2022-11-16T00:00:00+00:00","dosage":[{"doseAndRate":[{"doseQuantity":{"value":1,"unit":"TAB","system":"http://terminology.hl7.org/CodeSystem/v3-orderableDrugForm","code":"TAB"}}]}]},"request":{"method":"POST","url":"MedicationStatement"}},{"fullUrl":"MedicationStatement/4982dc1c-136e-485a-a0f9-ec9e052c0459","resource":{"resourceType":"MedicationStatement","id":"4982dc1c-136e-485a-a0f9-ec9e052c0459","status":"completed","medicationCodeableConcept":{"coding":[{"system":"http://www.nlm.nih.gov/research/umls/rxnorm","code":"2193"}]},"subject":{"reference":"Patient/7d5b8d69-63cb-4c18-ae87-7d792ae01fae"},"effectiveDateTime":"2022-03-19T00:00:00+00:00","dosage":[{"doseAndRate":[{"doseQuantity":{"value":2,"unit":"TAB","system":"http://terminology.hl7.org/CodeSystem/v3-orderableDrugForm","code":"TAB"}}]}]},"request":{"method":"POST","url":"MedicationStatement"}},{"fullUrl":"MedicationStatement/a510337b-2584-4d45-9fa8-cf9a510bf5ce","resource":{"resourceType":"MedicationStatement","id":"a510337b-2584-4d45-9fa8-cf9a510bf5ce","status":"completed","medicationCodeableConcept":{"coding":[{"system":"http://www.nlm.nih.gov/research/umls/rxnorm","code":"8698"}]},"subject":{"reference":"Patient/7d5b8d69-63cb-4c18-ae87-7d792ae01fae"},"effectiveDateTime":"2022-02-26T00:00:00+00:00","dosage":[{"doseAndRate":[{"doseQuantity":{"value":2,"unit":"TAB","system":"http://terminology.hl7.org/CodeSystem/v3-orderableDrugForm","code":"TAB"}}]}]},"request":{"method":"POST","url":"MedicationStatement"}},{"fullUrl":"MedicationStatement/8c859047-b365-4ebf-accf-f353ab9aff14","resource":{"resourceType":"MedicationStatement","id":"8c859047-b365-4ebf-accf-f353ab9aff14","status":"completed","medicationCodeableConcept":{"coding":[{"system":"http://www.nlm.nih.gov/research/umls/rxnorm","code":"8698"}]},"subject":{"reference":"Patient/7d5b8d69-63cb-4c18-ae87-7d792ae01fae"},"effectiveDateTime":"2022-01-31T00:00:00+00:00","dosage":[{"doseAndRate":[{"doseQuantity":{"value":1,"unit":"TAB","system":"http://terminology.hl7.org/CodeSystem/v3-orderableDrugForm","code":"TAB"}}]}]},"request":{"method":"POST","url":"MedicationStatement"}},{"fullUrl":"MedicationStatement/314f54ba-dcfd-427a-9eeb-863e9289f298","resource":{"resourceType":"MedicationStatement","id":"314f54ba-dcfd-427a-9eeb-863e9289f298","status":"completed","medicationCodeableConcept":{"coding":[{"system":"http://www.nlm.nih.gov/research/umls/rxnorm","code":"3640"}]},"subject":{"reference":"Patient/7d5b8d69-63cb-4c18-ae87-7d792ae01fae"},"effectiveDateTime":"2022-10-16T00:00:00+00:00","dosage":[{"doseAndRate":[{"doseQuantity":{"value":2,"unit":"TAB","system":"http://terminology.hl7.org/CodeSystem/v3-orderableDrugForm","code":"TAB"}}]}]},"request":{"method":"POST","url":"MedicationStatement"}},{"fullUrl":"MedicationStatement/e623e80a-1b4e-4a2c-b229-b810076a55b1","resource":{"resourceType":"MedicationStatement","id":"e623e80a-1b4e-4a2c-b229-b810076a55b1","status":"completed","medicationCodeableConcept":{"coding":[{"system":"http://www.nlm.nih.gov/research/umls/rxnorm","code":"10395"}]},"subject":{"reference":"Patient/7d5b8d69-63cb-4c18-ae87-7d792ae01fae"},"effectiveDateTime":"2022-04-23T00:00:00+00:00","dosage":[{"doseAndRate":[{"doseQuantity":{"value":4.9,"unit":"TAB","system":"http://terminology.hl7.org/CodeSystem/v3-orderableDrugForm","code":"TAB"}}]}]},"request":{"method":"POST","url":"MedicationStatement"}},{"fullUrl":"MedicationStatement/c630942b-1a14-4a51-bb83-9fc99ae01e21","resource":{"resourceType":"MedicationStatement","id":"c630942b-1a14-4a51-bb83-9fc99ae01e21","status":"completed","medicationCodeableConcept":{"coding":[{"system":"http://www.nlm.nih.gov/research/umls/rxnorm","code":"7984"}]},"subject":{"reference":"Patient/7d5b8d69-63cb-4c18-ae87-7d792ae01fae"},"effectiveDateTime":"2022-08-13T00:00:00+00:00","dosage":[{"doseAndRate":[{"doseQuantity":{"value":5.9,"unit":"TAB","system":"http://terminology.hl7.org/CodeSystem/v3-orderableDrugForm","code":"TAB"}}]}]},"request":{"method":"POST","url":"MedicationStatement"}},{"fullUrl":"MedicationStatement/03894b6f-2d80-4381-8e66-b1a2509b7eb4","resource":{"resourceType":"MedicationStatement","id":"03894b6f-2d80-4381-8e66-b1a2509b7eb4","status":"completed","medicationCodeableConcept":{"coding":[{"system":"http://www.nlm.nih.gov/research/umls/rxnorm","code":"10395"}]},"subject":{"reference":"Patient/7d5b8d69-63cb-4c18-ae87-7d792ae01fae"},"effectiveDateTime":"2022-05-06T00:00:00+00:00","dosage":[{"doseAndRate":[{"doseQuantity":{"value":6.8,"unit":"TAB","system":"http://terminology.hl7.org/CodeSystem/v3-orderableDrugForm","code":"TAB"}}]}]},"request":{"method":"POST","url":"MedicationStatement"}},{"fullUrl":"Encounter/4b61d279-8c1a-4185-82c6-c7de2949b42d","resource":{"resourceType":"Encounter","id":"4b61d279-8c1a-4185-82c6-c7de2949b42d","status":"finished","class":{"system":"http://terminology.hl7.org/CodeSystem/v3-ActCode","code":"IMP","display":"inpatient encounter"},"type":[{"coding":[{"system":"http://terminology.hl7.org/CodeSystem/encounter-type","code":"ADMS"}]}],"subject":{"reference":"Patient/7d5b8d69-63cb-4c18-ae87-7d792ae01fae"},"period":{"start":"2022-09-17T00:00:00+00:00","end":"2022-09-25T00:00:00+00:00"}},"request":{"method":"POST","url":"Encounter"}},{"fullUrl":"Encounter/d0d97c07-49c8-4251-af42-84bb07eafd2d","resource":{"resourceType":"Encounter","id":"d0d97c07-49c8-4251-af42-84bb07eafd2d","status":"finished","class":{"system":"http://terminology.hl7.org/CodeSystem/v3-ActCode","code":"IMP","display":"inpatient encounter"},"type":[{"coding":[{"system":"http://terminology.hl7.org/CodeSystem/encounter-type","code":"BD/BM-clin"}]}],"subject":{"reference":"Patient/7d5b8d69-63cb-4c18-ae87-7d792ae01fae"},"period":{"start":"2022-04-03T00:00:00+00:00","end":"2022-04-08T00:00:00+00:00"}},"request":{"method":"POST","url":"Encounter"}},{"fullUrl":"Encounter/4502bf7a-1f01-46c2-b964-0dacfac43083","resource":{"resourceType":"Encounter","id":"4502bf7a-1f01-46c2-b964-0dacfac43083","status":"finished","class":{"system":"http://terminology.hl7.org/CodeSystem/v3-ActCode","code":"IMP","display":"inpatient encounter"},"type":[{"coding":[{"system":"http://terminology.hl7.org/CodeSystem/encounter-type","code":"CCS60"}]}],"subject":{"reference":"Patient/7d5b8d69-63cb-4c18-ae87-7d792ae01fae"},"period":{"start":"2022-01-19T00:00:00+00:00","end":"2022-01-23T00:00:00+00:00"}},"request":{"method":"POST","url":"Encounter"}},{"fullUrl":"Encounter/9295ae6f-f45d-4f84-a95c-46cc84e65302","resource":{"resourceType":"Encounter","id":"9295ae6f-f45d-4f84-a95c-46cc84e65302","status":"finished","class":{"system":"http://terminology.hl7.org/CodeSystem/v3-ActCode","code":"AMB","display":"ambulatory"},"type":[{"coding":[{"system":"http://terminology.hl7.org/CodeSystem/encounter-type","code":"ADMS"}]}],"subject":{"reference":"Patient/7d5b8d69-63cb-4c18-ae87-7d792ae01fae"},"period":{"start":"2022-02-26T00:00:00+00:00","end":"2022-02-28T00:00:00+00:00"}},"request":{"method":"POST","url":"Encounter"}},{"fullUrl":"Encounter/611c3b0a-b5d5-465a-a8e7-1301db86dfb6","resource":{"resourceType":"Encounter","id":"611c3b0a-b5d5-465a-a8e7-1301db86dfb6","status":"finished","class":{"system":"http://terminology.hl7.org/CodeSystem/v3-ActCode","code":"FLD","display":"field"},"type":[{"coding":[{"system":"http://terminology.hl7.org/CodeSystem/encounter-type","code":"BD/BM-clin"}]}],"subject":{"reference":"Patient/7d5b8d69-63cb-4c18-ae87-7d792ae01fae"},"period":{"start":"2022-06-29T00:00:00+00:00","end":"2022-07-03T00:00:00+00:00"}},"request":{"method":"POST","url":"Encounter"}},{"fullUrl":"Encounter/5eee3e62-fe65-4caa-b0d0-ed6f4bf65a71","resource":{"resourceType":"Encounter","id":"5eee3e62-fe65-4caa-b0d0-ed6f4bf65a71","status":"finished","class":{"system":"http://terminology.hl7.org/CodeSystem/v3-ActCode","code":"NONAC","display":"inpatient non-acute"},"type":[{"coding":[{"system":"http://terminology.hl7.org/CodeSystem/encounter-type","code":"BD/BM-clin"}]}],"subject":{"reference":"Patient/7d5b8d69-63cb-4c18-ae87-7d792ae01fae"},"period":{"start":"2022-03-30T00:00:00+00:00","end":"2022-03-30T00:00:00+00:00"}},"request":{"method":"POST","url":"Encounter"}},{"fullUrl":"Patient/11faa2a2-6a34-476d-b193-24a60543d065","resource":{"resourceType":"Patient","id":"11faa2a2-6a34-476d-b193-24a60543d065","identifier":[{"type":{"coding":[{"system":"http://terminology.hl7.org/CodeSystem/v2-0203","code":"MR"}]},"system":"urn:fhirgen:mrn","value":"761-98-2713"}],"name":[{"family":"Fernandez","given":["Kathryn"]}],"telecom":[{"system":"phone","value":"323-593-2738x23992","use":"home"}],"gender":"female","birthDate":"1990-01-22","address":[{"line":["84781 Richard Forest"],"city":"Nathanielburgh","state":"CO","postalCode":"71028"}]},"request":{"method":"POST","url":"Patient"}},{"fullUrl":"Observation/a0955e0f-8451-403a-a4ac-ea2dfc33836b","resource":{"resourceType":"Observation","id":"a0955e0f-8451-403a-a4ac-ea2dfc33836b","status":"final","code":{"coding":[{"system":"http://loinc.org","code":"26009-1"}]},"subject":{"reference":"Patient/11faa2a2-6a34-476d-b193-24a60543d065"},"effectiveDateTime":"2022-04-15T00:00:00+00:00","valueRatio":{"numerator":{"value":1},"denominator":{"value":32}}},"request":{"method":"POST","url":"Observation"}},{"fullUrl":"Observation/f1056236-04ec-4d00-ac9d-514e84d695fa","resource":{"resourceType":"Observation","id":"f1056236-04ec-4d00-ac9d-514e84d695fa","status":"final","code":{"coding":[{"system":"http://loinc.org","code":"5394-2"}]},"subject":{"reference":"Patient/11faa2a2-6a34-476d-b193-24a60543d065"},"effectiveDateTime":"2022-06-12T00:00:00+00:00","valueRatio":{"numerator":{"value":1},"denominator":{"value":4}}},"request":{"method":"POST","url":"Observation"}},{"fullUrl":"Observation/8cf22f96-a703-4037-b8cd-2cc6e09127af","resource":{"resourceType":"Observation","id":"8cf22f96-a703-4037-b8cd-2cc6e09127af","status":"final","code":{"coding":[{"system":"http://loinc.org","code":"26009-1"}]},"subject":{"reference":"Patient/11faa2a2-6a34-476d-b193-24a60543d065"},"effectiveDateTime":"2022-07-13T00:00:00+00:00","valueRatio":{"numerator":{"value":1},"denominator":{"value":64}}},"request":{"method":"POST","url":"Observation"}},{"fullUrl":"Condition/f92a7b80-561c-4f8e-ac8b-3a7c235b1706","resource":{"resourceType":"Condition","id":"f92a7b80-561c-4f8e-ac8b-3a7c235b1706","code":{"coding":[{"system":"http://snomed.info/sct","code":"91554004"}]},"subject":{"reference":"Patient/11faa2a2-6a34-476d-b193-24a60543d065"},"onsetDateTime":"2022-05-02T00:00:00+00:00"},"request":{"method":"POST","url":"Condition"}},{"fullUrl":"Condition/9d90f221-9c96-4ade-a0ab-84c3bfb6d671","resource":{"resourceType":"Condition","id":"9d90f221-9c96-4ade-a0ab-84c3bfb6d671","code":{"coding":[{"system":"http://snomed.info/sct","code":"271807003"}]},"subject":{"reference":"Patient/11faa2a2-6a34-476d-b193-24a60543d065"},"onsetDateTime":"2022-03-19T00:00:00+00:00"},"request":{"method":"POST","url":"Condition"}},{"fullUrl":"Condition/bc8c42ec-ae75-4b56-b70f-d24fc3a1d17f","resource":{"resourceType":"Condition","id":"bc8c42ec-ae75-4b56-b70f-d24fc3a1d17f","code":{"coding":[{"system":"http://snomed.info/sct","code":"30746006"}]},"subject":{"reference":"Patient/11faa2a2-6a34-476d-b193-24a60543d065"},"onsetDateTime":"2022-12-11T00:00:00+00:00"},"request":{"method":"POST","url":"Condition"}},{"fullUrl":"Condition/cc78eb1c-0db5-4918-af8e-b530738ba7ec","resource":{"resourceType":"Condition","id":"cc78eb1c-0db5-4918-af8e-b530738ba7ec","code":{"coding":[{"system":"http://snomed.info/sct","code":"79342006"}]},"subject":{"reference":"Patient/11faa2a2-6a34-476d-b193-24a60543d065"},"onsetDateTime":"2022-08-09T00:00:00+00:00"},"request":{"method":"POST","url":"Condition"}},{"fullUrl":"Condition/f99e9683-5c9d-4701-a94a-123467baeb9d","resource":{"resourceType":"Condition","id":"f99e9683-5c9d-4701-a94a-123467baeb9d","code":{"coding":[{"system":"http://snomed.info/sct","code":"3951002"}]},"subject":{"reference":"Patient/11faa2a2-6a34-476d-b193-24a60543d065"},"onsetDateTime":"2022-11-02T00:00:00+00:00"},"request":{"method":"POST","url":"Condition"}},{"fullUrl":"Condition/2f32a037-a4eb-4b4e-9a29-0870fd6ce236","resource":{"resourceType":"Condition","id":"2f32a037-a4eb-4b4e-9a29-0870fd6ce236","code":{"coding":[{"system":"http://snomed.info/sct","code":"405737000"}]},"subject":{"reference":"Patient/11faa2a2-6a34-476d-b193-24a60543d065"},"onsetDateTime":"2022-02-22T00:00:00+00:00"},"request":{"method":"POST","url":"Condition"}},{"fullUrl":"Condition/111b08cb-a40a-4663-9a10-c7f3eeba5524","resource":{"resourceType":"Condition","id":"111b08cb-a40a-4663-9a10-c7f3eeba5524","code":{"coding":[{"system":"http://snomed.info/sct","code":"30746006"}]},"subject":{"reference":"Patient/11faa2a2-6a34-476d-b193-24a60543d065"},"onsetDateTime":"2022-12-05T00:00:00+00:00"},"request":{"method":"POST","url":"Condition"}},{"fullUrl":"Observation/21a923ad-6f9e-4c64-a1d5-d6618660034f","resource":{"resourceType":"Observation","id":"21a923ad-6f9e-4c64-a1d5-d6618660034f","status":"final","code":{"coding":[{"system":"http://loinc.org","code":"49498-9"}]},"subject":{"reference":"Patient/11faa2a2-6a34-476d-b193-24a60543d065"},"effectiveDateTime":"2022-06-26T00:00:00+00:00","valueQuantity":{"value":5.2}},"request":{"method":"POST","url":"Observation"}},{"fullUrl":"Observation/72731986-e6af-4781-96b8-153fc1e8f6a7","resource":{"resourceType":"Observation","id":"72731986-e6af-4781-96b8-153fc1e8f6a7","status":"final","code":{"coding":[{"system":"http://www.ama-assn.org/go/cpt","code":"85048"}]},"subject":{"reference":"Patient/11faa2a2-6a34-476d-b193-24a60543d065"},"effectiveDateTime":"2022-01-11T00:00:00+00:00","valueQuantity":{"value":9.5}},"request":{"method":"POST","url":"Observation"}},{"fullUrl":"Observation/ee8bb9f3-d393-430b-b20c-58d07bc09e11","resource":{"resourceType":"Observation","id":"ee8bb9f3-d393-430b-b20c-58d07bc09e11","status":"final","code":{"coding":[{"system":"http://loinc.org","code":"49498-9"}]},"subject":{"reference":"Patient/11faa2a2-6a34-476d-b193-24a60543d065"},"effectiveDateTime":"2022-07-23T00:00:00+00:00","valueQuantity":{"value":6.4}},"request":{"method":"POST","url":"Observation"}},{"fullUrl":"Observation/99dd75fb-4f2d-45bc-98f0-0f3a0d26c383","resource":{"resourceType":"Observation","id":"99dd75fb-4f2d-45bc-98f0-0f3a0d26c383","status":"final","code":{"coding":[{"system":"http://loinc.org","code":"49498-9"}]},"subject":{"reference":"Patient/11faa2a2-6a34-476d-b193-24a60543d065"},"effectiveDateTime":"2022-07-14T00:00:00+00:00"},"request":{"method":"POST","url":"Observation"}},{"fullUrl":"Observation/6a6e1785-cb96-4460-a0bc-caeed799bf51","resource":{"resourceType":"Observation","id":"6a6e1785-cb96-4460-a0bc-caeed799bf51","status":"final","code":{"coding":[{"system":"http://loinc.org","code":"49498-9"}]},"subject":{"reference":"Patient/11faa2a2-6a34-476d-b193-24a60543d065"},"effectiveDateTime":"2022-04-18T00:00:00+00:00"},"request":{"method":"POST","url":"Observation"}},{"fullUrl":"Observation/ee8acd8d-a855-4ebb-b189-6bdbeecf7d9f","resource":{"resourceType":"Observation","id":"ee8acd8d-a855-4ebb-b189-6bdbeecf7d9f","status":"final","code":{"coding":[{"system":"http://loinc.org","code":"49498-9"}]},"subject":{"reference":"Patient/11faa2a2-6a34-476d-b193-24a60543d065"},"effectiveDateTime":"2022-04-01T00:00:00+00:00"},"request":{"method":"POST","url":"Observation"}},{"fullUrl":"Procedure/ede4bbf6-37cf-4ff7-9acc-5ec65b436891","resource":{"resourceType":"Procedure","id":"ede4bbf6-37cf-4ff7-9acc-5ec65b436891","status":"completed","code":{"coding":[{"system":"http://snomed.info/sct","code":"104001"}]},"subject":{"reference":"Patient/11faa2a2-6a34-476d-b193-24a60543d065"},"performedDateTime":"2022-04-22T00:00:00+00:00"},"request":{"method":"POST","url":"Procedure"}},{"fullUrl":"Procedure/556501f0-68e5-489c-93af-200592097c86","resource":{"resourceType":"Procedure","id":"556501f0-68e5-489c-93af-200592097c86","status":"completed","code":{"coding":[{"system":"http://snomed.info/sct","code":"146005"}]},"subject":{"reference":"Patient/11faa2a2-6a34-476d-b193-24a60543d065"},"performedDateTime":"2022-06-03T00:00:00+00:00"},"request":{"method":"POST","url":"Procedure"}},{"fullUrl":"Procedure/9cb0fcf3-1ad7-4c53-b6a5-d8f04fc96cbf","resource":{"resourceType":"Procedure","id":"9cb0fcf3-1ad7-4c53-b6a5-d8f04fc96cbf","status":"completed","code":{"coding":[{"system":"http://snomed.info/sct","code":"146005"}]},"subject":{"reference":"Patient/11faa2a2-6a34-476d-b193-24a60543d065"},"performedDateTime":"2022-04-11T00:00:00+00:00"},"request":{"method":"POST","url":"Procedure"}},{"fullUrl":"MedicationStatement/6c96e1c0-1d08-40c6-96de-5ddeda1e2370","resource":{"resourceType":"MedicationStatement","id":"6c96e1c0-1d08-40c6-96de-5ddeda1e2370","status":"completed","medicationCodeableConcept":{"coding":[{"system":"http://www.nlm.nih.gov/research/umls/rxnorm","code":"10395"}]},"subject":{"reference":"Patient/11faa2a2-6a34-476d-b193-24a60543d065"},"effectiveDateTime":"2022-07-20T00:00:00+00:00","dosage":[{"doseAndRate":[{"doseQuantity":{"value":1,"unit":"TAB","system":"http://terminology.hl7.org/CodeSystem/v3-orderableDrugForm","code":"TAB"}}]}]},"request":{"method":"POST","url":"MedicationStatement"}},{"fullUrl":"MedicationStatement/b2842583-a220-4b8f-ba12-f54ccd1b66b5","resource":{"resourceType":"MedicationStatement","id":"b2842583-a220-4b8f-ba12-f54ccd1b66b5","status":"completed","medicationCodeableConcept":{"coding":[{"system":"http://www.nlm.nih.gov/research/umls/rxnorm","code":"2193"}]},"subject":{"reference":"Patient/11faa2a2-6a34-476d-b193-24a60543d065"},"effectiveDateTime":"2022-04-09T00:00:00+00:00","dosage":[{"doseAndRate":[{"doseQuantity":{"value":1,"unit":"TAB","system":"http://terminology.hl7.org/CodeSystem/v3-orderableDrugForm","code":"TAB"}}]}]},"request":{"method":"POST","url":"MedicationStatement"}},{"fullUrl":"MedicationStatement/c9498b03-3944-4022-b8a0-940312497096","resource":{"resourceType":"MedicationStatement","id":"c9498b03-3944-4022-b8a0-940312497096","status":"completed","medicationCodeableConcept":{"coding":[{"system":"http://www.nlm.nih.gov/research/umls/rxnorm","code":"3640"}]},"subject":{"reference":"Patient/11faa2a2-6a34-476d-b193-24a60543d065"},"effectiveDateTime":"2022-10-11T00:00:00+00:00","dosage":[{"doseAndRate":[{"doseQuantity":{"value":5.7,"unit":"TAB","system":"http://terminology.hl7.org/CodeSystem/v3-orderableDrugForm","code":"TAB"}}]}]},"request":{"method":"POST","url":"MedicationStatement"}},{"fullUrl":"MedicationStatement/7313067c-93b0-4183-b14b-a4c77ffc53be","resource":{"resourceType":"MedicationStatement","id":"7313067c-93b0-4183-b14b-a4c77ffc53be","status":"completed","medicationCodeableConcept":{"coding":[{"system":"http://www.nlm.nih.gov/research/umls/rxnorm","code":"8698"}]},"subject":{"reference":"Patient/11faa2a2-6a34-476d-b193-24a60543d065"},"effectiveDateTime":"2022-01-21T00:00:00+00:00","dosage":[{"doseAndRate":[{"doseQuantity":{"value":6.4,"unit":"TAB","system":"http://terminology.hl7.org/CodeSystem/v3-orderableDrugForm","code":"TAB"}}]}]},"request":{"method":"POST","url":"MedicationStatement"}},{"fullUrl":"MedicationStatement/3c3de43d-edaf-4d64-b9d0-5090a1be864e","resource":{"resourceType":"MedicationStatement","id":"3c3de43d-edaf-4d64-b9d0-5090a1be864e","status":"completed","medicationCodeableConcept":{"coding":[{"system":"http://www.nlm.nih.gov/research/umls/rxnorm","code":"2193"}]},"subject":{"reference":"Patient/11faa2a2-6a34-476d-b193-24a60543d065"},"effectiveDateTime":"2022-03-29T00:00:00+00:00","dosage":[{"doseAndRate":[{"doseQuantity":{"value":5,"unit":"TAB","system":"http://terminology.hl7.org/CodeSystem/v3-orderableDrugForm","code":"TAB"}}]}]},"request":{"method":"POST","url":"MedicationStatement"}},{"fullUrl":"MedicationStatement/040450d6-7c41-4689-b357-c776f5e6f66c","resource":{"resourceType":"MedicationStatement","id":"040450d6-7c41-4689-b357-c776f5e6f66c","status":"completed","medicationCodeableConcept":{"coding":[{"system":"http://www.nlm.nih.gov/research/umls/rxnorm","code":"8698"}]},"subject":{"reference":"Patient/11faa2a2-6a34-476d-b193-24a60543d065"},"effectiveDateTime":"2022-01-01T00:00:00+00:00","dosage":[{"doseAndRate":[{"doseQuantity":{"value":6,"unit":"TAB","system":"http://terminology.hl7.org/CodeSystem/v3-orderableDrugForm","code":"TAB"}}]}]},"request":{"method":"POST","url":"MedicationStatement"}},{"fullUrl":"MedicationStatement/cd04a1a5-843b-4f30-92b5-d0fe52a20b7c","resource":{"resourceType":"MedicationStatement","id":"cd04a1a5-843b-4f30-92b5-d0fe52a20b7c","status":"completed","medicationCodeableConcept":{"coding":[{"system":"http://www.nlm.nih.gov/research/umls/rxnorm","code":"7980"}]},"subject":{"reference":"Patient/11faa2a2-6a34-476d-b193-24a60543d065"},"effectiveDateTime":"2022-07-13T00:00:00+00:00","dosage":[{"doseAndRate":[{"doseQuantity":{"value":3.8,"unit":"TAB","system":"http://terminology.hl7.org/CodeSystem/v3-orderableDrugForm","code":"TAB"}}]}]},"request":{"method":"POST","url":"MedicationStatement"}},{"fullUrl":"MedicationStatement/278df0c9-f926-4cfa-89f8-424d94b99a5d","resource":{"resourceType":"MedicationStatement","id":"278df0c9-f926-4cfa-89f8-424d94b99a5d","status":"completed","medicationCodeableConcept":{"coding":[{"system":"http://www.nlm.nih.gov/research/umls/rxnorm","code":"7984"}]},"subject":{"reference":"Patient/11faa2a2-6a34-476d-b193-24a60543d065"},"effectiveDateTime":"2022-03-19T00:00:00+00:00","dosage":[{"doseAndRate":[{"doseQuantity":{"value":3.4,"unit":"TAB","system":"http://terminology.hl7.org/CodeSystem/v3-orderableDrugForm","code":"TAB"}}]}]},"request":{"method":"POST","url":"MedicationStatement"}},{"fullUrl":"Encounter/0e4481da-44d9-42bd-927c-9ea8fcf27884","resource":{"resourceType":"Encounter","id":"0e4481da-44d9-42bd-927c-9ea8fcf27884","status":"finished","class":{"system":"http://terminology.hl7.org/CodeSystem/v3-ActCode","code":"IMP","display":"inpatient encounter"},"type":[{"coding":[{"system":"http://terminology.hl7.org/CodeSystem/encounter-type","code":"BD/BM-clin"}]}],"subject":{"reference":"Patient/11faa2a2-6a34-476d-b193-24a60543d065"},"period":{"start":"2022-07-03T00:00:00+00:00","end":"2022-07-06T00:00:00+00:00"}},"request":{"method":"POST","url":"Encounter"}},{"fullUrl":"Encounter/d44aac51-c1dc-4cf9-9837-9e67949ca53b","resource":{"resourceType":"Encounter","id":"d44aac51-c1dc-4cf9-9837-9e67949ca53b","status":"finished","class":{"system":"http://terminology.hl7.org/CodeSystem/v3-ActCode","code":"IMP","display":"inpatient encounter"},"type":[{"coding":[{"system":"http://terminology.hl7.org/CodeSystem/encounter-type","code":"CCS60"}]}],"subject":{"reference":"Patient/11faa2a2-6a34-476d-b193-24a60543d065"},"period":{"start":"2022-04-24T00:00:00+00:00","end":"2022-04-24T00:00:00+00:00"}},"request":{"method":"POST","url":"Encounter"}},{"fullUrl":"Encounter/2ace4cce-5f1b-475e-9993-ede2cd8998c0","resource":{"resourceType":"Encounter","id":"2ace4cce-5f1b-475e-9993-ede2cd8998c0","status":"finished","class":{"system":"http://terminology.hl7.org/CodeSystem/v3-ActCode","code":"IMP","display":"inpatient encounter"},"type":[{"coding":[{"system":"http://terminology.hl7.org/CodeSystem/encounter-type","code":"ADMS"}]}],"subject":{"reference":"Patient/11faa2a2-6a34-476d-b193-24a60543d065"},"period":{"start":"2022-01-13T00:00:00+00:00","end":"2022-01-21T00:00:00+00:00"}},"request":{"method":"POST","url":"Encounter"}},{"fullUrl":"Encounter/c6353bf8-1672-427b-bf48-7bbe6526f7db","resource":{"resourceType":"Encounter","id":"c6353bf8-1672-427b-bf48-7bbe6526f7db","status":"finished","class":{"system":"http://terminology.hl7.org/CodeSystem/v3-ActCode","code":"HH","display":"home health"},"type":[{"coding":[{"system":"http://terminology.hl7.org/CodeSystem/encounter-type","code":"CCS60"}]}],"subject":{"reference":"Patient/11faa2a2-6a34-476d-b193-24a60543d065"},"period":{"start":"2022-05-23T00:00:00+00:00","end":"2022-05-23T00:00:00+00:00"}},"request":{"method":"POST","url":"Encounter"}},{"fullUrl":"Encounter/da3f3a5e-57d9-45cf-a196-1b3f3f1475d3","resource":{"resourceType":"Encounter","id":"da3f3a5e-57d9-45cf-a196-1b3f3f1475d3","status":"finished","class":{"system":"http://terminology.hl7.org/CodeSystem/v3-ActCode","code":"SS","display":"short-stay"},"type":[{"coding":[{"system":"http://terminology.hl7.org/CodeSystem/encounter-type","code":"CCS60"}]}],"subject":{"reference":"Patient/11faa2a2-6a34-476d-b193-24a60543d065"},"period":{"start":"2022-02-12T00:00:00+00:00","end":"2022-02-18T00:00:00+00:00"}},"request":{"method":"POST","url":"Encounter"}},{"fullUrl":"Patient/805cc5fc-9326-45f9-a3a3-d047972a48ab","resource":{"resourceType":"Patient","id":"805cc5fc-9326-45f9-a3a3-d047972a48ab","identifier":[{"type":{"coding":[{"system":"http://terminology.hl7.org/CodeSystem/v2-0203","code":"MR"}]},"system":"urn:fhirgen:mrn","value":"173-04-8067"}],"name":[{"family":"Dean","given":["Donna"]}],"telecom":[{"system":"phone","value":"001-758-061-8723","use":"home"}],"gender":"female","birthDate":"2000-08-13","address":[{"line":["20336 Johnson Shores"],"city":"North Sean","state":"ME","postalCode":"52745"}]},"request":{"method":"POST","url":"Patient"}},{"fullUrl":"Observation/26298b27-88c8-4040-ac6d-2b7ebae17a30","resource":{"resourceType":"Observation","id":"26298b27-88c8-4040-ac6d-2b7ebae17a30","status":"final","code":{"coding":[{"system":"http://loinc.org","code":"34382-2"}]},"subject":{"reference":"Patient/805cc5fc-9326-45f9-a3a3-d047972a48ab"},"effectiveDateTime":"2022-09-27T00:00:00+00:00","valueRatio":{"numerator":{"value":1},"denominator":{"value":32}}},"request":{"method":"POST","url":"Observation"}},{"fullUrl":"Observation/e205ec20-8d6c-4a49-83ea-18bde742a8e3","resource":{"resourceType":"Observation","id":"e205ec20-8d6c-4a49-83ea-18bde742a8e3","status":"final","code":{"coding":[{"system":"http://loinc.org","code":"31146-4"}]},"subject":{"reference":"Patient/805cc5fc-9326-45f9-a3a3-d047972a48ab"},"effectiveDateTime":"2022-07-13T00:00:00+00:00","valueRatio":{"numerator":{"value":1},"denominator":{"value":32}}},"request":{"method":"POST","url":"Observation"}},{"fullUrl":"Condition/fab2ab4c-f793-48ee-bd14-78d977a759ea","resource":{"resourceType":"Condition","id":"fab2ab4c-f793-48ee-bd14-78d977a759ea","code":{"coding":[{"system":"http://snomed.info/sct","code":"248980004"}]},"subject":{"reference":"Patient/805cc5fc-9326-45f9-a3a3-d047972a48ab"},"onsetDateTime":"2022-03-31T00:00:00+00:00"},"request":{"method":"POST","url":"Condition"}},{"fullUrl":"Condition/2a433785-1fe9-4de2-9e5b-3fde3ffb3898","resource":{"resourceType":"Condition","id":"2a433785-1fe9-4de2-9e5b-3fde3ffb3898","code":{"coding":[{"system":"http://snomed.info/sct","code":"405737000"}]},"subject":{"reference":"Patient/805cc5fc-9326-45f9-a3a3-d047972a48ab"},"onsetDateTime":"2022-10-11T00:00:00+00:00"},"request":{"method":"POST","url":"Condition"}},{"fullUrl":"Condition/64c8c639-6e20-47d7-b561-563ac1ba8e45","resource":{"resourceType":"Condition","id":"64c8c639-6e20-47d7-b561-563ac1ba8e45","code":{"coding":[{"system":"http://snomed.info/sct","code":"405737000"}]},"subject":{"reference":"Patient/805cc5fc-9326-45f9-a3a3-d047972a48ab"},"onsetDateTime":"2022-08-30T00:00:00+00:00"},"request":{"method":"POST","url":"Condition"}},{"fullUrl":"Condition/46e44df8-33d9-4b59-bb98-34b7fbfb8fa6","resource":{"resourceType":"Condition","id":"46e44df8-33d9-4b59-bb98-34b7fbfb8fa6","code":{"coding":[{"system":"http://snomed.info/sct","code":"21522001"}]},"subject":{"reference":"Patient/805cc5fc-9326-45f9-a3a3-d047972a48ab"},"onsetDateTime":"2022-07-14T00:00:00+00:00"},"request":{"method":"POST","url":"Condition"}},{"fullUrl":"Condition/ba540987-7345-4995-a465-f7d5aa9500c9","resource":{"resourceType":"Condition","id":"ba540987-7345-4995-a465-f7d5aa9500c9","code":{"coding":[{"system":"http://snomed.info/sct","code":"18165001"}]},"subject":{"reference":"Patient/805cc5fc-9326-45f9-a3a3-d047972a48ab"},"onsetDateTime":"2022-08-22T00:00:00+00:00"},"request":{"method":"POST","url":"Condition"}},{"fullUrl":"Observation/61d32db4-89d9-4bce-ad31-83881177abda","resource":{"resourceType":"Observation","id":"61d32db4-89d9-4bce-ad31-83881177abda","status":"final","code":{"coding":[{"system":"http://loinc.org","code":"49498-9"}]},"subject":{"reference":"Patient/805cc5fc-9326-45f9-a3a3-d047972a48ab"},"effectiveDateTime":"2022-01-30T00:00:00+00:00","valueQuantity":{"value":7.9}},"request":{"method":"POST","url":"Observation"}},{"fullUrl":"Observation/f3add33d-8eea-4862-8266-cd78be6b8a98","resource":{"resourceType":"Observation","id":"f3add33d-8eea-4862-8266-cd78be6b8a98","status":"final","code":{"coding":[{"system":"http://loinc.org","code":"26464-8"}]},"subject":{"reference":"Patient/805cc5fc-9326-45f9-a3a3-d047972a48ab"},"effectiveDateTime":"2022-01-26T00:00:00+00:00","valueQuantity":{"value":9.6}},"request":{"method":"POST","url":"Observation"}},{"fullUrl":"Observation/dec6689c-9e9c-4d4e-ae2f-ace0d99e24d3","resource":{"resourceType":"Observation","id":"dec6689c-9e9c-4d4e-ae2f-ace0d99e24d3","status":"final","code":{"coding":[{"system":"http://loinc.org","code":"26464-8"}]},"subject":{"reference":"Patient/805cc5fc-9326-45f9-a3a3-d047972a48ab"},"effectiveDateTime":"2022-01-09T00:00:00+00:00","valueQuantity":{"value":6.5}},"request":{"method":"POST","url":"Observation"}},{"fullUrl":"Observation/f40af00b-767e-468a-a68b-5c4dd596e6f3","resource":{"resourceType":"Observation","id":"f40af00b-767e-468a-a68b-5c4dd596e6f3","status":"final","code":{"coding":[{"system":"http://loinc.org","code":"49498-9"}]},"subject":{"reference":"Patient/805cc5fc-9326-45f9-a3a3-d047972a48ab"},"effectiveDateTime":"2022-04-19T00:00:00+00:00"},"request":{"method":"POST","url":"Observation"}},{"fullUrl":"Observation/2f8891ac-d69a-4ffc-800a-0b59fc664a7e","resource":{"resourceType":"Observation","id":"2f8891ac-d69a-4ffc-800a-0b59fc664a7e","status":"final","code":{"coding":[{"system":"http://loinc.org","code":"49498-9"}]},"subject":{"reference":"Patient/805cc5fc-9326-45f9-a3a3-d047972a48ab"},"effectiveDateTime":"2022-09-14T00:00:00+00:00"},"request":{"method":"POST","url":"Observation"}},{"fullUrl":"Procedure/d30861d8-1817-4f69-813f-5fd11d3c6660","resource":{"resourceType":"Procedure","id":"d30861d8-1817-4f69-813f-5fd11d3c6660","status":"completed","code":{"coding":[{"system":"http://snomed.info/sct","code":"115006"}]},"subject":{"reference":"Patient/805cc5fc-9326-45f9-a3a3-d047972a48ab"},"performedDateTime":"2022-01-27T00:00:00+00:00"},"request":{"method":"POST","url":"Procedure"}},{"fullUrl":"Procedure/7fe2290a-63fc-4905-abd4-8304009d4150","resource":{"resourceType":"Procedure","id":"7fe2290a-63fc-4905-abd4-8304009d4150","status":"completed","code":{"coding":[{"system":"http://snomed.info/sct","code":"146005"}]},"subject":{"reference":"Patient/805cc5fc-9326-45f9-a3a3-d047972a48ab"},"performedDateTime":"2022-10-10T00:00:00+00:00"},"request":{"method":"POST","url":"Procedure"}},{"fullUrl":"Procedure/3a3063c2-9281-4491-a8ad-0ce717126c73","resource":{"resourceType":"Procedure","id":"3a3063c2-9281-4491-a8ad-0ce717126c73","status":"completed","code":{"coding":[{"system":"http://snomed.info/sct","code":"146005"}]},"subject":{"reference":"Patient/805cc5fc-9326-45f9-a3a3-d047972a48ab"},"performedDateTime":"2022-01-11T00:00:00+00:00"},"request":{"method":"POST","url":"Procedure"}},{"fullUrl":"MedicationStatement/37ae4744-b40c-4e2a-9668-e248f207b654","resource":{"resourceType":"MedicationStatement","id":"37ae4744-b40c-4e2a-9668-e248f207b654","status":"completed","medicationCodeableConcept":{"coding":[{"system":"http://www.nlm.nih.gov/research/umls/rxnorm","code":"8698"}]},"subject":{"reference":"Patient/805cc5fc-9326-45f9-a3a3-d047972a48ab"},"effectiveDateTime":"2022-02-26T00:00:00+00:00","dosage":[{"doseAndRate":[{"doseQuantity":{"value":1,"unit":"TAB","system":"http://terminology.hl7.org/CodeSystem/v3-orderableDrugForm","code":"TAB"}}]}]},"request":{"method":"POST","url":"MedicationStatement"}},{"fullUrl":"MedicationStatement/6a429b1b-97c3-44dd-a384-0b490dcf8bbd","resource":{"resourceType":"MedicationStatement","id":"6a429b1b-97c3-44dd-a384-0b490dcf8bbd","status":"completed","medicationCodeableConcept":{"coding":[{"system":"http://www.nlm.nih.gov/research/umls/rxnorm","code":"18631"}]},"subject":{"reference":"Patient/805cc5fc-9326-45f9-a3a3-d047972a48ab"},"effectiveDateTime":"2022-01-09T00:00:00+00:00","dosage":[{"doseAndRate":[{"doseQuantity":{"value":1,"unit":"TAB","system":"http://terminology.hl7.org/CodeSystem/v3-orderableDrugForm","code":"TAB"}}]}]},"request":{"method":"POST","url":"MedicationStatement"}},{"fullUrl":"MedicationStatement/91f46be8-e460-4715-b965-aeabc87c27d3","resource":{"resourceType":"MedicationStatement","id":"91f46be8-e460-4715-b965-aeabc87c27d3","status":"completed","medicationCodeableConcept":{"coding":[{"system":"http://www.nlm.nih.gov/research/umls/rxnorm","code":"7980"}]},"subject":{"reference":"Patient/805cc5fc-9326-45f9-a3a3-d047972a48ab"},"effectiveDateTime":"2022-06-20T00:00:00+00:00","dosage":[{"doseAndRate":[{"doseQuantity":{"value":2,"unit":"TAB","system":"http://terminology.hl7.org/CodeSystem/v3-orderableDrugForm","code":"TAB"}}]}]},"request":{"method":"POST","url":"MedicationStatement"}},{"fullUrl":"MedicationStatement/d5f77ec3-70cf-4807-8da5-59ca1e2b0d13","resource":{"resourceType":"MedicationStatement","id":"d5f77ec3-70cf-4807-8da5-59ca1e2b0d13","status":"completed","medicationCodeableConcept":{"coding":[{"system":"http://www.nlm.nih.gov/research/umls/rxnorm","code":"18631"}]},"subject":{"reference":"Patient/805cc5fc-9326-45f9-a3a3-d047972a48ab"},"effectiveDateTime":"2022-08-02T00:00:00+00:00","dosage":[{"doseAndRate":[{"doseQuantity":{"value":1,"unit":"TAB","system":"http://terminology.hl7.org/CodeSystem/v3-orderableDrugForm","code":"TAB"}}]}]},"request":{"method":"POST","url":"MedicationStatement"}},{"fullUrl":"MedicationStatement/4438ec40-265e-4440-b026-58e33048b736","resource":{"resourceType":"MedicationStatement","id":"4438ec40-265e-4440-b026-58e33048b736","status":"completed","medicationCodeableConcept":{"coding":[{"system":"http://www.nlm.nih.gov/research/umls/rxnorm","code":"3640"}]},"subject":{"reference":"Patient/805cc5fc-9326-45f9-a3a3-d047972a48ab"},"effectiveDateTime":"2022-10-26T00:00:00+00:00","dosage":[{"doseAndRate":[{"doseQuantity":{"value":6.2,"unit":"TAB","system":"http://terminology.hl7.org/CodeSystem/v3-orderableDrugForm","code":"TAB"}}]}]},"request":{"method":"POST","url":"MedicationStatement"}},{"fullUrl":"MedicationStatement/33de8bb0-f8d5-4f28-abaa-a933482c3992","resource":{"resourceType":"MedicationStatement","id":"33de8bb0-f8d5-4f28-abaa-a933482c3992","status":"completed","medicationCodeableConcept":{"coding":[{"system":"http://www.nlm.nih.gov/research/umls/rxnorm","code":"8698"}]},"subject":{"reference":"Patient/805cc5fc-9326-45f9-a3a3-d047972a48ab"},"effectiveDateTime":"2022-04-10T00:00:00+00:00","dosage":[{"doseAndRate":[{"doseQuantity":{"value":5.9,"unit":"TAB","system":"http://terminology.hl7.org/CodeSystem/v3-orderableDrugForm","code":"TAB"}}]}]},"request":{"method":"POST","url":"MedicationStatement"}},{"fullUrl":"MedicationStatement/5ef31b18-2637-4160-a716-ea0572e290d9","resource":{"resourceType":"MedicationStatement","id":"5ef31b18-2637-4160-a716-ea0572e290d9","status":"completed","medicationCodeableConcept":{"coding":[{"system":"http://www.nlm.nih.gov/research/umls/rxnorm","code":"10395"}]},"subject":{"reference":"Patient/805cc5fc-9326-45f9-a3a3-d047972a48ab"},"effectiveDateTime":"2022-09-19T00:00:00+00:00","dosage":[{"doseAndRate":[{"doseQuantity":{"value":4.5,"unit":"TAB","system":"http://terminology.hl7.org/CodeSystem/v3-orderableDrugForm","code":"TAB"}}]}]},"request":{"method":"POST","url":"MedicationStatement"}},{"fullUrl":"MedicationStatement/4b83ca1d-5622-4de7-adc8-3e1d2bc9e4e1","resource":{"resourceType":"MedicationStatement","id":"4b83ca1d-5622-4de7-adc8-3e1d2bc9e4e1","status":"completed","medicationCodeableConcept":{"coding":[{"system":"http://www.nlm.nih.gov/research/umls/rxnorm","code":"3640"}]},"subject":{"reference":"Patient/805cc5fc-9326-45f9-a3a3-d047972a48ab"},"effectiveDateTime":"2022-03-27T00:00:00+00:00","dosage":[{"doseAndRate":[{"doseQuantity":{"value":3.7,"unit":"TAB","system":"http://terminology.hl7.org/CodeSystem/v3-orderableDrugForm","code":"TAB"}}]}]},"request":{"method":"POST","url":"MedicationStatement"}},{"fullUrl":"MedicationStatement/d69f5b37-4a24-4920-b1d1-1a6cfee4af5d","resource":{"resourceType":"MedicationStatement","id":"d69f5b37-4a24-4920-b1d1-1a6cfee4af5d","status":"completed","medicationCodeableConcept":{"coding":[{"system":"http://www.nlm.nih.gov/research/umls/rxnorm","code":"7980"}]},"subject":{"reference":"Patient/805cc5fc-9326-45f9-a3a3-d047972a48ab"},"effectiveDateTime":"2022-06-02T00:00:00+00:00","dosage":[{"doseAndRate":[{"doseQuantity":{"value":6.6,"unit":"TAB","system":"http://terminology.hl7.org/CodeSystem/v3-orderableDrugForm","code":"TAB"}}]}]},"request":{"method":"POST","url":"MedicationStatement"}},{"fullUrl":"MedicationStatement/b467908c-28e4-443e-aec6-94fb3f91e655","resource":{"resourceType":"MedicationStatement","id":"b467908c-28e4-443e-aec6-94fb3f91e655","status":"completed","medicationCodeableConcept":{"coding":[{"system":"http://www.nlm.nih.gov/research/umls/rxnorm","code":"3640"}]},"subject":{"reference":"Patient/805cc5fc-9326-45f9-a3a3-d047972a48ab"},"effectiveDateTime":"2022-06-11T00:00:00+00:00","dosage":[{"doseAndRate":[{"doseQuantity":{"value":5.8,"unit":"TAB","system":"http://terminology.hl7.org/CodeSystem/v3-orderableDrugForm","code":"TAB"}}]}]},"request":{"method":"POST","url":"MedicationStatement"}},{"fullUrl":"MedicationStatement/c295ca8f-f064-451e-b228-1ce9cd7192ee","resource":{"resourceType":"MedicationStatement","id":"c295ca8f-f064-451e-b228-1ce9cd7192ee","status":"completed","medicationCodeableConcept":{"coding":[{"system":"http://www.nlm.nih.gov/research/umls/rxnorm","code":"18631"}]},"subject":{"reference":"Patient/805cc5fc-9326-45f9-a3a3-d047972a48ab"},"effectiveDateTime":"2022-08-20T00:00:00+00:00","dosage":[{"doseAndRate":[{"doseQuantity":{"value":6.2,"unit":"TAB","system":"http://terminology.hl7.org/CodeSystem/v3-orderableDrugForm","code":"TAB"}}]}]},"request":{"method":"POST","url":"MedicationStatement"}},{"fullUrl":"MedicationStatement/5e5364b1-16e8-43c9-a85c-5db6971ed178","resource":{"resourceType":"MedicationStatement","id":"5e5364b1-16e8-43c9-a85c-5db6971ed178","status":"completed","medicationCodeableConcept":{"coding":[{"system":"http://www.nlm.nih.gov/research/umls/rxnorm","code":"3640"}]},"subject":{"reference":"Patient/805cc5fc-9326-45f9-a3a3-d047972a48ab"},"effectiveDateTime":"2022-10-06T00:00:00+00:00","dosage":[{"doseAndRate":[{"doseQuantity":{"value":5.5,"unit":"TAB","system":"http://terminology.hl7.org/CodeSystem/v3-orderableDrugForm","code":"TAB"}}]}]},"request":{"method":"POST","url":"MedicationStatement"}},{"fullUrl":"Encounter/b9fbbc0f-e8ff-4e5f-b61c-5fa667768efa","resource":{"resourceType":"Encounter","id":"b9fbbc0f-e8ff-4e5f-b61c-5fa667768efa","status":"finished","class":{"system":"http://terminology.hl7.org/CodeSystem/v3-ActCode","code":"IMP","display":"inpatient encounter"},"type":[{"coding":[{"system":"http://terminology.hl7.org/CodeSystem/encounter-type","code":"OKI"}]}],"subject":{"reference":"Patient/805cc5fc-9326-45f9-a3a3-d047972a48ab"},"period":{"start":"2022-04-08T00:00:00+00:00","end":"2022-04-10T00:00:00+00:00"}},"request":{"method":"POST","url":"Encounter"}},{"fullUrl":"Encounter/9bcdc6e9-f7c4-44f8-862e-560c09e18f45","resource":{"resourceType":"Encounter","id":"9bcdc6e9-f7c4-44f8-862e-560c09e18f45","status":"finished","class":{"system":"http://terminology.hl7.org/CodeSystem/v3-ActCode","code":"IMP","display":"inpatient encounter"},"type":[{"coding":[{"system":"http://terminology.hl7.org/CodeSystem/encounter-type","code":"ADMS"}]}],"subject":{"reference":"Patient/805cc5fc-9326-45f9-a3a3-d047972a48ab"},"period":{"start":"2022-11-23T00:00:00+00:00","end":"2022-12-02T00:00:00+00:00"}},"request":{"method":"POST","url":"Encounter"}},{"fullUrl":"Encounter/057e803d-1302-4378-a537-28fe93fc3e5d","resource":{"resourceType":"Encounter","id":"057e803d-1302-4378-a537-28fe93fc3e5d","status":"finished","class":{"system":"http://terminology.hl7.org/CodeSystem/v3-ActCode","code":"IMP","display":"inpatient encounter"},"type":[{"coding":[{"system":"http://terminology.hl7.org/CodeSystem/encounter-type","code":"BD/BM-clin"}]}],"subject":{"reference":"Patient/805cc5fc-9326-45f9-a3a3-d047972a48ab"},"period":{"start":"2022-03-07T00:00:00+00:00","end":"2022-03-13T00:00:00+00:00"}},"request":{"method":"POST","url":"Encounter"}},{"fullUrl":"Encounter/4a11dccf-f615-4ae1-8e5d-acc02280d0ae","resource":{"resourceType":"Encounter","id":"4a11dccf-f615-4ae1-8e5d-acc02280d0ae","status":"finished","class":{"system":"http://terminology.hl7.org/CodeSystem/v3-ActCode","code":"VR","display":"virtual"},"type":[{"coding":[{"system":"http://terminology.hl7.org/CodeSystem/encounter-type","code":"ADMS"}]}],"subject":{"reference":"Patient/805cc5fc-9326-45f9-a3a3-d047972a48ab"},"period":{"start":"2022-03-01T00:00:00+00:00","end":"2022-03-04T00:00:00+00:00"}},"request":{"method":"POST","url":"Encounter"}},{"fullUrl":"Encounter/45296682-0e69-429c-9659-83c56807e3f8","resource":{"resourceType":"Encounter","id":"45296682-0e69-429c-9659-83c56807e3f8","status":"finished","class":{"system":"http://terminology.hl7.org/CodeSystem/v3-ActCode","code":"OBSENC","display":"observation encounter"},"type":[{"coding":[{"system":"http://terminology.hl7.org/CodeSystem/encounter-type","code":"CCS60"}]}],"subject":{"reference":"Patient/805cc5fc-9326-45f9-a3a3-d047972a48ab"},"period":{"start":"2022-10-29T00:00:00+00:00","end":"2022-10-30T00:00:00+00:00"}},"request":{"method":"POST","url":"Encounter"}},{"fullUrl":"Encounter/e454a433-cb42-4cbe-bcec-dd0121be92e2","resource":{"resourceType":"Encounter","id":"e454a433-cb42-4cbe-bcec-dd0121be92e2","status":"finished","class":{"system":"http://terminology.hl7.org/CodeSystem/v3-ActCode","code":"HH","display":"home health"},"type":[{"coding":[{"system":"http://terminology.hl7.org/CodeSystem/encounter-type","code":"OKI"}]}],"subject":{"reference":"Patient/805cc5fc-9326-45f9-a3a3-d047972a48ab"},"period":{"start":"2022-06-16T00:00:00+00:00","end":"2022-06-20T00:00:00+00:00"}},"request":{"method":"POST","url":"Encounter"}},{"fullUrl":"Patient/ad7e3417-1399-409d-93ad-fcaa28beb75b","resource":{"resourceType":"Patient","id":"ad7e3417-1399-409d-93ad-fcaa28beb75b","identifier":[{"type":{"coding":[{"system":"http://terminology.hl7.org/CodeSystem/v2-0203","code":"MR"}]},"system":"urn:fhirgen:mrn","value":"347-70-9206"}],"name":[{"family":"Bauer","given":["Tammy"]}],"telecom":[{"system":"phone","value":"+1-757-750-5275x72730","use":"home"}],"gender":"other","birthDate":"1985-08-22","address":[{"line":["774 Mckee Courts"],"city":"Port Wanda","state":"OH","postalCode":"27811"}]},"request":{"method":"POST","url":"Patient"}},{"fullUrl":"Observation/1341c785-7226-406b-964f-6440f95a8dc5","resource":{"resourceType":"Observation","id":"1341c785-7226-406b-964f-6440f95a8dc5","status":"final","code":{"coding":[{"system":"http://loinc.org","code":"71793-4"}]},"subject":{"reference":"Patient/ad7e3417-1399-409d-93ad-fcaa28beb75b"},"effectiveDateTime":"2022-12-25T00:00:00+00:00","valueRatio":{"numerator":{"value":1},"denominator":{"value":64}}},"request":{"method":"POST","url":"Observation"}},{"fullUrl":"Observation/64fd11a7-5d6d-4d7b-bc7b-851641f92871","resource":{"resourceType":"Observation","id":"64fd11a7-5d6d-4d7b-bc7b-851641f92871","status":"final","code":{"coding":[{"system":"http://loinc.org","code":"50695-6"}]},"subject":{"reference":"Patient/ad7e3417-1399-409d-93ad-fcaa28beb75b"},"effectiveDateTime":"2022-12-21T00:00:00+00:00","valueRatio":{"numerator":{"value":1},"denominator":{"value":32}}},"request":{"method":"POST","url":"Observation"}},{"fullUrl":"Observation/6249255e-b385-4a81-ac01-44b6f2d33325","resource":{"resourceType":"Observation","id":"6249255e-b385-4a81-ac01-44b6f2d33325","status":"final","code":{"coding":[{"system":"http://loinc.org","code":"47235-7"}]},"subject":{"reference":"Patient/ad7e3417-1399-409d-93ad-fcaa28beb75b"},"effectiveDateTime":"2022-09-03T00:00:00+00:00","valueRatio":{"numerator":{"value":1},"denominator":{"value":64}}},"request":{"method":"POST","url":"Observation"}},{"fullUrl":"Condition/a98975a4-c620-4bf2-b7c9-f1815a979cb5","resource":{"resourceType":"Condition","id":"a98975a4-c620-4bf2-b7c9-f1815a979cb5","code":{"coding":[{"system":"http://snomed.info/sct","code":"198199009"}]},"subject":{"reference":"Patient/ad7e3417-1399-409d-93ad-fcaa28beb75b"},"onsetDateTime":"2022-08-05T00:00:00+00:00"},"request":{"method":"POST","url":"Condition"}},{"fullUrl":"Condition/8400ae49-0002-4231-9552-0327c42f13a0","resource":{"resourceType":"Condition","id":"8400ae49-0002-4231-9552-0327c42f13a0","code":{"coding":[{"system":"http://snomed.info/sct","code":"71315007"}]},"subject":{"reference":"Patient/ad7e3417-1399-409d-93ad-fcaa28beb75b"},"onsetDateTime":"2022-12-06T00:00:00+00:00"},"request":{"method":"POST","url":"Condition"}},{"fullUrl":"Condition/533a21ca-e27c-43c4-95f8-9be146945cac","resource":{"resourceType":"Condition","id":"533a21ca-e27c-43c4-95f8-9be146945cac","code":{"coding":[{"system":"http://snomed.info/sct","code":"271939006"}]},"subject":{"reference":"Patient/ad7e3417-1399-409d-93ad-fcaa28beb75b"},"onsetDateTime":"2022-08-11T00:00:00+00:00"},"request":{"method":"POST","url":"Condition"}},{"fullUrl":"Condition/20a66bd8-2770-4ccd-bf3c-a81f5a0d71eb","resource":{"resourceType":"Condition","id":"20a66bd8-2770-4ccd-bf3c-a81f5a0d71eb","code":{"coding":[{"system":"http://snomed.info/sct","code":"297123002"}]},"subject":{"reference":"Patient/ad7e3417-1399-409d-93ad-fcaa28beb75b"},"onsetDateTime":"2022-09-02T00:00:00+00:00"},"request":{"method":"POST","url":"Condition"}},{"fullUrl":"Condition/5d62c7d6-2a97-4a04-9f81-2194340353b0","resource":{"resourceType":"Condition","id":"5d62c7d6-2a97-4a04-9f81-2194340353b0","code":{"coding":[{"system":"http://snomed.info/sct","code":"18165001"}]},"subject":{"reference":"Patient/ad7e3417-1399-409d-93ad-fcaa28beb75b"},"onsetDateTime":"2022-10-16T00:00:00+00:00"},"request":{"method":"POST","url":"Condition"}},{"fullUrl":"Condition/db27cc5e-7017-49a6-9615-44c5572ecba6","resource":{"resourceType":"Condition","id":"db27cc5e-7017-49a6-9615-44c5572ecba6","code":{"coding":[{"system":"http://snomed.info/sct","code":"21522001"}]},"subject":{"reference":"Patient/ad7e3417-1399-409d-93ad-fcaa28beb75b"},"onsetDateTime":"2022-05-05T00:00:00+00:00"},"request":{"method":"POST","url":"Condition"}},{"fullUrl":"Condition/a81d8fdf-cf12-4ccf-817b-7f89d5954f49","resource":{"resourceType":"Condition","id":"a81d8fdf-cf12-4ccf-817b-7f89d5954f49","code":{"coding":[{"system":"http://snomed.info/sct","code":"21522001"}]},"subject":{"reference":"Patient/ad7e3417-1399-409d-93ad-fcaa28beb75b"},"onsetDateTime":"2022-10-23T00:00:00+00:00"},"request":{"method":"POST","url":"Condition"}},{"fullUrl":"Observation/246ed53c-686f-4958-941c-cf4ae8c8bfae","resource":{"resourceType":"Observation","id":"246ed53c-686f-4958-941c-cf4ae8c8bfae","status":"final","code":{"coding":[{"system":"http://loinc.org","code":"26464-8"}]},"subject":{"reference":"Patient/ad7e3417-1399-409d-93ad-fcaa28beb75b"},"effectiveDateTime":"2022-04-04T00:00:00+00:00","valueQuantity":{"value":10.9}},"request":{"method":"POST","url":"Observation"}},{"fullUrl":"Observation/c2f9c5f0-a2b8-4247-91c5-c285eee5e701","resource":{"resourceType":"Observation","id":"c2f9c5f0-a2b8-4247-91c5-c285eee5e701","status":"final","code":{"coding":[{"system":"http://loinc.org","code":"49498-9"}]},"subject":{"reference":"Patient/ad7e3417-1399-409d-93ad-fcaa28beb75b"},"effectiveDateTime":"2022-01-17T00:00:00+00:00","valueQuantity":{"value":8.6}},"request":{"method":"POST","url":"Observation"}},{"fullUrl":"Observation/8d62f57a-1b14-4f2b-91d6-63b044c7aa96","resource":{"resourceType":"Observation","id":"8d62f57a-1b14-4f2b-91d6-63b044c7aa96","status":"final","code":{"coding":[{"system":"http://www.ama-assn.org/go/cpt","code":"85048"}]},"subject":{"reference":"Patient/ad7e3417-1399-409d-93ad-fcaa28beb75b"},"effectiveDateTime":"2022-10-20T00:00:00+00:00","valueQuantity":{"value":6.4}},"request":{"method":"POST","url":"Observation"}},{"fullUrl":"Observation/6cd7aa3a-995f-44e1-8df0-45a7bf8d44ee","resource":{"resourceType":"Observation","id":"6cd7aa3a-995f-44e1-8df0-45a7bf8d44ee","status":"final","code":{"coding":[{"system":"http://loinc.org","code":"49498-9"}]},"subject":{"reference":"Patient/ad7e3417-1399-409d-93ad-fcaa28beb75b"},"effectiveDateTime":"2022-10-16T00:00:00+00:00"},"request":{"method":"POST","url":"Observation"}},{"fullUrl":"Observation/348b876d-f830-4bd5-aec2-baf8eb5d0a98","resource":{"resourceType":"Observation","id":"348b876d-f830-4bd5-aec2-baf8eb5d0a98","status":"final","code":{"coding":[{"system":"http://loinc.org","code":"49498-9"}]},"subject":{"reference":"Patient/ad7e3417-1399-409d-93ad-fcaa28beb75b"},"effectiveDateTime":"2022-02-04T00:00:00+00:00"},"request":{"method":"POST","url":"Observation"}},{"fullUrl":"Procedure/6274c378-e569-45ac-a780-5a66c95bdbe4","resource":{"resourceType":"Procedure","id":"6274c378-e569-45ac-a780-5a66c95bdbe4","status":"completed","code":{"coding":[{"system":"http://snomed.info/sct","code":"115006"}]},"subject":{"reference":"Patient/ad7e3417-1399-409d-93ad-fcaa28beb75b"},"performedDateTime":"2022-07-29T00:00:00+00:00"},"request":{"method":"POST","url":"Procedure"}},{"fullUrl":"Procedure/1aa435ed-ebd3-4dab-8fa5-d0aa06e928d9","resource":{"resourceType":"Procedure","id":"1aa435ed-ebd3-4dab-8fa5-d0aa06e928d9","status":"completed","code":{"coding":[{"system":"http://snomed.info/sct","code":"146005"}]},"subject":{"reference":"Patient/ad7e3417-1399-409d-93ad-fcaa28beb75b"},"performedDateTime":"2022-01-04T00:00:00+00:00"},"request":{"method":"POST","url":"Procedure"}},{"fullUrl":"Procedure/3f5690ba-6f21-4401-a56a-6da7f0afd98d","resource":{"resourceType":"Procedure","id":"3f5690ba-6f21-4401-a56a-6da7f0afd98d","status":"completed","code":{"coding":[{"system":"http://snomed.info/sct","code":"647000"}]},"subject":{"reference":"Patient/ad7e3417-1399-409d-93ad-fcaa28beb75b"},"performedDateTime":"2022-04-20T00:00:00+00:00"},"request":{"method":"POST","url":"Procedure"}},{"fullUrl":"MedicationStatement/26e071e7-394f-46a1-86d0-0a3c64d64198","resource":{"resourceType":"MedicationStatement","id":"26e071e7-394f-46a1-86d0-0a3c64d64198","status":"completed","medicationCodeableConcept":{"coding":[{"system":"http://www.nlm.nih.gov/research/umls/rxnorm","code":"2193"}]},"subject":{"reference":"Patient/ad7e3417-1399-409d-93ad-fcaa28beb75b"},"effectiveDateTime":"2022-05-12T00:00:00+00:00","dosage":[{"doseAndRate":[{"doseQuantity":{"value":1,"unit":"TAB","system":"http://terminology.hl7.org/CodeSystem/v3-orderableDrugForm","code":"TAB"}}]}]},"request":{"method":"POST","url":"MedicationStatement"}},{"fullUrl":"MedicationStatement/524c32f9-b264-443c-96ed-957da20fb3a9","resource":{"resourceType":"MedicationStatement","id":"524c32f9-b264-443c-96ed-957da20fb3a9","status":"completed","medicationCodeableConcept":{"coding":[{"system":"http://www.nlm.nih.gov/research/umls/rxnorm","code":"2193"}]},"subject":{"reference":"Patient/ad7e3417-1399-409d-93ad-fcaa28beb75b"},"effectiveDateTime":"2022-02-26T00:00:00+00:00","dosage":[{"doseAndRate":[{"doseQuantity":{"value":2,"unit":"TAB","system":"http://terminology.hl7.org/CodeSystem/v3-orderableDrugForm","code":"TAB"}}]}]},"request":{"method":"POST","url":"MedicationStatement"}},{"fullUrl":"MedicationStatement/6eeb4db8-b8c4-4881-875f-bc83f76099f7","resource":{"resourceType":"MedicationStatement","id":"6eeb4db8-b8c4-4881-875f-bc83f76099f7","status":"completed","medicationCodeableConcept":{"coding":[{"system":"http://www.nlm.nih.gov/research/umls/rxnorm","code":"2193"}]},"subject":{"reference":"Patient/ad7e3417-1399-409d-93ad-fcaa28beb75b"},"effectiveDateTime":"2022-03-02T00:00:00+00:00","dosage":[{"doseAndRate":[{"doseQuantity":{"value":2,"unit":"TAB","system":"http://terminology.hl7.org/CodeSystem/v3-orderableDrugForm","code":"TAB"}}]}]},"request":{"method":"POST","url":"MedicationStatement"}},{"fullUrl":"MedicationStatement/0375794a-b076-4ae5-b283-b3cfe476b287","resource":{"resourceType":"MedicationStatement","id":"0375794a-b076-4ae5-b283-b3cfe476b287","status":"completed","medicationCodeableConcept":{"coding":[{"system":"http://www.nlm.nih.gov/research/umls/rxnorm","code":"18631"}]},"subject":{"reference":"Patient/ad7e3417-1399-409d-93ad-fcaa28beb75b"},"effectiveDateTime":"2022-08-01T00:00:00+00:00","dosage":[{"doseAndRate":[{"doseQuantity":{"value":2,"unit":"TAB","system":"http://terminology.hl7.org/CodeSystem/v3-orderableDrugForm","code":"TAB"}}]}]},"request":{"method":"POST","url":"MedicationStatement"}},{"fullUrl":"MedicationStatement/317f6317-ae99-4c23-85b1-1f25c1a1dec6","resource":{"resourceType":"MedicationStatement","id":"317f6317-ae99-4c23-85b1-1f25c1a1dec6","status":"completed","medicationCodeableConcept":{"coding":[{"system":"http://www.nlm.nih.gov/research/umls/rxnorm","code":"10395"}]},"subject":{"reference":"Patient/ad7e3417-1399-409d-93ad-fcaa28beb75b"},"effectiveDateTime":"2022-08-18T00:00:00+00:00","dosage":[{"doseAndRate":[{"doseQuantity":{"value":2,"unit":"TAB","system":"http://terminology.hl7.org/CodeSystem/v3-orderableDrugForm","code":"TAB"}}]}]},"request":{"method":"POST","url":"MedicationStatement"}},{"fullUrl":"MedicationStatement/390b63ae-e614-4172-b556-f41004fecef7","resource":{"resourceType":"MedicationStatement","id":"390b63ae-e614-4172-b556-f41004fecef7","status":"completed","medicationCodeableConcept":{"coding":[{"system":"http://www.nlm.nih.gov/research/umls/rxnorm","code":"8698"}]},"subject":{"reference":"Patient/ad7e3417-1399-409d-93ad-fcaa28beb75b"},"effectiveDateTime":"2022-12-02T00:00:00+00:00","dosage":[{"doseAndRate":[{"doseQuantity":{"value":6.6,"unit":"TAB","system":"http://terminology.hl7.org/CodeSystem/v3-orderableDrugForm","code":"TAB"}}]}]},"request":{"method":"POST","url":"MedicationStatement"}},{"fullUrl":"MedicationStatement/75aae036-93b2-4144-a2c6-7b7dbbafd28f","resource":{"resourceType":"MedicationStatement","id":"75aae036-93b2-4144-a2c6-7b7dbbafd28f","status":"completed","medicationCodeableConcept":{"coding":[{"system":"http://www.nlm.nih.gov/research/umls/rxnorm","code":"18631"}]},"subject":{"reference":"Patient/ad7e3417-1399-409d-93ad-fcaa28beb75b"},"effectiveDateTime":"2022-04-07T00:00:00+00:00","dosage":[{"doseAndRate":[{"doseQuantity":{"value":3.7,"unit":"TAB","system":"http://terminology.hl7.org/CodeSystem/v3-orderableDrugForm","code":"TAB"}}]}]},"request":{"method":"POST","url":"MedicationStatement"}},{"fullUrl":"Encounter/e887de72-4cae-41ad-9a9d-102dfaae5dd0","resource":{"resourceType":"Encounter","id":"e887de72-4cae-41ad-9a9d-102dfaae5dd0","status":"finished","class":{"system":"http://terminology.hl7.org/CodeSystem/v3-ActCode","code":"IMP","display":"inpatient encounter"},"type":[{"coding":[{"system":"http://terminology.hl7.org/CodeSystem/encounter-type","code":"BD/BM-clin"}]}],"subject":{"reference":"Patient/ad7e3417-1399-409d-93ad-fcaa28beb75b"},"period":{"start":"2022-08-05T00:00:00+00:00","end":"2022-08-10T00:00:00+00:00"}},"request":{"method":"POST","url":"Encounter"}},{"fullUrl":"Encounter/a98d88ea-1dc8-4fb3-9cdd-8ff01fbc8d5b","resource":{"resourceType":"Encounter","id":"a98d88ea-1dc8-4fb3-9cdd-8ff01fbc8d5b","status":"finished","class":{"system":"http://terminology.hl7.org/CodeSystem/v3-ActCode","code":"IMP","display":"inpatient encounter"},"type":[{"coding":[{"system":"http://terminology.hl7.org/CodeSystem/encounter-type","code":"OKI"}]}],"subject":{"reference":"Patient/ad7e3417-1399-409d-93ad-fcaa28beb75b"},"period":{"start":"2022-03-28T00:00:00+00:00","end":"2022-03-29T00:00:00+00:00"}},"request":{"method":"POST","url":"Encounter"}},{"fullUrl":"Encounter/0fee4342-562b-4a79-ad61-f07db9a5c1c3","resource":{"resourceType":"Encounter","id":"0fee4342-562b-4a79-ad61-f07db9a5c1c3","status":"finished","class":{"system":"http://terminology.hl7.org/CodeSystem/v3-ActCode","code":"IMP","display":"inpatient encounter"},"type":[{"coding":[{"system":"http://terminology.hl7.org/CodeSystem/encounter-type","code":"ADMS"}]}],"subject":{"reference":"Patient/ad7e3417-1399-409d-93ad-fcaa28beb75b"},"period":{"start":"2022-02-10T00:00:00+00:00","end":"2022-02-10T00:00:00+00:00"}},"request":{"method":"POST","url":"Encounter"}},{"fullUrl":"Encounter/01c797cc-85f3-42d1-b900-e54d30219323","resource":{"resourceType":"Encounter","id":"01c797cc-85f3-42d1-b900-e54d30219323","status":"finished","class":{"system":"http://terminology.hl7.org/CodeSystem/v3-ActCode","code":"PRENC","display":"pre-admission"},"type":[{"coding":[{"system":"http://terminology.hl7.org/CodeSystem/encounter-type","code":"ADMS"}]}],"subject":{"reference":"Patient/ad7e3417-1399-409d-93ad-fcaa28beb75b"},"period":{"start":"2022-09-23T00:00:00+00:00","end":"2022-09-28T00:00:00+00:00"}},"request":{"method":"POST","url":"Encounter"}},{"fullUrl":"Encounter/b1189eab-8806-4e95-bf74-edc75fdc72ce","resource":{"resourceType":"Encounter","id":"b1189eab-8806-4e95-bf74-edc75fdc72ce","status":"finished","class":{"system":"http://terminology.hl7.org/CodeSystem/v3-ActCode","code":"NONAC","display":"inpatient non-acute"},"type":[{"coding":[{"system":"http://terminology.hl7.org/CodeSystem/encounter-type","code":"CCS60"}]}],"subject":{"reference":"Patient/ad7e3417-1399-409d-93ad-fcaa28beb75b"},"period":{"start":"2022-01-24T00:00:00+00:00","end":"2022-01-26T00:00:00+00:00"}},"request":{"method":"POST","url":"Encounter"}}]}