{"resourceType":"Bundle","id":"fb70e722-1391-4ce7-a8be-fb73112e6308","type":"collection","entry":[{"fullUrl":"Patient/d197ee17-4b73-41cb-8844-815cfe2c1029","resource":{"resourceType":"Patient","id":"d197ee17-4b73-41cb-8844-815cfe2c1029","meta":{"profile":["http://hl7.org/fhir/us/core/StructureDefinition/us-core-patient"]},"extension":[{"extension":[{"url":"ombCategory","valueCoding":{"system":"urn:oid:2.16.840.1.113883.6.238","code":"2106-3","display":"White"}},{"url":"text","valueString":"White"}],"url":"http://hl7.org/fhir/us/core/StructureDefinition/us-core-race"},{"extension":[{"url":"ombCategory","valueCoding":{"system":"urn:oid:2.16.840.1.113883.6.238","code":"2135-2","display":"Hispanic or Latino"}},{"url":"text","valueString":"Hispanic or Latino"}],"url":"http://hl7.org/fhir/us/core/StructureDefinition/us-core-ethnicity"}],"identifier":[{"type":{"coding":[{"system":"http://terminology.hl7.org/CodeSystem/v2-0203","code":"MR"}]},"system":"urn:fhirgen:mrn","value":"571-22-6569"},{"type":{"coding":[{"system":"http://terminology.hl7.org/CodeSystem/v2-0203","code":"SS"}]},"system":"http://hl7.org/fhir/sid/us-ssn","value":"683-52-9511"}],"name":[{"use":"official","family":"Figueroa","given":["Xavier"]},{"use":"maiden","family":"Schultz"}],"telecom":[{"system":"phone","value":"+1-952-365-8643x31946","use":"mobile"},{"system":"email","value":"beverly72@yahoo.com","use":"home"}],"gender":"male","birthDate":"1961-03-14","address":[{"use":"home","line":["1765 Brandon Flats Suite 280"],"city":"West Oliviachester","state":"IN","postalCode":"61890"},{"use":"old","line":["86044 Martin Place Apt. 077"],"city":"Jordanchester","state":"ME","postalCode":"38186"}],"maritalStatus":{"coding":[{"system":"http://terminology.hl7.org/CodeSystem/v3-MaritalStatus","code":"U","display":"unmarried"}]}}},{"fullUrl":"Observation/1f19a612-ddb5-4b7f-83f3-1bfc02b1a38a","resource":{"resourceType":"Observation","id":"1f19a612-ddb5-4b7f-83f3-1bfc02b1a38a","meta":{"profile":["http://hl7.org/fhir/us/core/StructureDefinition/us-core-observation-lab"]},"status":"final","category":[{"coding":[{"system":"http://terminology.hl7.org/CodeSystem/observation-category","code":"laboratory","display":"Laboratory"}]}],"code":{"coding":[{"system":"http://loinc.org","code":"31146-4"}]},"subject":{"reference":"Patient/d197ee17-4b73-41cb-8844-815cfe2c1029"},"effectiveDateTime":"2022-05-08T00:00:00+00:00","valueRatio":{"numerator":{"value":1},"denominator":{"value":64}}}},{"fullUrl":"Observation/21edb8c3-c0aa-4d5a-bd3e-cd47f202c84c","resource":{"resourceType":"Observation","id":"21edb8c3-c0aa-4d5a-bd3e-cd47f202c84c","meta":{"profile":["http://hl7.org/fhir/us/core/StructureDefinition/us-core-observation-lab"]},"status":"final","category":[{"coding":[{"system":"http://terminology.hl7.org/CodeSystem/observation-category","code":"laboratory","display":"Laboratory"}]}],"code":{"coding":[{"system":"http://loinc.org","code":"71793-4"}]},"subject":{"reference":"Patient/d197ee17-4b73-41cb-8844-815cfe2c1029"},"effectiveDateTime":"2022-05-25T00:00:00+00:00","valueRatio":{"numerator":{"value":1},"denominator":{"value":64}}}},{"fullUrl":"Condition/be587d78-fa30-463d-bb57-51f8da7a62a9","resource":{"resourceType":"Condition","id":"be587d78-fa30-463d-bb57-51f8da7a62a9","meta":{"profile":["http://hl7.org/fhir/us/core/StructureDefinition/us-core-condition"]},"clinicalStatus":{"coding":[{"system":"http://terminology.hl7.org/CodeSystem/condition-clinical","code":"active","display":"Active"}]},"category":[{"coding":[{"system":"http://terminology.hl7.org/CodeSystem/condition-category","code":"problem-list-item"}]}],"code":{"coding":[{"system":"http://snomed.info/sct","code":"44882003"}]},"subject":{"reference":"Patient/d197ee17-4b73-41cb-8844-815cfe2c1029"},"onsetDateTime":"2022-04-24T00:00:00+00:00"}},{"fullUrl":"Condition/60f8cc28-48bc-4d70-82b0-c804fc42b3b7","resource":{"resourceType":"Condition","id":"60f8cc28-48bc-4d70-82b0-c804fc42b3b7","meta":{"profile":["http://hl7.org/fhir/us/core/StructureDefinition/us-core-condition"]},"clinicalStatus":{"coding":[{"system":"http://terminology.hl7.org/CodeSystem/condition-clinical","code":"active","display":"Active"}]},"category":[{"coding":[{"system":"http://terminology.hl7.org/CodeSystem/condition-category","code":"problem-list-item"}]}],"code":{"coding":[{"system":"http://snomed.info/sct","code":"736686006"}]},"subject":{"reference":"Patient/d197ee17-4b73-41cb-8844-815cfe2c1029"},"onsetDateTime":"2022-07-15T00:00:00+00:00"}},{"fullUrl":"Condition/3c396336-3315-4cae-8ccd-55ec337cca6d","resource":{"resourceType":"Condition","id":"3c396336-3315-4cae-8ccd-55ec337cca6d","meta":{"profile":["http://hl7.org/fhir/us/core/StructureDefinition/us-core-condition"]},"clinicalStatus":{"coding":[{"system":"http://terminology.hl7.org/CodeSystem/condition-clinical","code":"active","display":"Active"}]},"category":[{"coding":[{"system":"http://terminology.hl7.org/CodeSystem/condition-category","code":"problem-list-item"}]}],"code":{"coding":[{"system":"http://snomed.info/sct","code":"91554004"}]},"subject":{"reference":"Patient/d197ee17-4b73-41cb-8844-815cfe2c1029"},"onsetDateTime":"2022-11-04T00:00:00+00:00"}},{"fullUrl":"Condition/9a3e8cea-f47a-462d-a6e7-f7b10c8715c1","resource":{"resourceType":"Condition","id":"9a3e8cea-f47a-462d-a6e7-f7b10c8715c1","meta":{"profile":["http://hl7.org/fhir/us/core/StructureDefinition/us-core-condition"]},"clinicalStatus":{"coding":[{"system":"http://terminology.hl7.org/CodeSystem/condition-clinical","code":"active","display":"Active"}]},"category":[{"coding":[{"system":"http://terminology.hl7.org/CodeSystem/condition-category","code":"problem-list-item"}]}],"code":{"coding":[{"system":"http://snomed.info/sct","code":"91554004"}]},"subject":{"reference":"Patient/d197ee17-4b73-41cb-8844-815cfe2c1029"},"onsetDateTime":"2022-10-10T00:00:00+00:00"}},{"fullUrl":"Observation/e83201b8-8661-49aa-8b07-c826c0b78ff7","resource":{"resourceType":"Observation","id":"e83201b8-8661-49aa-8b07-c826c0b78ff7","meta":{"profile":["http://hl7.org/fhir/us/core/StructureDefinition/us-core-observation-lab"]},"status":"final","category":[{"coding":[{"system":"http://terminology.hl7.org/CodeSystem/observation-category","code":"laboratory","display":"Laboratory"}]}],"code":{"coding":[{"system":"http://loinc.org","code":"26464-8"}]},"subject":{"reference":"Patient/d197ee17-4b73-41cb-8844-815cfe2c1029"},"effectiveDateTime":"2022-08-10T00:00:00+00:00","valueQuantity":{"value":5.7}}},{"fullUrl":"Observation/233c835b-2d62-4161-b935-0b08c38b5337","resource":{"resourceType":"Observation","id":"233c835b-2d62-4161-b935-0b08c38b5337","meta":{"profile":["http://hl7.org/fhir/us/core/StructureDefinition/us-core-observation-lab"]},"status":"final","category":[{"coding":[{"system":"http://terminology.hl7.org/CodeSystem/observation-category","code":"laboratory","display":"Laboratory"}]}],"code":{"coding":[{"system":"http://loinc.org","code":"804-5"}]},"subject":{"reference":"Patient/d197ee17-4b73-41cb-8844-815cfe2c1029"},"effectiveDateTime":"2022-06-15T00:00:00+00:00","valueQuantity":{"value":5.5}}},{"fullUrl":"Observation/56c42913-f869-433e-a204-73097775313a","resource":{"resourceType":"Observation","id":"56c42913-f869-433e-a204-73097775313a","meta":{"profile":["http://hl7.org/fhir/us/core/StructureDefinition/us-core-bmi"]},"status":"final","category":[{"coding":[{"system":"http://terminology.hl7.org/CodeSystem/observation-category","code":"vital-signs","display":"Vital Signs"}]}],"code":{"coding":[{"system":"http://loinc.org","code":"39156-5"}]},"subject":{"reference":"Patient/d197ee17-4b73-41cb-8844-815cfe2c1029"},"effectiveDateTime":"2022-05-22T00:00:00+00:00","valueQuantity":{"value":10.47,"unit":"kg/m2","system":"http://unitsofmeasure.org","code":"kg/m2"}}},{"fullUrl":"Observation/60a1d15b-ebec-4253-9e1b-2497945e7dac","resource":{"resourceType":"Observation","id":"60a1d15b-ebec-4253-9e1b-2497945e7dac","meta":{"profile":["http://hl7.org/fhir/us/core/StructureDefinition/us-core-head-circumference"]},"status":"final","category":[{"coding":[{"system":"http://terminology.hl7.org/CodeSystem/observation-category","code":"vital-signs","display":"Vital Signs"}]}],"code":{"coding":[{"system":"http://loinc.org","code":"9843-4"}]},"subject":{"reference":"Patient/d197ee17-4b73-41cb-8844-815cfe2c1029"},"effectiveDateTime":"2022-11-30T00:00:00+00:00","valueQuantity":{"value":4.4,"unit":"Inch","system":"http://unitsofmeasure.org","code":"[in_i]"}}},{"fullUrl":"Observation/48fcc6e7-b758-48fc-986d-1cda5b2a935a","resource":{"resourceType":"Observation","id":"48fcc6e7-b758-48fc-986d-1cda5b2a935a","meta":{"profile":["http://hl7.org/fhir/us/core/StructureDefinition/us-core-head-circumference"]},"status":"final","category":[{"coding":[{"system":"http://terminology.hl7.org/CodeSystem/observation-category","code":"vital-signs","display":"Vital Signs"}]}],"code":{"coding":[{"system":"http://loinc.org","code":"9843-4"}]},"subject":{"reference":"Patient/d197ee17-4b73-41cb-8844-815cfe2c1029"},"effectiveDateTime":"2022-09-16T00:00:00+00:00","valueQuantity":{"value":1.9,"unit":"Inch","system":"http://unitsofmeasure.org","code":"[in_i]"}}},{"fullUrl":"Observation/c4643084-87e7-4341-96bc-6774563d103e","resource":{"resourceType":"Observation","id":"c4643084-87e7-4341-96bc-6774563d103e","meta":{"profile":["http://hl7.org/fhir/us/core/StructureDefinition/us-core-body-height"]},"status":"final","category":[{"coding":[{"system":"http://terminology.hl7.org/CodeSystem/observation-category","code":"vital-signs","display":"Vital Signs"}]}],"code":{"coding":[{"system":"http://loinc.org","code":"8302-2"}]},"subject":{"reference":"Patient/d197ee17-4b73-41cb-8844-815cfe2c1029"},"effectiveDateTime":"2022-05-14T00:00:00+00:00","valueQuantity":{"value":82,"unit":"Inch","system":"http://unitsofmeasure.org","code":"[in_i]"}}},{"fullUrl":"Observation/b5323ea7-621c-4236-b2d2-168f00db4674","resource":{"resourceType":"Observation","id":"b5323ea7-621c-4236-b2d2-168f00db4674","meta":{"profile":["http://hl7.org/fhir/us/core/StructureDefinition/us-core-body-weight"]},"status":"final","category":[{"coding":[{"system":"http://terminology.hl7.org/CodeSystem/observation-category","code":"vital-signs","display":"Vital Signs"}]}],"code":{"coding":[{"system":"http://loinc.org","code":"29463-7"}]},"subject":{"reference":"Patient/d197ee17-4b73-41cb-8844-815cfe2c1029"},"effectiveDateTime":"2022-07-01T00:00:00+00:00","valueQuantity":{"value":33.74,"unit":"kilogram","system":"http://unitsofmeasure.org","code":"kg"}}},{"fullUrl":"Observation/eb9715b6-7ea6-4386-8e03-54b7451c5583","resource":{"resourceType":"Observation","id":"eb9715b6-7ea6-4386-8e03-54b7451c5583","meta":{"profile":["http://hl7.org/fhir/us/core/StructureDefinition/us-core-body-temperature"]},"status":"final","category":[{"coding":[{"system":"http://terminology.hl7.org/CodeSystem/observation-category","code":"vital-signs","display":"Vital Signs"}]}],"code":{"coding":[{"system":"http://loinc.org","code":"8310-5"}]},"subject":{"reference":"Patient/d197ee17-4b73-41cb-8844-815cfe2c1029"},"effectiveDateTime":"2022-01-11T00:00:00+00:00","valueQuantity":{"value":146.26,"unit":"Degrees Fahrenheit","system":"http://unitsofmeasure.org","code":"[degF]"}}},{"fullUrl":"Observation/60ec55d2-26a1-4644-a9f6-8f493908ec1e","resource":{"resourceType":"Observation","id":"60ec55d2-26a1-4644-a9f6-8f493908ec1e","meta":{"profile":["http://hl7.org/fhir/us/core/StructureDefinition/us-core-heart-rate"]},"status":"final","category":[{"coding":[{"system":"http://terminology.hl7.org/CodeSystem/observation-category","code":"vital-signs","display":"Vital Signs"}]}],"code":{"coding":[{"system":"http://loinc.org","code":"8867-4"}]},"subject":{"reference":"Patient/d197ee17-4b73-41cb-8844-815cfe2c1029"},"effectiveDateTime":"2022-04-12T00:00:00+00:00","valueQuantity":{"value":99.1,"unit":"Per Minute","system":"http://unitsofmeasure.org","code":"/min"}}},{"fullUrl":"Patient/a68933c5-d5b7-4cb5-80ed-71b259674f74","resource":{"resourceType":"Patient","id":"a68933c5-d5b7-4cb5-80ed-71b259674f74","meta":{"profile":["http://hl7.org/fhir/us/core/StructureDefinition/us-core-patient"]},"extension":[{"extension":[{"url":"ombCategory","valueCoding":{"system":"urn:oid:2.16.840.1.113883.6.238","code":"2028-9","display":"Asian"}},{"url":"text","valueString":"Asian"}],"url":"http://hl7.org/fhir/us/core/StructureDefinition/us-core-race"},{"extension":[{"url":"ombCategory","valueCoding":{"system":"urn:oid:2.16.840.1.113883.6.238","code":"2135-2","display":"Hispanic or Latino"}},{"url":"text","valueString":"Hispanic or Latino"}],"url":"http://hl7.org/fhir/us/core/StructureDefinition/us-core-ethnicity"}],"identifier":[{"type":{"coding":[{"system":"http://terminology.hl7.org/CodeSystem/v2-0203","code":"MR"}]},"system":"urn:fhirgen:mrn","value":"533-23-5547"},{"type":{"coding":[{"system":"http://terminology.hl7.org/CodeSystem/v2-0203","code":"SS"}]},"system":"http://hl7.org/fhir/sid/us-ssn","value":"596-52-6754"}],"name":[{"use":"official","family":"Fernandez","given":["Nicholas"]},{"use":"maiden","family":"Thomas"}],"telecom":[{"system":"phone","value":"001-920-210-2454x1158","use":"mobile"},{"system":"email","value":"larry61@hotmail.com","use":"mobile"}],"gender":"male","birthDate":"1986-11-04","address":[{"use":"home","line":["47182 Jonathan Islands Suite 181"],"city":"Dillonberg","state":"PA","postalCode":"46608"},{"use":"old","line":["6488 Miller Pines"],"city":"East Meganport","state":"SD","postalCode":"87952"}],"maritalStatus":{"coding":[{"system":"http://terminology.hl7.org/CodeSystem/v3-MaritalStatus","code":"L","display":"Legally Separated"}]}}},{"fullUrl":"Observation/f3ff10c6-48cf-455d-8fcb-711858272902","resource":{"resourceType":"Observation","id":"f3ff10c6-48cf-455d-8fcb-711858272902","meta":{"profile":["http://hl7.org/fhir/us/core/StructureDefinition/us-core-observation-lab"]},"status":"final","category":[{"coding":[{"system":"http://terminology.hl7.org/CodeSystem/observation-category","code":"laboratory","display":"Laboratory"}]}],"code":{"coding":[{"system":"http://loinc.org","code":"50690-7"}]},"subject":{"reference":"Patient/a68933c5-d5b7-4cb5-80ed-71b259674f74"},"effectiveDateTime":"2022-07-26T00:00:00+00:00","valueRatio":{"numerator":{"value":1},"denominator":{"value":32}}}},{"fullUrl":"Observation/96eb3cf6-d57c-49f6-9a66-2b709f6bfd6f","resource":{"resourceType":"Observation","id":"96eb3cf6-d57c-49f6-9a66-2b709f6bfd6f","meta":{"profile":["http://hl7.org/fhir/us/core/StructureDefinition/us-core-observation-lab"]},"status":"final","category":[{"coding":[{"system":"http://terminology.hl7.org/CodeSystem/observation-category","code":"laboratory","display":"Laboratory"}]}],"code":{"coding":[{"system":"http://loinc.org","code":"50695-6"}]},"subject":{"reference":"Patient/a68933c5-d5b7-4cb5-80ed-71b259674f74"},"effectiveDateTime":"2022-09-22T00:00:00+00:00","valueRatio":{"numerator":{"value":1},"denominator":{"value":64}}}},{"fullUrl":"Observation/a253be5e-8568-469b-8a54-a59932ba6676","resource":{"resourceType":"Observation","id":"a253be5e-8568-469b-8a54-a59932ba6676","meta":{"profile":["http://hl7.org/fhir/us/core/StructureDefinition/us-core-observation-lab"]},"status":"final","category":[{"coding":[{"system":"http://terminology.hl7.org/CodeSystem/observation-category","code":"laboratory","display":"Laboratory"}]}],"code":{"coding":[{"system":"http://loinc.org","code":"26009-1"}]},"subject":{"reference":"Patient/a68933c5-d5b7-4cb5-80ed-71b259674f74"},"effectiveDateTime":"2022-01-05T00:00:00+00:00","valueRatio":{"numerator":{"value":1},"denominator":{"value":4}}}},{"fullUrl":"Condition/3ad254e1-b404-4b64-8b79-ed0196ac9ec2","resource":{"resourceType":"Condition","id":"3ad254e1-b404-4b64-8b79-ed0196ac9ec2","meta":{"profile":["http://hl7.org/fhir/us/core/StructureDefinition/us-core-condition"]},"clinicalStatus":{"coding":[{"system":"http://terminology.hl7.org/CodeSystem/condition-clinical","code":"active","display":"Active"}]},"category":[{"coding":[{"system":"http://terminology.hl7.org/CodeSystem/condition-category","code":"problem-list-item"}]}],"code":{"coding":[{"system":"http://snomed.info/sct","code":"91554004"}]},"subject":{"reference":"Patient/a68933c5-d5b7-4cb5-80ed-71b259674f74"},"onsetDateTime":"2022-12-26T00:00:00+00:00"}},{"fullUrl":"Condition/3842ac15-b53b-4db2-8be2-bd6d7ac81f3d","resource":{"resourceType":"Condition","id":"3842ac15-b53b-4db2-8be2-bd6d7ac81f3d","meta":{"profile":["http://hl7.org/fhir/us/core/StructureDefinition/us-core-condition"]},"clinicalStatus":{"coding":[{"system":"http://terminology.hl7.org/CodeSystem/condition-clinical","code":"active","display":"Active"}]},"category":[{"coding":[{"system":"http://terminology.hl7.org/CodeSystem/condition-category","code":"problem-list-item"}]}],"code":{"coding":[{"system":"http://snomed.info/sct","code":"44882003"}]},"subject":{"reference":"Patient/a68933c5-d5b7-4cb5-80ed-71b259674f74"},"onsetDateTime":"2022-11-10T00:00:00+00:00"}},{"fullUrl":"Condition/d097c8dd-3d0a-497e-a48c-b6c2bac7b7b8","resource":{"resourceType":"Condition","id":"d097c8dd-3d0a-497e-a48c-b6c2bac7b7b8","meta":{"profile":["http://hl7.org/fhir/us/core/StructureDefinition/us-core-condition"]},"clinicalStatus":{"coding":[{"system":"http://terminology.hl7.org/CodeSystem/condition-clinical","code":"active","display":"Active"}]},"category":[{"coding":[{"system":"http://terminology.hl7.org/CodeSystem/condition-category","code":"problem-list-item"}]}],"code":{"coding":[{"system":"http://snomed.info/sct","code":"736686006"}]},"subject":{"reference":"Patient/a68933c5-d5b7-4cb5-80ed-71b259674f74"},"onsetDateTime":"2022-03-26T00:00:00+00:00"}},{"fullUrl":"Condition/1ff7562f-296e-4b18-9ed0-b28831f403f0","resource":{"resourceType":"Condition","id":"1ff7562f-296e-4b18-9ed0-b28831f403f0","meta":{"profile":["http://hl7.org/fhir/us/core/StructureDefinition/us-core-condition"]},"clinicalStatus":{"coding":[{"system":"http://terminology.hl7.org/CodeSystem/condition-clinical","code":"active","display":"Active"}]},"category":[{"coding":[{"system":"http://terminology.hl7.org/CodeSystem/condition-category","code":"problem-list-item"}]}],"code":{"coding":[{"system":"http://snomed.info/sct","code":"709977002"}]},"subject":{"reference":"Patient/a68933c5-d5b7-4cb5-80ed-71b259674f74"},"onsetDateTime":"2022-10-12T00:00:00+00:00"}},{"fullUrl":"Condition/fb05f6e6-d46f-4bb1-9079-b1da267f4dbb","resource":{"resourceType":"Condition","id":"fb05f6e6-d46f-4bb1-9079-b1da267f4dbb","meta":{"profile":["http://hl7.org/fhir/us/core/StructureDefinition/us-core-condition"]},"clinicalStatus":{"coding":[{"system":"http://terminology.hl7.org/CodeSystem/condition-clinical","code":"active","display":"Active"}]},"category":[{"coding":[{"system":"http://terminology.hl7.org/CodeSystem/condition-category","code":"problem-list-item"}]}],"code":{"coding":[{"system":"http://snomed.info/sct","code":"91554004"}]},"subject":{"reference":"Patient/a68933c5-d5b7-4cb5-80ed-71b259674f74"},"onsetDateTime":"2022-07-30T00:00:00+00:00"}},{"fullUrl":"Condition/5ab0a6f1-eee2-4d5a-b9a5-ed7f9a36cde0","resource":{"resourceType":"Condition","id":"5ab0a6f1-eee2-4d5a-b9a5-ed7f9a36cde0","meta":{"profile":["http://hl7.org/fhir/us/core/StructureDefinition/us-core-condition"]},"clinicalStatus":{"coding":[{"system":"http://terminology.hl7.org/CodeSystem/condition-clinical","code":"active","display":"Active"}]},"category":[{"coding":[{"system":"http://terminology.hl7.org/CodeSystem/condition-category","code":"problem-list-item"}]}],"code":{"coding":[{"system":"http://snomed.info/sct","code":"709977002"}]},"subject":{"reference":"Patient/a68933c5-d5b7-4cb5-80ed-71b259674f74"},"onsetDateTime":"2022-01-07T00:00:00+00:00"}},{"fullUrl":"Condition/27ca93ff-7e83-4b9e-a945-4b8cf301eeee","resource":{"resourceType":"Condition","id":"27ca93ff-7e83-4b9e-a945-4b8cf301eeee","meta":{"profile":["http://hl7.org/fhir/us/core/StructureDefinition/us-core-condition"]},"clinicalStatus":{"coding":[{"system":"http://terminology.hl7.org/CodeSystem/condition-clinical","code":"active","display":"Active"}]},"category":[{"coding":[{"system":"http://terminology.hl7.org/CodeSystem/condition-category","code":"problem-list-item"}]}],"code":{"coding":[{"system":"http://snomed.info/sct","code":"736686006"}]},"subject":{"reference":"Patient/a68933c5-d5b7-4cb5-80ed-71b259674f74"},"onsetDateTime":"2022-01-23T00:00:00+00:00"}},{"fullUrl":"Condition/1b308d60-f170-4e60-b526-979d588960b8","resource":{"resourceType":"Condition","id":"1b308d60-f170-4e60-b526-979d588960b8","meta":{"profile":["http://hl7.org/fhir/us/core/StructureDefinition/us-core-condition"]},"clinicalStatus":{"coding":[{"system":"http://terminology.hl7.org/CodeSystem/condition-clinical","code":"active","display":"Active"}]},"category":[{"coding":[{"system":"http://terminology.hl7.org/CodeSystem/condition-category","code":"problem-list-item"}]}],"code":{"coding":[{"system":"http://snomed.info/sct","code":"709977002"}]},"subject":{"reference":"Patient/a68933c5-d5b7-4cb5-80ed-71b259674f74"},"onsetDateTime":"2022-04-11T00:00:00+00:00"}},{"fullUrl":"Observation/87b53080-df0f-43a2-b1d2-5856d61e42c9","resource":{"resourceType":"Observation","id":"87b53080-df0f-43a2-b1d2-5856d61e42c9","meta":{"profile":["http://hl7.org/fhir/us/core/StructureDefinition/us-core-observation-lab"]},"status":"final","category":[{"coding":[{"system":"http://terminology.hl7.org/CodeSystem/observation-category","code":"laboratory","display":"Laboratory"}]}],"code":{"coding":[{"system":"http://loinc.org","code":"49498-9"}]},"subject":{"reference":"Patient/a68933c5-d5b7-4cb5-80ed-71b259674f74"},"effectiveDateTime":"2022-09-11T00:00:00+00:00","valueQuantity":{"value":5.8}}},{"fullUrl":"Observation/3d9b1992-9cdd-4b1b-810b-30f682848b48","resource":{"resourceType":"Observation","id":"3d9b1992-9cdd-4b1b-810b-30f682848b48","meta":{"profile":["http://hl7.org/fhir/us/core/StructureDefinition/us-core-observation-lab"]},"status":"final","category":[{"coding":[{"system":"http://terminology.hl7.org/CodeSystem/observation-category","code":"laboratory","display":"Laboratory"}]}],"code":{"coding":[{"system":"http://loinc.org","code":"49498-9"}]},"subject":{"reference":"Patient/a68933c5-d5b7-4cb5-80ed-71b259674f74"},"effectiveDateTime":"2022-11-19T00:00:00+00:00","valueQuantity":{"value":10.5}}},{"fullUrl":"Observation/be7c0585-878c-4c67-bcde-43871d79bc10","resource":{"resourceType":"Observation","id":"be7c0585-878c-4c67-bcde-43871d79bc10","meta":{"profile":["http://hl7.org/fhir/us/core/StructureDefinition/us-core-bmi"]},"status":"final","category":[{"coding":[{"system":"http://terminology.hl7.org/CodeSystem/observation-category","code":"vital-signs","display":"Vital Signs"}]}],"code":{"coding":[{"system":"http://loinc.org","code":"39156-5"}]},"subject":{"reference":"Patient/a68933c5-d5b7-4cb5-80ed-71b259674f74"},"effectiveDateTime":"2022-05-22T00:00:00+00:00","valueQuantity":{"value":18.46,"unit":"kg/m2","system":"http://unitsofmeasure.org","code":"kg/m2"}}},{"fullUrl":"Observation/26d3f128-83ec-4905-b241-e4e99219836e","resource":{"resourceType":"Observation","id":"26d3f128-83ec-4905-b241-e4e99219836e","meta":{"profile":["http://hl7.org/fhir/us/core/StructureDefinition/us-core-bmi"]},"status":"final","category":[{"coding":[{"system":"http://terminology.hl7.org/CodeSystem/observation-category","code":"vital-signs","display":"Vital Signs"}]}],"code":{"coding":[{"system":"http://loinc.org","code":"39156-5"}]},"subject":{"reference":"Patient/a68933c5-d5b7-4cb5-80ed-71b259674f74"},"effectiveDateTime":"2022-08-13T00:00:00+00:00","valueQuantity":{"value":13.1,"unit":"kg/m2","system":"http://unitsofmeasure.org","code":"kg/m2"}}},{"fullUrl":"Observation/66abdef4-5db7-4522-9f4b-24293ec0e1da","resource":{"resourceType":"Observation","id":"66abdef4-5db7-4522-9f4b-24293ec0e1da","meta":{"profile":["http://hl7.org/fhir/us/core/StructureDefinition/us-core-head-circumference"]},"status":"final","category":[{"coding":[{"system":"http://terminology.hl7.org/CodeSystem/observation-category","code":"vital-signs","display":"Vital Signs"}]}],"code":{"coding":[{"system":"http://loinc.org","code":"9843-4"}]},"subject":{"reference":"Patient/a68933c5-d5b7-4cb5-80ed-71b259674f74"},"effectiveDateTime":"2022-07-19T00:00:00+00:00","valueQuantity":{"value":7.3,"unit":"Inch","system":"http://unitsofmeasure.org","code":"[in_i]"}}},{"fullUrl":"Observation/d9024336-29c3-41d5-80f6-3fe34adce782","resource":{"resourceType":"Observation","id":"d9024336-29c3-41d5-80f6-3fe34adce782","meta":{"profile":["http://hl7.org/fhir/us/core/StructureDefinition/us-core-body-height"]},"status":"final","category":[{"coding":[{"system":"http://terminology.hl7.org/CodeSystem/observation-category","code":"vital-signs","display":"Vital Signs"}]}],"code":{"coding":[{"system":"http://loinc.org","code":"8302-2"}]},"subject":{"reference":"Patient/a68933c5-d5b7-4cb5-80ed-71b259674f74"},"effectiveDateTime":"2022-02-20T00:00:00+00:00","valueQuantity":{"value":68.4,"unit":"Inch","system":"http://unitsofmeasure.org","code":"[in_i]"}}},{"fullUrl":"Observation/6a682448-292c-41c0-9eef-78eafd6af80e","resource":{"resourceType":"Observation","id":"6a682448-292c-41c0-9eef-78eafd6af80e","meta":{"profile":["http://hl7.org/fhir/us/core/StructureDefinition/us-core-body-weight"]},"status":"final","category":[{"coding":[{"system":"http://terminology.hl7.org/CodeSystem/observation-category","code":"vital-signs","display":"Vital Signs"}]}],"code":{"coding":[{"system":"http://loinc.org","code":"29463-7"}]},"subject":{"reference":"Patient/a68933c5-d5b7-4cb5-80ed-71b259674f74"},"effectiveDateTime":"2022-01-19T00:00:00+00:00","valueQuantity":{"value":124.05,"unit":"kilogram","system":"http://unitsofmeasure.org","code":"kg"}}},{"fullUrl":"Observation/ae673638-7cf4-4884-8dbf-4ba905de9ab4","resource":{"resourceType":"Observation","id":"ae673638-7cf4-4884-8dbf-4ba905de9ab4","meta":{"profile":["http://hl7.org/fhir/us/core/StructureDefinition/us-core-body-temperature"]},"status":"final","category":[{"coding":[{"system":"http://terminology.hl7.org/CodeSystem/observation-category","code":"vital-signs","display":"Vital Signs"}]}],"code":{"coding":[{"system":"http://loinc.org","code":"8310-5"}]},"subject":{"reference":"Patient/a68933c5-d5b7-4cb5-80ed-71b259674f74"},"effectiveDateTime":"2022-11-23T00:00:00+00:00","valueQuantity":{"value":77.05,"unit":"Degrees Fahrenheit","system":"http://unitsofmeasure.org","code":"[degF]"}}},{"fullUrl":"Observation/8dbb7e1c-fc1d-4800-a081-97dfaf08e72d","resource":{"resourceType":"Observation","id":"8dbb7e1c-fc1d-4800-a081-97dfaf08e72d","meta":{"profile":["http://hl7.org/fhir/us/core/StructureDefinition/us-core-body-temperature"]},"status":"final","category":[{"coding":[{"system":"http://terminology.hl7.org/CodeSystem/observation-category","code":"vital-signs","display":"Vital Signs"}]}],"code":{"coding":[{"system":"http://loinc.org","code":"8310-5"}]},"subject":{"reference":"Patient/a68933c5-d5b7-4cb5-80ed-71b259674f74"},"effectiveDateTime":"2022-07-18T00:00:00+00:00","valueQuantity":{"value":41.58,"unit":"Degrees Fahrenheit","system":"http://unitsofmeasure.org","code":"[degF]"}}},{"fullUrl":"Observation/0297ff51-6f42-4104-9ee7-bfbab849abc6","resource":{"resourceType":"Observation","id":"0297ff51-6f42-4104-9ee7-bfbab849abc6","meta":{"profile":["http://hl7.org/fhir/us/core/StructureDefinition/us-core-heart-rate"]},"status":"final","category":[{"coding":[{"system":"http://terminology.hl7.org/CodeSystem/observation-category","code":"vital-signs","display":"Vital Signs"}]}],"code":{"coding":[{"system":"http://loinc.org","code":"8867-4"}]},"subject":{"reference":"Patient/a68933c5-d5b7-4cb5-80ed-71b259674f74"},"effectiveDateTime":"2022-07-07T00:00:00+00:00","valueQuantity":{"value":98.8,"unit":"Per Minute","system":"http://unitsofmeasure.org","code":"/min"}}},{"fullUrl":"Observation/01c8dd03-01b8-4292-b7a6-e3adbed5d064","resource":{"resourceType":"Observation","id":"01c8dd03-01b8-4292-b7a6-e3adbed5d064","meta":{"profile":["http://hl7.org/fhir/us/core/StructureDefinition/us-core-heart-rate"]},"status":"final","category":[{"coding":[{"system":"http://terminology.hl7.org/CodeSystem/observation-category","code":"vital-signs","display":"Vital Signs"}]}],"code":{"coding":[{"system":"http://loinc.org","code":"8867-4"}]},"subject":{"reference":"Patient/a68933c5-d5b7-4cb5-80ed-71b259674f74"},"effectiveDateTime":"2022-07-21T00:00:00+00:00","valueQuantity":{"value":101.4,"unit":"Per Minute","system":"http://unitsofmeasure.org","code":"/min"}}},{"fullUrl":"Patient/57381009-bbb0-41fc-be38-4bfce8b2550e","resource":{"resourceType":"Patient","id":"57381009-bbb0-41fc-be38-4bfce8b2550e","meta":{"profile":["http://hl7.org/fhir/us/core/StructureDefinition/us-core-patient"]},"extension":[{"extension":[{"url":"ombCategory","valueCoding":{"system":"urn:oid:2.16.840.1.113883.6.238","code":"2076-8","display":"Native Hawaiian or Other Pacific Islander"}},{"url":"text","valueString":"Native Hawaiian or Other Pacific Islander"}],"url":"http://hl7.org/fhir/us/core/StructureDefinition/us-core-race"},{"extension":[{"url":"ombCategory","valueCoding":{"system":"urn:oid:2.16.840.1.113883.6.238","code":"2135-2","display":"Hispanic or Latino"}},{"url":"text","valueString":"Hispanic or Latino"}],"url":"http://hl7.org/fhir/us/core/StructureDefinition/us-core-ethnicity"}],"identifier":[{"type":{"coding":[{"system":"http://terminology.hl7.org/CodeSystem/v2-0203","code":"MR"}]},"system":"urn:fhirgen:mrn","value":"340-56-9081"},{"type":{"coding":[{"system":"http://terminology.hl7.org/CodeSystem/v2-0203","code":"SS"}]},"system":"http://hl7.org/fhir/sid/us-ssn","value":"363-36-7515"}],"name":[{"use":"official","family":"Logan","given":["Tara"]},{"use":"maiden","family":"Khan"}],"telecom":[{"system":"phone","value":"(814)332-7422x1405","use":"work"},{"system":"email","value":"joshuabanks@yahoo.com","use":"work"}],"gender":"female","birthDate":"2003-07-02","address":[{"use":"home","line":["243 Katherine Trafficway Suite 150"],"city":"New Jessicaborough","state":"AK","postalCode":"99389"},{"use":"old","line":["524 Rachel Street"],"city":"New Heatherbury","state":"OR","postalCode":"51148"}],"maritalStatus":{"coding":[{"system":"http://terminology.hl7.org/CodeSystem/v3-MaritalStatus","code":"S","display":"Never Married"}]}}},{"fullUrl":"Observation/d25d77ba-229b-4875-8821-056726e1cb0a","resource":{"resourceType":"Observation","id":"d25d77ba-229b-4875-8821-056726e1cb0a","meta":{"profile":["http://hl7.org/fhir/us/core/StructureDefinition/us-core-observation-lab"]},"status":"final","category":[{"coding":[{"system":"http://terminology.hl7.org/CodeSystem/observation-category","code":"laboratory","display":"Laboratory"}]}],"code":{"coding":[{"system":"http://loinc.org","code":"31146-4"}]},"subject":{"reference":"Patient/57381009-bbb0-41fc-be38-4bfce8b2550e"},"effectiveDateTime":"2022-12-08T00:00:00+00:00","valueRatio":{"numerator":{"value":1},"denominator":{"value":64}}}},{"fullUrl":"Observation/95fa687c-2c1b-4857-be2a-7b1138faeb73","resource":{"resourceType":"Observation","id":"95fa687c-2c1b-4857-be2a-7b1138faeb73","meta":{"profile":["http://hl7.org/fhir/us/core/StructureDefinition/us-core-observation-lab"]},"status":"final","category":[{"coding":[{"system":"http://terminology.hl7.org/CodeSystem/observation-category","code":"laboratory","display":"Laboratory"}]}],"code":{"coding":[{"system":"http://loinc.org","code":"71793-4"}]},"subject":{"reference":"Patient/57381009-bbb0-41fc-be38-4bfce8b2550e"},"effectiveDateTime":"2022-03-04T00:00:00+00:00","valueRatio":{"numerator":{"value":1},"denominator":{"value":64}}}},{"fullUrl":"Condition/dcbd4a94-d4d2-4184-a28c-c85f74962cb9","resource":{"resourceType":"Condition","id":"dcbd4a94-d4d2-4184-a28c-c85f74962cb9","meta":{"profile":["http://hl7.org/fhir/us/core/StructureDefinition/us-core-condition"]},"clinicalStatus":{"coding":[{"system":"http://terminology.hl7.org/CodeSystem/condition-clinical","code":"active","display":"Active"}]},"category":[{"coding":[{"system":"http://terminology.hl7.org/CodeSystem/condition-category","code":"problem-list-item"}]}],"code":{"coding":[{"system":"http://snomed.info/sct","code":"736686006"}]},"subject":{"reference":"Patient/57381009-bbb0-41fc-be38-4bfce8b2550e"},"onsetDateTime":"2022-05-08T00:00:00+00:00"}},{"fullUrl":"Condition/ef45d7b8-111e-4eb0-85aa-bd834f91d131","resource":{"resourceType":"Condition","id":"ef45d7b8-111e-4eb0-85aa-bd834f91d131","meta":{"profile":["http://hl7.org/fhir/us/core/StructureDefinition/us-core-condition"]},"clinicalStatus":{"coding":[{"system":"http://terminology.hl7.org/CodeSystem/condition-clinical","code":"active","display":"Active"}]},"category":[{"coding":[{"system":"http://terminology.hl7.org/CodeSystem/condition-category","code":"problem-list-item"}]}],"code":{"coding":[{"system":"http://snomed.info/sct","code":"418290006"}]},"subject":{"reference":"Patient/57381009-bbb0-41fc-be38-4bfce8b2550e"},"onsetDateTime":"2022-12-01T00:00:00+00:00"}},{"fullUrl":"Condition/0a9110d7-58c7-45a3-b1ba-9954f01de68c","resource":{"resourceType":"Condition","id":"0a9110d7-58c7-45a3-b1ba-9954f01de68c","meta":{"profile":["http://hl7.org/fhir/us/core/StructureDefinition/us-core-condition"]},"clinicalStatus":{"coding":[{"system":"http://terminology.hl7.org/CodeSystem/condition-clinical","code":"active","display":"Active"}]},"category":[{"coding":[{"system":"http://terminology.hl7.org/CodeSystem/condition-category","code":"problem-list-item"}]}],"code":{"coding":[{"system":"http://snomed.info/sct","code":"418290006"}]},"subject":{"reference":"Patient/57381009-bbb0-41fc-be38-4bfce8b2550e"},"onsetDateTime":"2022-12-20T00:00:00+00:00"}},{"fullUrl":"Condition/992d060b-0bef-47cc-81d7-12adf59de82e","resource":{"resourceType":"Condition","id":"992d060b-0bef-47cc-81d7-12adf59de82e","meta":{"profile":["http://hl7.org/fhir/us/core/StructureDefinition/us-core-condition"]},"clinicalStatus":{"coding":[{"system":"http://terminology.hl7.org/CodeSystem/condition-clinical","code":"active","display":"Active"}]},"category":[{"coding":[{"system":"http://terminology.hl7.org/CodeSystem/condition-category","code":"problem-list-item"}]}],"code":{"coding":[{"system":"http://snomed.info/sct","code":"91554004"}]},"subject":{"reference":"Patient/57381009-bbb0-41fc-be38-4bfce8b2550e"},"onsetDateTime":"2022-07-13T00:00:00+00:00"}},{"fullUrl":"Condition/70561ae7-f594-425e-85ab-a7015074f6c6","resource":{"resourceType":"Condition","id":"70561ae7-f594-425e-85ab-a7015074f6c6","meta":{"profile":["http://hl7.org/fhir/us/core/StructureDefinition/us-core-condition"]},"clinicalStatus":{"coding":[{"system":"http://terminology.hl7.org/CodeSystem/condition-clinical","code":"active","display":"Active"}]},"category":[{"coding":[{"system":"http://terminology.hl7.org/CodeSystem/condition-category","code":"problem-list-item"}]}],"code":{"coding":[{"system":"http://snomed.info/sct","code":"709977002"}]},"subject":{"reference":"Patient/57381009-bbb0-41fc-be38-4bfce8b2550e"},"onsetDateTime":"2022-01-19T00:00:00+00:00"}},{"fullUrl":"Condition/7a092f9a-2725-4f75-add5-703de919c53f","resource":{"resourceType":"Condition","id":"7a092f9a-2725-4f75-add5-703de919c53f","meta":{"profile":["http://hl7.org/fhir/us/core/StructureDefinition/us-core-condition"]},"clinicalStatus":{"coding":[{"system":"http://terminology.hl7.org/CodeSystem/condition-clinical","code":"active","display":"Active"}]},"category":[{"coding":[{"system":"http://terminology.hl7.org/CodeSystem/condition-category","code":"problem-list-item"}]}],"code":{"coding":[{"system":"http://snomed.info/sct","code":"418290006"}]},"subject":{"reference":"Patient/57381009-bbb0-41fc-be38-4bfce8b2550e"},"onsetDateTime":"2022-02-03T00:00:00+00:00"}},{"fullUrl":"Observation/81b1b898-d821-4a57-918e-2976851c0e8a","resource":{"resourceType":"Observation","id":"81b1b898-d821-4a57-918e-2976851c0e8a","meta":{"profile":["http://hl7.org/fhir/us/core/StructureDefinition/us-core-observation-lab"]},"status":"final","category":[{"coding":[{"system":"http://terminology.hl7.org/CodeSystem/observation-category","code":"laboratory","display":"Laboratory"}]}],"code":{"coding":[{"system":"http://loinc.org","code":"6690-2"}]},"subject":{"reference":"Patient/57381009-bbb0-41fc-be38-4bfce8b2550e"},"effectiveDateTime":"2022-06-09T00:00:00+00:00","valueQuantity":{"value":10.8}}},{"fullUrl":"Observation/ba81dd9c-4bff-4a58-b3ea-a785ddc78be5","resource":{"resourceType":"Observation","id":"ba81dd9c-4bff-4a58-b3ea-a785ddc78be5","meta":{"profile":["http://hl7.org/fhir/us/core/StructureDefinition/us-core-observation-lab"]},"status":"final","category":[{"coding":[{"system":"http://terminology.hl7.org/CodeSystem/observation-category","code":"laboratory","display":"Laboratory"}]}],"code":{"coding":[{"system":"http://loinc.org","code":"6690-2"}]},"subject":{"reference":"Patient/57381009-bbb0-41fc-be38-4bfce8b2550e"},"effectiveDateTime":"2022-07-03T00:00:00+00:00","valueQuantity":{"value":6.4}}},{"fullUrl":"Observation/ce68c6f3-be22-458c-8693-adf4bf56a112","resource":{"resourceType":"Observation","id":"ce68c6f3-be22-458c-8693-adf4bf56a112","meta":{"profile":["http://hl7.org/fhir/us/core/StructureDefinition/us-core-observation-lab"]},"status":"final","category":[{"coding":[{"system":"http://terminology.hl7.org/CodeSystem/observation-category","code":"laboratory","display":"Laboratory"}]}],"code":{"coding":[{"system":"http://loinc.org","code":"49498-9"}]},"subject":{"reference":"Patient/57381009-bbb0-41fc-be38-4bfce8b2550e"},"effectiveDateTime":"2022-10-29T00:00:00+00:00","valueQuantity":{"value":5.7}}},{"fullUrl":"Observation/c0cfff5b-5aad-42af-874e-9be51c870b07","resource":{"resourceType":"Observation","id":"c0cfff5b-5aad-42af-874e-9be51c870b07","meta":{"profile":["http://hl7.org/fhir/us/core/StructureDefinition/us-core-bmi"]},"status":"final","category":[{"coding":[{"system":"http://terminology.hl7.org/CodeSystem/observation-category","code":"vital-signs","display":"Vital Signs"}]}],"code":{"coding":[{"system":"http://loinc.org","code":"39156-5"}]},"subject":{"reference":"Patient/57381009-bbb0-41fc-be38-4bfce8b2550e"},"effectiveDateTime":"2022-11-04T00:00:00+00:00","valueQuantity":{"value":14.58,"unit":"kg/m2","system":"http://unitsofmeasure.org","code":"kg/m2"}}},{"fullUrl":"Observation/74d395b9-8de8-4cf7-954d-95571dc358f2","resource":{"resourceType":"Observation","id":"74d395b9-8de8-4cf7-954d-95571dc358f2","meta":{"profile":["http://hl7.org/fhir/us/core/StructureDefinition/us-core-bmi"]},"status":"final","category":[{"coding":[{"system":"http://terminology.hl7.org/CodeSystem/observation-category","code":"vital-signs","display":"Vital Signs"}]}],"code":{"coding":[{"system":"http://loinc.org","code":"39156-5"}]},"subject":{"reference":"Patient/57381009-bbb0-41fc-be38-4bfce8b2550e"},"effectiveDateTime":"2022-11-10T00:00:00+00:00","valueQuantity":{"value":20.42,"unit":"kg/m2","system":"http://unitsofmeasure.org","code":"kg/m2"}}},{"fullUrl":"Observation/8883b349-e3ad-45dd-96ff-5b1ee1d9684c","resource":{"resourceType":"Observation","id":"8883b349-e3ad-45dd-96ff-5b1ee1d9684c","meta":{"profile":["http://hl7.org/fhir/us/core/StructureDefinition/us-core-head-circumference"]},"status":"final","category":[{"coding":[{"system":"http://terminology.hl7.org/CodeSystem/observation-category","code":"vital-signs","display":"Vital Signs"}]}],"code":{"coding":[{"system":"http://loinc.org","code":"9843-4"}]},"subject":{"reference":"Patient/57381009-bbb0-41fc-be38-4bfce8b2550e"},"effectiveDateTime":"2022-05-09T00:00:00+00:00","valueQuantity":{"value":3.3,"unit":"Inch","system":"http://unitsofmeasure.org","code":"[in_i]"}}},{"fullUrl":"Observation/3b984bce-b115-4877-9247-56ce2d80be63","resource":{"resourceType":"Observation","id":"3b984bce-b115-4877-9247-56ce2d80be63","meta":{"profile":["http://hl7.org/fhir/us/core/StructureDefinition/us-core-body-height"]},"status":"final","category":[{"coding":[{"system":"http://terminology.hl7.org/CodeSystem/observation-category","code":"vital-signs","display":"Vital Signs"}]}],"code":{"coding":[{"system":"http://loinc.org","code":"8302-2"}]},"subject":{"reference":"Patient/57381009-bbb0-41fc-be38-4bfce8b2550e"},"effectiveDateTime":"2022-09-15T00:00:00+00:00","valueQuantity":{"value":83,"unit":"Inch","system":"http://unitsofmeasure.org","code":"[in_i]"}}},{"fullUrl":"Observation/9ba25fd1-3bb6-4c33-9cba-53a3fc1d4fa9","resource":{"resourceType":"Observation","id":"9ba25fd1-3bb6-4c33-9cba-53a3fc1d4fa9","meta":{"profile":["http://hl7.org/fhir/us/core/StructureDefinition/us-core-body-height"]},"status":"final","category":[{"coding":[{"system":"http://terminology.hl7.org/CodeSystem/observation-category","code":"vital-signs","display":"Vital Signs"}]}],"code":{"coding":[{"system":"http://loinc.org","code":"8302-2"}]},"subject":{"reference":"Patient/57381009-bbb0-41fc-be38-4bfce8b2550e"},"effectiveDateTime":"2022-12-17T00:00:00+00:00","valueQuantity":{"value":80.5,"unit":"Inch","system":"http://unitsofmeasure.org","code":"[in_i]"}}},{"fullUrl":"Observation/ebd95278-6290-4ea8-b586-4336ba96e351","resource":{"resourceType":"Observation","id":"ebd95278-6290-4ea8-b586-4336ba96e351","meta":{"profile":["http://hl7.org/fhir/us/core/StructureDefinition/us-core-body-weight"]},"status":"final","category":[{"coding":[{"system":"http://terminology.hl7.org/CodeSystem/observation-category","code":"vital-signs","display":"Vital Signs"}]}],"code":{"coding":[{"system":"http://loinc.org","code":"29463-7"}]},"subject":{"reference":"Patient/57381009-bbb0-41fc-be38-4bfce8b2550e"},"effectiveDateTime":"2022-03-03T00:00:00+00:00","valueQuantity":{"value":28.5,"unit":"kilogram","system":"http://unitsofmeasure.org","code":"kg"}}},{"fullUrl":"Observation/7d372650-5be0-48a8-8c40-c87e62f8cb45","resource":{"resourceType":"Observation","id":"7d372650-5be0-48a8-8c40-c87e62f8cb45","meta":{"profile":["http://hl7.org/fhir/us/core/StructureDefinition/us-core-body-temperature"]},"status":"final","category":[{"coding":[{"system":"http://terminology.hl7.org/CodeSystem/observation-category","code":"vital-signs","display":"Vital Signs"}]}],"code":{"coding":[{"system":"http://loinc.org","code":"8310-5"}]},"subject":{"reference":"Patient/57381009-bbb0-41fc-be38-4bfce8b2550e"},"effectiveDateTime":"2022-11-01T00:00:00+00:00","valueQuantity":{"value":34.27,"unit":"Degrees Fahrenheit","system":"http://unitsofmeasure.org","code":"[degF]"}}},{"fullUrl":"Observation/8114cc45-348b-4454-a942-0fe4d797c2c7","resource":{"resourceType":"Observation","id":"8114cc45-348b-4454-a942-0fe4d797c2c7","meta":{"profile":["http://hl7.org/fhir/us/core/StructureDefinition/us-core-heart-rate"]},"status":"final","category":[{"coding":[{"system":"http://terminology.hl7.org/CodeSystem/observation-category","code":"vital-signs","display":"Vital Signs"}]}],"code":{"coding":[{"system":"http://loinc.org","code":"8867-4"}]},"subject":{"reference":"Patient/57381009-bbb0-41fc-be38-4bfce8b2550e"},"effectiveDateTime":"2022-08-24T00:00:00+00:00","valueQuantity":{"value":97.2,"unit":"Per Minute","system":"http://unitsofmeasure.org","code":"/min"}}},{"fullUrl":"Patient/96e1e9e1-d9aa-4a60-ae44-10aeb3513d4c","resource":{"resourceType":"Patient","id":"96e1e9e1-d9aa-4a60-ae44-10aeb3513d4c","meta":{"profile":["http://hl7.org/fhir/us/core/StructureDefinition/us-core-patient"]},"extension":[{"extension":[{"url":"ombCategory","valueCoding":{"system":"urn:oid:2.16.840.1.113883.6.238","code":"2054-5","display":"Black or African American"}},{"url":"text","valueString":"Black or African American"}],"url":"http://hl7.org/fhir/us/core/StructureDefinition/us-core-race"},{"extension":[{"url":"ombCategory","valueCoding":{"system":"urn:oid:2.16.840.1.113883.6.238","code":"2135-2","display":"Hispanic or Latino"}},{"url":"text","valueString":"Hispanic or Latino"}],"url":"http://hl7.org/fhir/us/core/StructureDefinition/us-core-ethnicity"}],"identifier":[{"type":{"coding":[{"system":"http://terminology.hl7.org/CodeSystem/v2-0203","code":"MR"}]},"system":"urn:fhirgen:mrn","value":"371-20-4290"},{"type":{"coding":[{"system":"http://terminology.hl7.org/CodeSystem/v2-0203","code":"SS"}]},"system":"http://hl7.org/fhir/sid/us-ssn","value":"535-51-9947"}],"name":[{"use":"official","family":"Bartlett","given":["Morgan"]},{"use":"maiden","family":"Patel"}],"telecom":[{"system":"phone","value":"(388)381-5253x5408","use":"home"},{"system":"email","value":"jonesangelica@gmail.com","use":"home"}],"gender":"female","birthDate":"1958-03-08","address":[{"use":"home","line":["5544 Cook Turnpike Suite 786"],"city":"Lake Tracychester","state":"NC","postalCode":"96286"},{"use":"old","line":["816 Geoffrey Keys"],"city":"New Peterstad","state":"IN","postalCode":"27426"}],"maritalStatus":{"coding":[{"system":"http://terminology.hl7.org/CodeSystem/v3-MaritalStatus","code":"L","display":"Legally Separated"}]}}},{"fullUrl":"Observation/23906ae9-8371-4670-918a-e644cf556edc","resource":{"resourceType":"Observation","id":"23906ae9-8371-4670-918a-e644cf556edc","meta":{"profile":["http://hl7.org/fhir/us/core/StructureDefinition/us-core-observation-lab"]},"status":"final","category":[{"coding":[{"system":"http://terminology.hl7.org/CodeSystem/observation-category","code":"laboratory","display":"Laboratory"}]}],"code":{"coding":[{"system":"http://loinc.org","code":"87925-4"}]},"subject":{"reference":"Patient/96e1e9e1-d9aa-4a60-ae44-10aeb3513d4c"},"effectiveDateTime":"2022-05-05T00:00:00+00:00","valueRatio":{"numerator":{"value":1},"denominator":{"value":32}}}},{"fullUrl":"Observation/b5282336-f2f0-428d-b1c2-1fc0cacd8088","resource":{"resourceType":"Observation","id":"b5282336-f2f0-428d-b1c2-1fc0cacd8088","meta":{"profile":["http://hl7.org/fhir/us/core/StructureDefinition/us-core-observation-lab"]},"status":"final","category":[{"coding":[{"system":"http://terminology.hl7.org/CodeSystem/observation-category","code":"laboratory","display":"Laboratory"}]}],"code":{"coding":[{"system":"http://loinc.org","code":"5394-2"}]},"subject":{"reference":"Patient/96e1e9e1-d9aa-4a60-ae44-10aeb3513d4c"},"effectiveDateTime":"2022-06-10T00:00:00+00:00","valueRatio":{"numerator":{"value":1},"denominator":{"value":32}}}},{"fullUrl":"Condition/89c20784-b4e3-468b-8c5d-514b38725a7e","resource":{"resourceType":"Condition","id":"89c20784-b4e3-468b-8c5d-514b38725a7e","meta":{"profile":["http://hl7.org/fhir/us/core/StructureDefinition/us-core-condition"]},"clinicalStatus":{"coding":[{"system":"http://terminology.hl7.org/CodeSystem/condition-clinical","code":"active","display":"Active"}]},"category":[{"coding":[{"system":"http://terminology.hl7.org/CodeSystem/condition-category","code":"problem-list-item"}]}],"code":{"coding":[{"system":"http://snomed.info/sct","code":"418290006"}]},"subject":{"reference":"Patient/96e1e9e1-d9aa-4a60-ae44-10aeb3513d4c"},"onsetDateTime":"2022-02-09T00:00:00+00:00"}},{"fullUrl":"Condition/18ee8763-02d5-45be-a79d-f35bf6794f9b","resource":{"resourceType":"Condition","id":"18ee8763-02d5-45be-a79d-f35bf6794f9b","meta":{"profile":["http://hl7.org/fhir/us/core/StructureDefinition/us-core-condition"]},"clinicalStatus":{"coding":[{"system":"http://terminology.hl7.org/CodeSystem/condition-clinical","code":"active","display":"Active"}]},"category":[{"coding":[{"system":"http://terminology.hl7.org/CodeSystem/condition-category","code":"problem-list-item"}]}],"code":{"coding":[{"system":"http://snomed.info/sct","code":"736686006"}]},"subject":{"reference":"Patient/96e1e9e1-d9aa-4a60-ae44-10aeb3513d4c"},"onsetDateTime":"2022-10-12T00:00:00+00:00"}},{"fullUrl":"Condition/eb3a9c69-b42b-4f53-aa85-92c9d9d7d778","resource":{"resourceType":"Condition","id":"eb3a9c69-b42b-4f53-aa85-92c9d9d7d778","meta":{"profile":["http://hl7.org/fhir/us/core/StructureDefinition/us-core-condition"]},"clinicalStatus":{"coding":[{"system":"http://terminology.hl7.org/CodeSystem/condition-clinical","code":"active","display":"Active"}]},"category":[{"coding":[{"system":"http://terminology.hl7.org/CodeSystem/condition-category","code":"problem-list-item"}]}],"code":{"coding":[{"system":"http://snomed.info/sct","code":"44882003"}]},"subject":{"reference":"Patient/96e1e9e1-d9aa-4a60-ae44-10aeb3513d4c"},"onsetDateTime":"2022-10-06T00:00:00+00:00"}},{"fullUrl":"Condition/0b9d8cd6-3e2c-4e88-a8cc-6707ca81fc0a","resource":{"resourceType":"Condition","id":"0b9d8cd6-3e2c-4e88-a8cc-6707ca81fc0a","meta":{"profile":["http://hl7.org/fhir/us/core/StructureDefinition/us-core-condition"]},"clinicalStatus":{"coding":[{"system":"http://terminology.hl7.org/CodeSystem/condition-clinical","code":"active","display":"Active"}]},"category":[{"coding":[{"system":"http://terminology.hl7.org/CodeSystem/condition-category","code":"problem-list-item"}]}],"code":{"coding":[{"system":"http://snomed.info/sct","code":"736686006"}]},"subject":{"reference":"Patient/96e1e9e1-d9aa-4a60-ae44-10aeb3513d4c"},"onsetDateTime":"2022-01-01T00:00:00+00:00"}},{"fullUrl":"Condition/4e96f7f8-836d-4917-b107-983326f2aafb","resource":{"resourceType":"Condition","id":"4e96f7f8-836d-4917-b107-983326f2aafb","meta":{"profile":["http://hl7.org/fhir/us/core/StructureDefinition/us-core-condition"]},"clinicalStatus":{"coding":[{"system":"http://terminology.hl7.org/CodeSystem/condition-clinical","code":"active","display":"Active"}]},"category":[{"coding":[{"system":"http://terminology.hl7.org/CodeSystem/condition-category","code":"problem-list-item"}]}],"code":{"coding":[{"system":"http://snomed.info/sct","code":"91554004"}]},"subject":{"reference":"Patient/96e1e9e1-d9aa-4a60-ae44-10aeb3513d4c"},"onsetDateTime":"2022-04-18T00:00:00+00:00"}},{"fullUrl":"Observation/aec5ccf5-7065-43a6-9a5b-6972e8ac4180","resource":{"resourceType":"Observation","id":"aec5ccf5-7065-43a6-9a5b-6972e8ac4180","meta":{"profile":["http://hl7.org/fhir/us/core/StructureDefinition/us-core-observation-lab"]},"status":"final","category":[{"coding":[{"system":"http://terminology.hl7.org/CodeSystem/observation-category","code":"laboratory","display":"Laboratory"}]}],"code":{"coding":[{"system":"http://loinc.org","code":"804-5"}]},"subject":{"reference":"Patient/96e1e9e1-d9aa-4a60-ae44-10aeb3513d4c"},"effectiveDateTime":"2022-09-29T00:00:00+00:00","valueQuantity":{"value":10.2}}},{"fullUrl":"Observation/12f549f9-86b6-4d2d-b03a-229153db22cc","resource":{"resourceType":"Observation","id":"12f549f9-86b6-4d2d-b03a-229153db22cc","meta":{"profile":["http://hl7.org/fhir/us/core/StructureDefinition/us-core-observation-lab"]},"status":"final","category":[{"coding":[{"system":"http://terminology.hl7.org/CodeSystem/observation-category","code":"laboratory","display":"Laboratory"}]}],"code":{"coding":[{"system":"http://loinc.org","code":"49498-9"}]},"subject":{"reference":"Patient/96e1e9e1-d9aa-4a60-ae44-10aeb3513d4c"},"effectiveDateTime":"2022-03-22T00:00:00+00:00","valueQuantity":{"value":6.5}}},{"fullUrl":"Observation/ac80ae64-b7a6-42fd-930d-076b79f5c12d","resource":{"resourceType":"Observation","id":"ac80ae64-b7a6-42fd-930d-076b79f5c12d","meta":{"profile":["http://hl7.org/fhir/us/core/StructureDefinition/us-core-observation-lab"]},"status":"final","category":[{"coding":[{"system":"http://terminology.hl7.org/CodeSystem/observation-category","code":"laboratory","display":"Laboratory"}]}],"code":{"coding":[{"system":"http://loinc.org","code":"26464-8"}]},"subject":{"reference":"Patient/96e1e9e1-d9aa-4a60-ae44-10aeb3513d4c"},"effectiveDateTime":"2022-11-11T00:00:00+00:00","valueQuantity":{"value":9.2}}},{"fullUrl":"Observation/231db26a-d9fa-4d9f-9bb9-cf80e25c4ae4","resource":{"resourceType":"Observation","id":"231db26a-d9fa-4d9f-9bb9-cf80e25c4ae4","meta":{"profile":["http://hl7.org/fhir/us/core/StructureDefinition/us-core-bmi"]},"status":"final","category":[{"coding":[{"system":"http://terminology.hl7.org/CodeSystem/observation-category","code":"vital-signs","display":"Vital Signs"}]}],"code":{"coding":[{"system":"http://loinc.org","code":"39156-5"}]},"subject":{"reference":"Patient/96e1e9e1-d9aa-4a60-ae44-10aeb3513d4c"},"effectiveDateTime":"2022-09-05T00:00:00+00:00","valueQuantity":{"value":20.42,"unit":"kg/m2","system":"http://unitsofmeasure.org","code":"kg/m2"}}},{"fullUrl":"Observation/106cbcc2-d3f0-413d-8424-36c74f1097fa","resource":{"resourceType":"Observation","id":"106cbcc2-d3f0-413d-8424-36c74f1097fa","meta":{"profile":["http://hl7.org/fhir/us/core/StructureDefinition/us-core-bmi"]},"status":"final","category":[{"coding":[{"system":"http://terminology.hl7.org/CodeSystem/observation-category","code":"vital-signs","display":"Vital Signs"}]}],"code":{"coding":[{"system":"http://loinc.org","code":"39156-5"}]},"subject":{"reference":"Patient/96e1e9e1-d9aa-4a60-ae44-10aeb3513d4c"},"effectiveDateTime":"2022-03-09T00:00:00+00:00","valueQuantity":{"value":29.65,"unit":"kg/m2","system":"http://unitsofmeasure.org","code":"kg/m2"}}},{"fullUrl":"Observation/6b7e9210-8470-4126-abd5-e5ca21323701","resource":{"resourceType":"Observation","id":"6b7e9210-8470-4126-abd5-e5ca21323701","meta":{"profile":["http://hl7.org/fhir/us/core/StructureDefinition/us-core-head-circumference"]},"status":"final","category":[{"coding":[{"system":"http://terminology.hl7.org/CodeSystem/observation-category","code":"vital-signs","display":"Vital Signs"}]}],"code":{"coding":[{"system":"http://loinc.org","code":"9843-4"}]},"subject":{"reference":"Patient/96e1e9e1-d9aa-4a60-ae44-10aeb3513d4c"},"effectiveDateTime":"2022-12-22T00:00:00+00:00","valueQuantity":{"value":5,"unit":"Inch","system":"http://unitsofmeasure.org","code":"[in_i]"}}},{"fullUrl":"Observation/7bebaf2a-df06-403b-b6db-0b8099eb7e1b","resource":{"resourceType":"Observation","id":"7bebaf2a-df06-403b-b6db-0b8099eb7e1b","meta":{"profile":["http://hl7.org/fhir/us/core/StructureDefinition/us-core-body-height"]},"status":"final","category":[{"coding":[{"system":"http://terminology.hl7.org/CodeSystem/observation-category","code":"vital-signs","display":"Vital Signs"}]}],"code":{"coding":[{"system":"http://loinc.org","code":"8302-2"}]},"subject":{"reference":"Patient/96e1e9e1-d9aa-4a60-ae44-10aeb3513d4c"},"effectiveDateTime":"2022-04-11T00:00:00+00:00","valueQuantity":{"value":81,"unit":"Inch","system":"http://unitsofmeasure.org","code":"[in_i]"}}},{"fullUrl":"Observation/d763cba7-31fe-4c56-b083-cf71066342c5","resource":{"resourceType":"Observation","id":"d763cba7-31fe-4c56-b083-cf71066342c5","meta":{"profile":["http://hl7.org/fhir/us/core/StructureDefinition/us-core-body-height"]},"status":"final","category":[{"coding":[{"system":"http://terminology.hl7.org/CodeSystem/observation-category","code":"vital-signs","display":"Vital Signs"}]}],"code":{"coding":[{"system":"http://loinc.org","code":"8302-2"}]},"subject":{"reference":"Patient/96e1e9e1-d9aa-4a60-ae44-10aeb3513d4c"},"effectiveDateTime":"2022-05-28T00:00:00+00:00","valueQuantity":{"value":61.9,"unit":"Inch","system":"http://unitsofmeasure.org","code":"[in_i]"}}},{"fullUrl":"Observation/6e2650a0-3593-4eb3-b1ed-6180082bfb78","resource":{"resourceType":"Observation","id":"6e2650a0-3593-4eb3-b1ed-6180082bfb78","meta":{"profile":["http://hl7.org/fhir/us/core/StructureDefinition/us-core-body-weight"]},"status":"final","category":[{"coding":[{"system":"http://terminology.hl7.org/CodeSystem/observation-category","code":"vital-signs","display":"Vital Signs"}]}],"code":{"coding":[{"system":"http://loinc.org","code":"29463-7"}]},"subject":{"reference":"Patient/96e1e9e1-d9aa-4a60-ae44-10aeb3513d4c"},"effectiveDateTime":"2022-12-13T00:00:00+00:00","valueQuantity":{"value":82.53,"unit":"kilogram","system":"http://unitsofmeasure.org","code":"kg"}}},{"fullUrl":"Observation/6b36306e-fd87-43df-985d-79de204b9575","resource":{"resourceType":"Observation","id":"6b36306e-fd87-43df-985d-79de204b9575","meta":{"profile":["http://hl7.org/fhir/us/core/StructureDefinition/us-core-body-weight"]},"status":"final","category":[{"coding":[{"system":"http://terminology.hl7.org/CodeSystem/observation-category","code":"vital-signs","display":"Vital Signs"}]}],"code":{"coding":[{"system":"http://loinc.org","code":"29463-7"}]},"subject":{"reference":"Patient/96e1e9e1-d9aa-4a60-ae44-10aeb3513d4c"},"effectiveDateTime":"2022-07-09T00:00:00+00:00","valueQuantity":{"value":96.44,"unit":"kilogram","system":"http://unitsofmeasure.org","code":"kg"}}},{"fullUrl":"Observation/6b8f6fa9-64ed-4ac9-a40a-cc26ca4be0d7","resource":{"resourceType":"Observation","id":"6b8f6fa9-64ed-4ac9-a40a-cc26ca4be0d7","meta":{"profile":["http://hl7.org/fhir/us/core/StructureDefinition/us-core-body-temperature"]},"status":"final","category":[{"coding":[{"system":"http://terminology.hl7.org/CodeSystem/observation-category","code":"vital-signs","display":"Vital Signs"}]}],"code":{"coding":[{"system":"http://loinc.org","code":"8310-5"}]},"subject":{"reference":"Patient/96e1e9e1-d9aa-4a60-ae44-10aeb3513d4c"},"effectiveDateTime":"2022-07-11T00:00:00+00:00","valueQuantity":{"value":107.09,"unit":"Degrees Fahrenheit","system":"http://unitsofmeasure.org","code":"[degF]"}}},{"fullUrl":"Observation/c9b00f9e-32b0-4af5-8f3f-9377d5c9aa78","resource":{"resourceType":"Observation","id":"c9b00f9e-32b0-4af5-8f3f-9377d5c9aa78","meta":{"profile":["http://hl7.org/fhir/us/core/StructureDefinition/us-core-heart-rate"]},"status":"final","category":[{"coding":[{"system":"http://terminology.hl7.org/CodeSystem/observation-category","code":"vital-signs","display":"Vital Signs"}]}],"code":{"coding":[{"system":"http://loinc.org","code":"8867-4"}]},"subject":{"reference":"Patient/96e1e9e1-d9aa-4a60-ae44-10aeb3513d4c"},"effectiveDateTime":"2022-06-18T00:00:00+00:00","valueQuantity":{"value":98.5,"unit":"Per Minute","system":"http://unitsofmeasure.org","code":"/min"}}},{"fullUrl":"Observation/84a11f1d-226e-4acd-8cb1-f80d9163fbff","resource":{"resourceType":"Observation","id":"84a11f1d-226e-4acd-8cb1-f80d9163fbff","meta":{"profile":["http://hl7.org/fhir/us/core/StructureDefinition/us-core-heart-rate"]},"status":"final","category":[{"coding":[{"system":"http://terminology.hl7.org/CodeSystem/observation-category","code":"vital-signs","display":"Vital Signs"}]}],"code":{"coding":[{"system":"http://loinc.org","code":"8867-4"}]},"subject":{"reference":"Patient/96e1e9e1-d9aa-4a60-ae44-10aeb3513d4c"},"effectiveDateTime":"2022-08-01T00:00:00+00:00","valueQuantity":{"value":98.4,"unit":"Per Minute","system":"http://unitsofmeasure.org","code":"/min"}}},{"fullUrl":"Patient/a9471efd-b765-47e5-97b7-4a96e133bb08","resource":{"resourceType":"Patient","id":"a9471efd-b765-47e5-97b7-4a96e133bb08","meta":{"profile":["http://hl7.org/fhir/us/core/StructureDefinition/us-core-patient"]},"extension":[{"extension":[{"url":"ombCategory","valueCoding":{"system":"urn:oid:2.16.840.1.113883.6.238","code":"2076-8","display":"Native Hawaiian or Other Pacific Islander"}},{"url":"text","valueString":"Native Hawaiian or Other Pacific Islander"}],"url":"http://hl7.org/fhir/us/core/StructureDefinition/us-core-race"},{"extension":[{"url":"ombCategory","valueCoding":{"system":"urn:oid:2.16.840.1.113883.6.238","code":"2186-5","display":"Non Hispanic or Latino"}},{"url":"text","valueString":"Non Hispanic or Latino"}],"url":"http://hl7.org/fhir/us/core/StructureDefinition/us-core-ethnicity"}],"identifier":[{"type":{"coding":[{"system":"http://terminology.hl7.org/CodeSystem/v2-0203","code":"MR"}]},"system":"urn:fhirgen:mrn","value":"379-95-2559"},{"type":{"coding":[{"system":"http://terminology.hl7.org/CodeSystem/v2-0203","code":"SS"}]},"system":"http://hl7.org/fhir/sid/us-ssn","value":"493-65-4724"}],"name":[{"use":"official","family":"Contreras","given":["Alexis"]},{"use":"maiden","family":"Anderson"}],"telecom":[{"system":"phone","value":"(925)148-7738","use":"mobile"},{"system":"email","value":"danielle09@yahoo.com","use":"mobile"}],"gender":"other","birthDate":"2003-02-04","address":[{"use":"home","line":["607 Carl Ferry"],"city":"Mezashire","state":"NV","postalCode":"84802"},{"use":"old","line":["3569 Dyer Curve"],"city":"Hensleyside","state":"IA","postalCode":"63093"}],"maritalStatus":{"coding":[{"system":"http://terminology.hl7.org/CodeSystem/v3-MaritalStatus","code":"M","display":"Married"}]}}},{"fullUrl":"Observation/8911d231-5d57-4bfe-8ea8-a1029c6a499f","resource":{"resourceType":"Observation","id":"8911d231-5d57-4bfe-8ea8-a1029c6a499f","meta":{"profile":["http://hl7.org/fhir/us/core/StructureDefinition/us-core-observation-lab"]},"status":"final","category":[{"coding":[{"system":"http://terminology.hl7.org/CodeSystem/observation-category","code":"laboratory","display":"Laboratory"}]}],"code":{"coding":[{"system":"http://loinc.org","code":"71793-4"}]},"subject":{"reference":"Patient/a9471efd-b765-47e5-97b7-4a96e133bb08"},"effectiveDateTime":"2022-12-01T00:00:00+00:00","valueRatio":{"numerator":{"value":1},"denominator":{"value":32}}}},{"fullUrl":"Observation/05c9bd42-c7cd-4225-848c-092f6ea26ef1","resource":{"resourceType":"Observation","id":"05c9bd42-c7cd-4225-848c-092f6ea26ef1","meta":{"profile":["http://hl7.org/fhir/us/core/StructureDefinition/us-core-observation-lab"]},"status":"final","category":[{"coding":[{"system":"http://terminology.hl7.org/CodeSystem/observation-category","code":"laboratory","display":"Laboratory"}]}],"code":{"coding":[{"system":"http://loinc.org","code":"11084-1"}]},"subject":{"reference":"Patient/a9471efd-b765-47e5-97b7-4a96e133bb08"},"effectiveDateTime":"2022-06-28T00:00:00+00:00","valueRatio":{"numerator":{"value":1},"denominator":{"value":64}}}},{"fullUrl":"Condition/7fd3be70-984c-41ea-9805-a0ae3ca470c1","resource":{"resourceType":"Condition","id":"7fd3be70-984c-41ea-9805-a0ae3ca470c1","meta":{"profile":["http://hl7.org/fhir/us/core/StructureDefinition/us-core-condition"]},"clinicalStatus":{"coding":[{"system":"http://terminology.hl7.org/CodeSystem/condition-clinical","code":"active","display":"Active"}]},"category":[{"coding":[{"system":"http://terminology.hl7.org/CodeSystem/condition-category","code":"problem-list-item"}]}],"code":{"coding":[{"system":"http://snomed.info/sct","code":"418290006"}]},"subject":{"reference":"Patient/a9471efd-b765-47e5-97b7-4a96e133bb08"},"onsetDateTime":"2022-06-12T00:00:00+00:00"}},{"fullUrl":"Condition/d6f5bd1a-991f-48a2-94cf-2658b44cca49","resource":{"resourceType":"Condition","id":"d6f5bd1a-991f-48a2-94cf-2658b44cca49","meta":{"profile":["http://hl7.org/fhir/us/core/StructureDefinition/us-core-condition"]},"clinicalStatus":{"coding":[{"system":"http://terminology.hl7.org/CodeSystem/condition-clinical","code":"active","display":"Active"}]},"category":[{"coding":[{"system":"http://terminology.hl7.org/CodeSystem/condition-category","code":"problem-list-item"}]}],"code":{"coding":[{"system":"http://snomed.info/sct","code":"44882003"}]},"subject":{"reference":"Patient/a9471efd-b765-47e5-97b7-4a96e133bb08"},"onsetDateTime":"2022-07-29T00:00:00+00:00"}},{"fullUrl":"Condition/4437abd4-81f6-4a75-af26-5e92851392cc","resource":{"resourceType":"Condition","id":"4437abd4-81f6-4a75-af26-5e92851392cc","meta":{"profile":["http://hl7.org/fhir/us/core/StructureDefinition/us-core-condition"]},"clinicalStatus":{"coding":[{"system":"http://terminology.hl7.org/CodeSystem/condition-clinical","code":"active","display":"Active"}]},"category":[{"coding":[{"system":"http://terminology.hl7.org/CodeSystem/condition-category","code":"problem-list-item"}]}],"code":{"coding":[{"system":"http://snomed.info/sct","code":"736686006"}]},"subject":{"reference":"Patient/a9471efd-b765-47e5-97b7-4a96e133bb08"},"onsetDateTime":"2022-02-21T00:00:00+00:00"}},{"fullUrl":"Condition/0b64ef0f-12d4-457b-85bf-cb1407229178","resource":{"resourceType":"Condition","id":"0b64ef0f-12d4-457b-85bf-cb1407229178","meta":{"profile":["http://hl7.org/fhir/us/core/StructureDefinition/us-core-condition"]},"clinicalStatus":{"coding":[{"system":"http://terminology.hl7.org/CodeSystem/condition-clinical","code":"active","display":"Active"}]},"category":[{"coding":[{"system":"http://terminology.hl7.org/CodeSystem/condition-category","code":"problem-list-item"}]}],"code":{"coding":[{"system":"http://snomed.info/sct","code":"709977002"}]},"subject":{"reference":"Patient/a9471efd-b765-47e5-97b7-4a96e133bb08"},"onsetDateTime":"2022-09-18T00:00:00+00:00"}},{"fullUrl":"Condition/ec4e662d-072c-4769-a1d6-e380a50141eb","resource":{"resourceType":"Condition","id":"ec4e662d-072c-4769-a1d6-e380a50141eb","meta":{"profile":["http://hl7.org/fhir/us/core/StructureDefinition/us-core-condition"]},"clinicalStatus":{"coding":[{"system":"http://terminology.hl7.org/CodeSystem/condition-clinical","code":"active","display":"Active"}]},"category":[{"coding":[{"system":"http://terminology.hl7.org/CodeSystem/condition-category","code":"problem-list-item"}]}],"code":{"coding":[{"system":"http://snomed.info/sct","code":"418290006"}]},"subject":{"reference":"Patient/a9471efd-b765-47e5-97b7-4a96e133bb08"},"onsetDateTime":"2022-12-11T00:00:00+00:00"}},{"fullUrl":"Observation/684e2000-179b-4999-bb17-d3112d5b5bba","resource":{"resourceType":"Observation","id":"684e2000-179b-4999-bb17-d3112d5b5bba","meta":{"profile":["http://hl7.org/fhir/us/core/StructureDefinition/us-core-observation-lab"]},"status":"final","category":[{"coding":[{"system":"http://terminology.hl7.org/CodeSystem/observation-category","code":"laboratory","display":"Laboratory"}]}],"code":{"coding":[{"system":"http://loinc.org","code":"26464-8"}]},"subject":{"reference":"Patient/a9471efd-b765-47e5-97b7-4a96e133bb08"},"effectiveDateTime":"2022-04-15T00:00:00+00:00","valueQuantity":{"value":10.2}}},{"fullUrl":"Observation/fff13233-404c-4cd3-a12b-506a2b301fd9","resource":{"resourceType":"Observation","id":"fff13233-404c-4cd3-a12b-506a2b301fd9","meta":{"profile":["http://hl7.org/fhir/us/core/StructureDefinition/us-core-observation-lab"]},"status":"final","category":[{"coding":[{"system":"http://terminology.hl7.org/CodeSystem/observation-category","code":"laboratory","display":"Laboratory"}]}],"code":{"coding":[{"system":"http://loinc.org","code":"6690-2"}]},"subject":{"reference":"Patient/a9471efd-b765-47e5-97b7-4a96e133bb08"},"effectiveDateTime":"2022-05-10T00:00:00+00:00","valueQuantity":{"value":8.1}}},{"fullUrl":"Observation/79525d30-316f-4e11-a265-4d08f0d52c5f","resource":{"resourceType":"Observation","id":"79525d30-316f-4e11-a265-4d08f0d52c5f","meta":{"profile":["http://hl7.org/fhir/us/core/StructureDefinition/us-core-observation-lab"]},"status":"final","category":[{"coding":[{"system":"http://terminology.hl7.org/CodeSystem/observation-category","code":"laboratory","display":"Laboratory"}]}],"code":{"coding":[{"system":"http://loinc.org","code":"26464-8"}]},"subject":{"reference":"Patient/a9471efd-b765-47e5-97b7-4a96e133bb08"},"effectiveDateTime":"2022-10-11T00:00:00+00:00","valueQuantity":{"value":9.8}}},{"fullUrl":"Observation/46bf44f5-656f-4ab0-afc4-d4fe2b626699","resource":{"resourceType":"Observation","id":"46bf44f5-656f-4ab0-afc4-d4fe2b626699","meta":{"profile":["http://hl7.org/fhir/us/core/StructureDefinition/us-core-bmi"]},"status":"final","category":[{"coding":[{"system":"http://terminology.hl7.org/CodeSystem/observation-category","code":"vital-signs","display":"Vital Signs"}]}],"code":{"coding":[{"system":"http://loinc.org","code":"39156-5"}]},"subject":{"reference":"Patient/a9471efd-b765-47e5-97b7-4a96e133bb08"},"effectiveDateTime":"2022-12-07T00:00:00+00:00","valueQuantity":{"value":13.71,"unit":"kg/m2","system":"http://unitsofmeasure.org","code":"kg/m2"}}},{"fullUrl":"Observation/45601d0b-05b7-42c6-964e-f07579c44ce0","resource":{"resourceType":"Observation","id":"45601d0b-05b7-42c6-964e-f07579c44ce0","meta":{"profile":["http://hl7.org/fhir/us/core/StructureDefinition/us-core-bmi"]},"status":"final","category":[{"coding":[{"system":"http://terminology.hl7.org/CodeSystem/observation-category","code":"vital-signs","display":"Vital Signs"}]}],"code":{"coding":[{"system":"http://loinc.org","code":"39156-5"}]},"subject":{"reference":"Patient/a9471efd-b765-47e5-97b7-4a96e133bb08"},"effectiveDateTime":"2022-05-09T00:00:00+00:00","valueQuantity":{"value":11.67,"unit":"kg/m2","system":"http://unitsofmeasure.org","code":"kg/m2"}}},{"fullUrl":"Observation/7f0ca18b-d854-4a17-8267-5819f6bf2637","resource":{"resourceType":"Observation","id":"7f0ca18b-d854-4a17-8267-5819f6bf2637","meta":{"profile":["http://hl7.org/fhir/us/core/StructureDefinition/us-core-head-circumference"]},"status":"final","category":[{"coding":[{"system":"http://terminology.hl7.org/CodeSystem/observation-category","code":"vital-signs","display":"Vital Signs"}]}],"code":{"coding":[{"system":"http://loinc.org","code":"9843-4"}]},"subject":{"reference":"Patient/a9471efd-b765-47e5-97b7-4a96e133bb08"},"effectiveDateTime":"2022-02-28T00:00:00+00:00","valueQuantity":{"value":4.6,"unit":"Inch","system":"http://unitsofmeasure.org","code":"[in_i]"}}},{"fullUrl":"Observation/3f02c304-7af3-4097-a549-99eb58f22c5d","resource":{"resourceType":"Observation","id":"3f02c304-7af3-4097-a549-99eb58f22c5d","meta":{"profile":["http://hl7.org/fhir/us/core/StructureDefinition/us-core-head-circumference"]},"status":"final","category":[{"coding":[{"system":"http://terminology.hl7.org/CodeSystem/observation-category","code":"vital-signs","display":"Vital Signs"}]}],"code":{"coding":[{"system":"http://loinc.org","code":"9843-4"}]},"subject":{"reference":"Patient/a9471efd-b765-47e5-97b7-4a96e133bb08"},"effectiveDateTime":"2022-01-23T00:00:00+00:00","valueQuantity":{"value":7.2,"unit":"Inch","system":"http://unitsofmeasure.org","code":"[in_i]"}}},{"fullUrl":"Observation/a177c8b0-683a-4a35-9252-38bcf4c680c2","resource":{"resourceType":"Observation","id":"a177c8b0-683a-4a35-9252-38bcf4c680c2","meta":{"profile":["http://hl7.org/fhir/us/core/StructureDefinition/us-core-body-height"]},"status":"final","category":[{"coding":[{"system":"http://terminology.hl7.org/CodeSystem/observation-category","code":"vital-signs","display":"Vital Signs"}]}],"code":{"coding":[{"system":"http://loinc.org","code":"8302-2"}]},"subject":{"reference":"Patient/a9471efd-b765-47e5-97b7-4a96e133bb08"},"effectiveDateTime":"2022-03-08T00:00:00+00:00","valueQuantity":{"value":69.6,"unit":"Inch","system":"http://unitsofmeasure.org","code":"[in_i]"}}},{"fullUrl":"Observation/3f8fa648-4628-48d5-8e30-6e6e09ad7dc1","resource":{"resourceType":"Observation","id":"3f8fa648-4628-48d5-8e30-6e6e09ad7dc1","meta":{"profile":["http://hl7.org/fhir/us/core/StructureDefinition/us-core-body-weight"]},"status":"final","category":[{"coding":[{"system":"http://terminology.hl7.org/CodeSystem/observation-category","code":"vital-signs","display":"Vital Signs"}]}],"code":{"coding":[{"system":"http://loinc.org","code":"29463-7"}]},"subject":{"reference":"Patient/a9471efd-b765-47e5-97b7-4a96e133bb08"},"effectiveDateTime":"2022-11-13T00:00:00+00:00","valueQuantity":{"value":89.96,"unit":"kilogram","system":"http://unitsofmeasure.org","code":"kg"}}},{"fullUrl":"Observation/58733fdc-9d89-42dd-a95c-d526e3ae0a1b","resource":{"resourceType":"Observation","id":"58733fdc-9d89-42dd-a95c-d526e3ae0a1b","meta":{"profile":["http://hl7.org/fhir/us/core/StructureDefinition/us-core-body-weight"]},"status":"final","category":[{"coding":[{"system":"http://terminology.hl7.org/CodeSystem/observation-category","code":"vital-signs","display":"Vital Signs"}]}],"code":{"coding":[{"system":"http://loinc.org","code":"29463-7"}]},"subject":{"reference":"Patient/a9471efd-b765-47e5-97b7-4a96e133bb08"},"effectiveDateTime":"2022-03-26T00:00:00+00:00","valueQuantity":{"value":132.03,"unit":"kilogram","system":"http://unitsofmeasure.org","code":"kg"}}},{"fullUrl":"Observation/818aafc4-c1e0-406a-a666-b1d970a4780d","resource":{"resourceType":"Observation","id":"818aafc4-c1e0-406a-a666-b1d970a4780d","meta":{"profile":["http://hl7.org/fhir/us/core/StructureDefinition/us-core-body-temperature"]},"status":"final","category":[{"coding":[{"system":"http://terminology.hl7.org/CodeSystem/observation-category","code":"vital-signs","display":"Vital Signs"}]}],"code":{"coding":[{"system":"http://loinc.org","code":"8310-5"}]},"subject":{"reference":"Patient/a9471efd-b765-47e5-97b7-4a96e133bb08"},"effectiveDateTime":"2022-03-25T00:00:00+00:00","valueQuantity":{"value":133.94,"unit":"Degrees Fahrenheit","system":"http://unitsofmeasure.org","code":"[degF]"}}},{"fullUrl":"Observation/7eb0782c-c7b3-4ba9-8704-b2eccc821154","resource":{"resourceType":"Observation","id":"7eb0782c-c7b3-4ba9-8704-b2eccc821154","meta":{"profile":["http://hl7.org/fhir/us/core/StructureDefinition/us-core-body-temperature"]},"status":"final","category":[{"coding":[{"system":"http://terminology.hl7.org/CodeSystem/observation-category","code":"vital-signs","display":"Vital Signs"}]}],"code":{"coding":[{"system":"http://loinc.org","code":"8310-5"}]},"subject":{"reference":"Patient/a9471efd-b765-47e5-97b7-4a96e133bb08"},"effectiveDateTime":"2022-07-21T00:00:00+00:00","valueQuantity":{"value":71.65,"unit":"Degrees Fahrenheit","system":"http://unitsofmeasure.org","code":"[degF]"}}},{"fullUrl":"Observation/5f6fc6d5-1c87-4379-8215-f0f8bdc2cd0f","resource":{"resourceType":"Observation","id":"5f6fc6d5-1c87-4379-8215-f0f8bdc2cd0f","meta":{"profile":["http://hl7.org/fhir/us/core/StructureDefinition/us-core-heart-rate"]},"status":"final","category":[{"coding":[{"system":"http://terminology.hl7.org/CodeSystem/observation-category","code":"vital-signs","display":"Vital Signs"}]}],"code":{"coding":[{"system":"http://loinc.org","code":"8867-4"}]},"subject":{"reference":"Patient/a9471efd-b765-47e5-97b7-4a96e133bb08"},"effectiveDateTime":"2022-03-08T00:00:00+00:00","valueQuantity":{"value":97.2,"unit":"Per Minute","system":"http://unitsofmeasure.org","code":"/min"}}},{"fullUrl":"Observation/fca5187e-4d7e-4b68-a560-850d406a5113","resource":{"resourceType":"Observation","id":"fca5187e-4d7e-4b68-a560-850d406a5113","meta":{"profile":["http://hl7.org/fhir/us/core/StructureDefinition/us-core-heart-rate"]},"status":"final","category":[{"coding":[{"system":"http://terminology.hl7.org/CodeSystem/observation-category","code":"vital-signs","display":"Vital Signs"}]}],"code":{"coding":[{"system":"http://loinc.org","code":"8867-4"}]},"subject":{"reference":"Patient/a9471efd-b765-47e5-97b7-4a96e133bb08"},"effectiveDateTime":"2022-07-16T00:00:00+00:00","valueQuantity":{"value":100.2,"unit":"Per Minute","system":"http://unitsofmeasure.org","code":"/min"}}}]}