{"resourceType":"Bundle","id":"cba05b5c-87cf-4c72-b2fc-f64e3bdd7a67","type":"transaction","entry":[{"fullUrl":"Patient/32e38233-ed98-494d-babf-dee3c4514954","resource":{"resourceType":"Patient","id":"32e38233-ed98-494d-babf-dee3c4514954","identifier":[{"type":{"coding":[{"system":"http://terminology.hl7.org/CodeSystem/v2-0203","code":"MR"}]},"system":"urn:fhirgen:mrn","value":"429-48-8355"}],"name":[{"use":"official","family":"Baker","given":["Frederick"]},{"use":"maiden","family":"Thompson"}],"telecom":[{"system":"phone","value":"(220)651-7196","use":"mobile"},{"system":"email","value":"melissamunoz@gmail.com","use":"home"}],"gender":"male","birthDate":"1979-04-27","address":[{"use":"home","line":["93396 Carr Mills Suite 352"],"city":"Ronaldmouth","state":"MI","postalCode":"30498"},{"use":"old","line":["867 Patricia Square Suite 020"],"city":"North Dawnview","state":"CA","postalCode":"35742"}]},"request":{"method":"POST","url":"Patient"}},{"fullUrl":"Observation/80df70c1-2977-4847-95f3-1e56dcb097e7","resource":{"resourceType":"Observation","id":"80df70c1-2977-4847-95f3-1e56dcb097e7","status":"final","code":{"coding":[{"system":"http://loinc.org","code":"31147-2"}]},"subject":{"reference":"Patient/32e38233-ed98-494d-babf-dee3c4514954"},"effectiveDateTime":"2022-06-28T00:00:00+00:00","valueRatio":{"numerator":{"value":1},"denominator":{"value":64}}},"request":{"method":"POST","url":"Observation"}},{"fullUrl":"Observation/365cbf42-7805-435c-a4f3-3ffe3bd34380","resource":{"resourceType":"Observation","id":"365cbf42-7805-435c-a4f3-3ffe3bd34380","status":"final","code":{"coding":[{"system":"http://loinc.org","code":"47476-7"}]},"subject":{"reference":"Patient/32e38233-ed98-494d-babf-dee3c4514954"},"effectiveDateTime":"2022-10-17T00:00:00+00:00","valueRatio":{"numerator":{"value":1},"denominator":{"value":4}}},"request":{"method":"POST","url":"Observation"}},{"fullUrl":"Condition/2e3d1783-e026-40e8-8ecf-7639b214c8da","resource":{"resourceType":"Condition","id":"2e3d1783-e026-40e8-8ecf-7639b214c8da","code":{"coding":[{"system":"http://snomed.info/sct","code":"56317004"}]},"subject":{"reference":"Patient/32e38233-ed98-494d-babf-dee3c4514954"},"onsetDateTime":"2022-12-13T00:00:00+00:00"},"request":{"method":"POST","url":"Condition"}},{"fullUrl":"Condition/48c6ef1a-a66f-4f15-8102-61ed0220a1c7","resource":{"resourceType":"Condition","id":"48c6ef1a-a66f-4f15-8102-61ed0220a1c7","code":{"coding":[{"system":"http://snomed.info/sct","code":"44882003"}]},"subject":{"reference":"Patient/32e38233-ed98-494d-babf-dee3c4514954"},"onsetDateTime":"2022-04-10T00:00:00+00:00"},"request":{"method":"POST","url":"Condition"}},{"fullUrl":"Condition/67ebfc53-a0e4-4139-9ce6-c1af560d2b75","resource":{"resourceType":"Condition","id":"67ebfc53-a0e4-4139-9ce6-c1af560d2b75","code":{"coding":[{"system":"http://snomed.info/sct","code":"405737000"}]},"subject":{"reference":"Patient/32e38233-ed98-494d-babf-dee3c4514954"},"onsetDateTime":"2022-05-05T00:00:00+00:00"},"request":{"method":"POST","url":"Condition"}},{"fullUrl":"Condition/66016c0b-fbc9-407a-8b42-763027d819d0","resource":{"resourceType":"Condition","id":"66016c0b-fbc9-407a-8b42-763027d819d0","code":{"coding":[{"system":"http://snomed.info/sct","code":"297123002"}]},"subject":{"reference":"Patient/32e38233-ed98-494d-babf-dee3c4514954"},"onsetDateTime":"2022-09-16T00:00:00+00:00"},"request":{"method":"POST","url":"Condition"}},{"fullUrl":"Observation/864bf37e-0d39-43b8-a7e6-0ba4c663bf43","resource":{"resourceType":"Observation","id":"864bf37e-0d39-43b8-a7e6-0ba4c663bf43","status":"final","code":{"coding":[{"system":"http://loinc.org","code":"26464-8"}]},"subject":{"reference":"Patient/32e38233-ed98-494d-babf-dee3c4514954"},"effectiveDateTime":"2022-06-25T00:00:00+00:00","valueQuantity":{"value":10.5}},"request":{"method":"POST","url":"Observation"}},{"fullUrl":"Observation/9733779f-7405-49e0-aa4d-48a7e6b81717","resource":{"resourceType":"Observation","id":"9733779f-7405-49e0-aa4d-48a7e6b81717","status":"final","code":{"coding":[{"system":"http://loinc.org","code":"804-5"}]},"subject":{"reference":"Patient/32e38233-ed98-494d-babf-dee3c4514954"},"effectiveDateTime":"2022-09-04T00:00:00+00:00","valueQuantity":{"value":8}},"request":{"method":"POST","url":"Observation"}},{"fullUrl":"Observation/919999dd-867f-4b7c-9fc4-d0e705405067","resource":{"resourceType":"Observation","id":"919999dd-867f-4b7c-9fc4-d0e705405067","status":"final","code":{"coding":[{"system":"http://loinc.org","code":"26464-8"}]},"subject":{"reference":"Patient/32e38233-ed98-494d-babf-dee3c4514954"},"effectiveDateTime":"2022-11-29T00:00:00+00:00","valueQuantity":{"value":8.8}},"request":{"method":"POST","url":"Observation"}},{"fullUrl":"Observation/29332e78-e861-4429-b2f2-894ce77c60e5","resource":{"resourceType":"Observation","id":"29332e78-e861-4429-b2f2-894ce77c60e5","status":"final","code":{"coding":[{"system":"http://loinc.org","code":"49498-9"}]},"subject":{"reference":"Patient/32e38233-ed98-494d-babf-dee3c4514954"},"effectiveDateTime":"2022-09-23T00:00:00+00:00"},"request":{"method":"POST","url":"Observation"}},{"fullUrl":"Observation/1159fbeb-117d-4ef5-9324-94d10991d05d","resource":{"resourceType":"Observation","id":"1159fbeb-117d-4ef5-9324-94d10991d05d","status":"final","code":{"coding":[{"system":"http://loinc.org","code":"49498-9"}]},"subject":{"reference":"Patient/32e38233-ed98-494d-babf-dee3c4514954"},"effectiveDateTime":"2022-07-14T00:00:00+00:00"},"request":{"method":"POST","url":"Observation"}},{"fullUrl":"Procedure/d87263aa-89d4-4795-ac38-cba36777c02d","resource":{"resourceType":"Procedure","id":"d87263aa-89d4-4795-ac38-cba36777c02d","status":"completed","code":{"coding":[{"system":"http://snomed.info/sct","code":"104001"}]},"subject":{"reference":"Patient/32e38233-ed98-494d-babf-dee3c4514954"},"performedDateTime":"2022-04-25T00:00:00+00:00"},"request":{"method":"POST","url":"Procedure"}},{"fullUrl":"Procedure/c6b32421-3e2a-4603-b62e-b026e87134ec","resource":{"resourceType":"Procedure","id":"c6b32421-3e2a-4603-b62e-b026e87134ec","status":"completed","code":{"coding":[{"system":"http://snomed.info/sct","code":"104001"}]},"subject":{"reference":"Patient/32e38233-ed98-494d-babf-dee3c4514954"},"performedDateTime":"2022-12-02T00:00:00+00:00"},"request":{"method":"POST","url":"Procedure"}},{"fullUrl":"Procedure/aa16e3ee-f2a7-4e81-acfd-cc9abf8e4729","resource":{"resourceType":"Procedure","id":"aa16e3ee-f2a7-4e81-acfd-cc9abf8e4729","status":"completed","code":{"coding":[{"system":"http://snomed.info/sct","code":"146005"}]},"subject":{"reference":"Patient/32e38233-ed98-494d-babf-dee3c4514954"},"performedDateTime":"2022-01-14T00:00:00+00:00"},"request":{"method":"POST","url":"Procedure"}},{"fullUrl":"MedicationStatement/0cdd7c7a-62ef-4a89-880e-87c79238b9fd","resource":{"resourceType":"MedicationStatement","id":"0cdd7c7a-62ef-4a89-880e-87c79238b9fd","status":"completed","medicationCodeableConcept":{"coding":[{"system":"http://www.nlm.nih.gov/research/umls/rxnorm","code":"2193"}]},"subject":{"reference":"Patient/32e38233-ed98-494d-babf-dee3c4514954"},"effectiveDateTime":"2022-10-29T00:00:00+00:00","dosage":[{"doseAndRate":[{"doseQuantity":{"value":2,"unit":"TAB","system":"http://terminology.hl7.org/CodeSystem/v3-orderableDrugForm","code":"TAB"}}]}]},"request":{"method":"POST","url":"MedicationStatement"}},{"fullUrl":"MedicationStatement/bef26af6-19dc-4b9f-a197-c3531baed7d3","resource":{"resourceType":"MedicationStatement","id":"bef26af6-19dc-4b9f-a197-c3531baed7d3","status":"completed","medicationCodeableConcept":{"coding":[{"system":"http://www.nlm.nih.gov/research/umls/rxnorm","code":"2193"}]},"subject":{"reference":"Patient/32e38233-ed98-494d-babf-dee3c4514954"},"effectiveDateTime":"2022-07-12T00:00:00+00:00","dosage":[{"doseAndRate":[{"doseQuantity":{"value":2,"unit":"TAB","system":"http://terminology.hl7.org/CodeSystem/v3-orderableDrugForm","code":"TAB"}}]}]},"request":{"method":"POST","url":"MedicationStatement"}},{"fullUrl":"MedicationStatement/a6c0ac2a-a7de-41e7-b3ae-38ad1618c95d","resource":{"resourceType":"MedicationStatement","id":"a6c0ac2a-a7de-41e7-b3ae-38ad1618c95d","status":"completed","medicationCodeableConcept":{"coding":[{"system":"http://www.nlm.nih.gov/research/umls/rxnorm","code":"7980"}]},"subject":{"reference":"Patient/32e38233-ed98-494d-babf-dee3c4514954"},"effectiveDateTime":"2022-03-07T00:00:00+00:00","dosage":[{"doseAndRate":[{"doseQuantity":{"value":2,"unit":"TAB","system":"http://terminology.hl7.org/CodeSystem/v3-orderableDrugForm","code":"TAB"}}]}]},"request":{"method":"POST","url":"MedicationStatement"}},{"fullUrl":"MedicationStatement/ab3fa821-915b-48e6-8020-dc8ace3cf7cb","resource":{"resourceType":"MedicationStatement","id":"ab3fa821-915b-48e6-8020-dc8ace3cf7cb","status":"completed","medicationCodeableConcept":{"coding":[{"system":"http://www.nlm.nih.gov/research/umls/rxnorm","code":"10395"}]},"subject":{"reference":"Patient/32e38233-ed98-494d-babf-dee3c4514954"},"effectiveDateTime":"2022-10-30T00:00:00+00:00","dosage":[{"doseAndRate":[{"doseQuantity":{"value":2,"unit":"TAB","system":"http://terminology.hl7.org/CodeSystem/v3-orderableDrugForm","code":"TAB"}}]}]},"request":{"method":"POST","url":"MedicationStatement"}},{"fullUrl":"MedicationStatement/258944e8-e55b-4246-b62c-a59c4f43d9f3","resource":{"resourceType":"MedicationStatement","id":"258944e8-e55b-4246-b62c-a59c4f43d9f3","status":"completed","medicationCodeableConcept":{"coding":[{"system":"http://www.nlm.nih.gov/research/umls/rxnorm","code":"3640"}]},"subject":{"reference":"Patient/32e38233-ed98-494d-babf-dee3c4514954"},"effectiveDateTime":"2022-08-11T00:00:00+00:00","dosage":[{"doseAndRate":[{"doseQuantity":{"value":1,"unit":"TAB","system":"http://terminology.hl7.org/CodeSystem/v3-orderableDrugForm","code":"TAB"}}]}]},"request":{"method":"POST","url":"MedicationStatement"}},{"fullUrl":"MedicationStatement/3a068556-cbf2-4eb6-a1ea-d871affa6768","resource":{"resourceType":"MedicationStatement","id":"3a068556-cbf2-4eb6-a1ea-d871affa6768","status":"completed","medicationCodeableConcept":{"coding":[{"system":"http://www.nlm.nih.gov/research/umls/rxnorm","code":"7984"}]},"subject":{"reference":"Patient/32e38233-ed98-494d-babf-dee3c4514954"},"effectiveDateTime":"2022-07-21T00:00:00+00:00","dosage":[{"doseAndRate":[{"doseQuantity":{"value":1,"unit":"TAB","system":"http://terminology.hl7.org/CodeSystem/v3-orderableDrugForm","code":"TAB"}}]}]},"request":{"method":"POST","url":"MedicationStatement"}},{"fullUrl":"MedicationStatement/ae574eb8-8ed6-4405-a4cd-123bef6d8e92","resource":{"resourceType":"MedicationStatement","id":"ae574eb8-8ed6-4405-a4cd-123bef6d8e92","status":"completed","medicationCodeableConcept":{"coding":[{"system":"http://www.nlm.nih.gov/research/umls/rxnorm","code":"8698"}]},"subject":{"reference":"Patient/32e38233-ed98-494d-babf-dee3c4514954"},"effectiveDateTime":"2022-05-11T00:00:00+00:00","dosage":[{"doseAndRate":[{"doseQuantity":{"value":5.2,"unit":"TAB","system":"http://terminology.hl7.org/CodeSystem/v3-orderableDrugForm","code":"TAB"}}]}]},"request":{"method":"POST","url":"MedicationStatement"}},{"fullUrl":"MedicationStatement/c24ed884-80d8-40fb-9b3c-c4cf642a20e8","resource":{"resourceType":"MedicationStatement","id":"c24ed884-80d8-40fb-9b3c-c4cf642a20e8","status":"completed","medicationCodeableConcept":{"coding":[{"system":"http://www.nlm.nih.gov/research/umls/rxnorm","code":"3640"}]},"subject":{"reference":"Patient/32e38233-ed98-494d-babf-dee3c4514954"},"effectiveDateTime":"2022-07-02T00:00:00+00:00","dosage":[{"doseAndRate":[{"doseQuantity":{"value":3.4,"unit":"TAB","system":"http://terminology.hl7.org/CodeSystem/v3-orderableDrugForm","code":"TAB"}}]}]},"request":{"method":"POST","url":"MedicationStatement"}},{"fullUrl":"MedicationStatement/5a210843-697f-4614-99b3-7a6943c64d02","resource":{"resourceType":"MedicationStatement","id":"5a210843-697f-4614-99b3-7a6943c64d02","status":"completed","medicationCodeableConcept":{"coding":[{"system":"http://www.nlm.nih.gov/research/umls/rxnorm","code":"7984"}]},"subject":{"reference":"Patient/32e38233-ed98-494d-babf-dee3c4514954"},"effectiveDateTime":"2022-06-21T00:00:00+00:00","dosage":[{"doseAndRate":[{"doseQuantity":{"value":3.1,"unit":"TAB","system":"http://terminology.hl7.org/CodeSystem/v3-orderableDrugForm","code":"TAB"}}]}]},"request":{"method":"POST","url":"MedicationStatement"}},{"fullUrl":"MedicationStatement/5d6bfe2c-8cec-47ae-b58a-85a935759301","resource":{"resourceType":"MedicationStatement","id":"5d6bfe2c-8cec-47ae-b58a-85a935759301","status":"completed","medicationCodeableConcept":{"coding":[{"system":"http://www.nlm.nih.gov/research/umls/rxnorm","code":"8698"}]},"subject":{"reference":"Patient/32e38233-ed98-494d-babf-dee3c4514954"},"effectiveDateTime":"2022-05-05T00:00:00+00:00","dosage":[{"doseAndRate":[{"doseQuantity":{"value":6.1,"unit":"TAB","system":"http://terminology.hl7.org/CodeSystem/v3-orderableDrugForm","code":"TAB"}}]}]},"request":{"method":"POST","url":"MedicationStatement"}},{"fullUrl":"MedicationStatement/00120d60-0549-4086-a4a9-bb55800ec3fb","resource":{"resourceType":"MedicationStatement","id":"00120d60-0549-4086-a4a9-bb55800ec3fb","status":"completed","medicationCodeableConcept":{"coding":[{"system":"http://www.nlm.nih.gov/research/umls/rxnorm","code":"7984"}]},"subject":{"reference":"Patient/32e38233-ed98-494d-babf-dee3c4514954"},"effectiveDateTime":"2022-06-29T00:00:00+00:00","dosage":[{"doseAndRate":[{"doseQuantity":{"value":6.1,"unit":"TAB","system":"http://terminology.hl7.org/CodeSystem/v3-orderableDrugForm","code":"TAB"}}]}]},"request":{"method":"POST","url":"MedicationStatement"}},{"fullUrl":"MedicationStatement/e182442e-5b80-4c75-be4d-512d74bc7f8c","resource":{"resourceType":"MedicationStatement","id":"e182442e-5b80-4c75-be4d-512d74bc7f8c","status":"completed","medicationCodeableConcept":{"coding":[{"system":"http://www.nlm.nih.gov/research/umls/rxnorm","code":"18631"}]},"subject":{"reference":"Patient/32e38233-ed98-494d-babf-dee3c4514954"},"effectiveDateTime":"2022-12-21T00:00:00+00:00","dosage":[{"doseAndRate":[{"doseQuantity":{"value":3.6,"unit":"TAB","system":"http://terminology.hl7.org/CodeSystem/v3-orderableDrugForm","code":"TAB"}}]}]},"request":{"method":"POST","url":"MedicationStatement"}},{"fullUrl":"MedicationStatement/21b07e86-ab8d-4b5f-be74-890c1165172c","resource":{"resourceType":"MedicationStatement","id":"21b07e86-ab8d-4b5f-be74-890c1165172c","status":"completed","medicationCodeableConcept":{"coding":[{"system":"http://www.nlm.nih.gov/research/umls/rxnorm","code":"10395"}]},"subject":{"reference":"Patient/32e38233-ed98-494d-babf-dee3c4514954"},"effectiveDateTime":"2022-02-15T00:00:00+00:00","dosage":[{"doseAndRate":[{"doseQuantity":{"value":5.2,"unit":"TAB","system":"http://terminology.hl7.org/CodeSystem/v3-orderableDrugForm","code":"TAB"}}]}]},"request":{"method":"POST","url":"MedicationStatement"}},{"fullUrl":"MedicationStatement/49b4ea69-5b82-4b4b-95c1-8310cc055ba0","resource":{"resourceType":"MedicationStatement","id":"49b4ea69-5b82-4b4b-95c1-8310cc055ba0","status":"completed","medicationCodeableConcept":{"coding":[{"system":"http://www.nlm.nih.gov/research/umls/rxnorm","code":"3640"}]},"subject":{"reference":"Patient/32e38233-ed98-494d-babf-dee3c4514954"},"effectiveDateTime":"2022-07-13T00:00:00+00:00","dosage":[{"doseAndRate":[{"doseQuantity":{"value":4.8,"unit":"TAB","system":"http://terminology.hl7.org/CodeSystem/v3-orderableDrugForm","code":"TAB"}}]}]},"request":{"method":"POST","url":"MedicationStatement"}},{"fullUrl":"Encounter/49801e24-de3a-4c3e-8ffa-f055d09d0f97","resource":{"resourceType":"Encounter","id":"49801e24-de3a-4c3e-8ffa-f055d09d0f97","status":"finished","class":{"system":"http://terminology.hl7.org/CodeSystem/v3-ActCode","code":"IMP","display":"inpatient encounter"},"type":[{"coding":[{"system":"http://terminology.hl7.org/CodeSystem/encounter-type","code":"ADMS"}]}],"subject":{"reference":"Patient/32e38233-ed98-494d-babf-dee3c4514954"},"period":{"start":"2022-04-23T00:00:00+00:00","end":"2022-05-02T00:00:00+00:00"}},"request":{"method":"POST","url":"Encounter"}},{"fullUrl":"Encounter/9c14b0dd-774d-4b57-88d0-0d3437861462","resource":{"resourceType":"Encounter","id":"9c14b0dd-774d-4b57-88d0-0d3437861462","status":"finished","class":{"system":"http://terminology.hl7.org/CodeSystem/v3-ActCode","code":"IMP","display":"inpatient encounter"},"type":[{"coding":[{"system":"http://terminology.hl7.org/CodeSystem/encounter-type","code":"ADMS"}]}],"subject":{"reference":"Patient/32e38233-ed98-494d-babf-dee3c4514954"},"period":{"start":"2022-09-25T00:00:00+00:00","end":"2022-10-03T00:00:00+00:00"}},"request":{"method":"POST","url":"Encounter"}},{"fullUrl":"Encounter/a4651528-1586-4f20-b2b0-151cd0dcd561","resource":{"resourceType":"Encounter","id":"a4651528-1586-4f20-b2b0-151cd0dcd561","status":"finished","class":{"system":"http://terminology.hl7.org/CodeSystem/v3-ActCode","code":"IMP","display":"inpatient encounter"},"type":[{"coding":[{"system":"http://terminology.hl7.org/CodeSystem/encounter-type","code":"ADMS"}]}],"subject":{"reference":"Patient/32e38233-ed98-494d-babf-dee3c4514954"},"period":{"start":"2022-12-17T00:00:00+00:00","end":"2022-12-19T00:00:00+00:00"}},"request":{"method":"POST","url":"Encounter"}},{"fullUrl":"Encounter/9dcac11d-7371-40f2-80fc-224d0f11ce64","resource":{"resourceType":"Encounter","id":"9dcac11d-7371-40f2-80fc-224d0f11ce64","status":"finished","class":{"system":"http://terminology.hl7.org/CodeSystem/v3-ActCode","code":"IMP","display":"inpatient encounter"},"type":[{"coding":[{"system":"http://terminology.hl7.org/CodeSystem/encounter-type","code":"OKI"}]}],"subject":{"reference":"Patient/32e38233-ed98-494d-babf-dee3c4514954"},"period":{"start":"2022-01-12T00:00:00+00:00","end":"2022-01-12T00:00:00+00:00"}},"request":{"method":"POST","url":"Encounter"}},{"fullUrl":"Encounter/d272f64c-92d6-4fbb-90ef-75493cf6176d","resource":{"resourceType":"Encounter","id":"d272f64c-92d6-4fbb-90ef-75493cf6176d","status":"finished","class":{"system":"http://terminology.hl7.org/CodeSystem/v3-ActCode","code":"PRENC","display":"pre-admission"},"type":[{"coding":[{"system":"http://terminology.hl7.org/CodeSystem/encounter-type","code":"OKI"}]}],"subject":{"reference":"Patient/32e38233-ed98-494d-babf-dee3c4514954"},"period":{"start":"2022-02-21T00:00:00+00:00","end":"2022-02-22T00:00:00+00:00"}},"request":{"method":"POST","url":"Encounter"}},{"fullUrl":"Patient/45876b2f-7f53-4825-94ca-1ac315efb65c","resource":{"resourceType":"Patient","id":"45876b2f-7f53-4825-94ca-1ac315efb65c","identifier":[{"type":{"coding":[{"system":"http://terminology.hl7.org/CodeSystem/v2-0203","code":"MR"}]},"system":"urn:fhirgen:mrn","value":"609-62-2889"}],"name":[{"use":"official","family":"Carpenter","given":["Nathan"]},{"use":"maiden","family":"Clayton"}],"telecom":[{"system":"phone","value":"001-013-112-1309x11014","use":"work"},{"system":"email","value":"zlee@hotmail.com","use":"mobile"}],"gender":"male","birthDate":"1986-12-20","address":[{"use":"home","line":["620 Claire Valley"],"city":"West Amyfort","state":"OR","postalCode":"53034"},{"use":"old","line":["96641 Steven Extension"],"city":"North Charles","state":"WY","postalCode":"94627"}]},"request":{"method":"POST","url":"Patient"}},{"fullUrl":"Observation/1b206308-1178-43fe-abbb-feb3800c431d","resource":{"resourceType":"Observation","id":"1b206308-1178-43fe-abbb-feb3800c431d","status":"final","code":{"coding":[{"system":"http://loinc.org","code":"31147-2"}]},"subject":{"reference":"Patient/45876b2f-7f53-4825-94ca-1ac315efb65c"},"effectiveDateTime":"2022-06-10T00:00:00+00:00","valueRatio":{"numerator":{"value":1},"denominator":{"value":32}}},"request":{"method":"POST","url":"Observation"}},{"fullUrl":"Observation/dfd5144f-9c8f-4b0c-9767-cd1c28addfc8","resource":{"resourceType":"Observation","id":"dfd5144f-9c8f-4b0c-9767-cd1c28addfc8","status":"final","code":{"coding":[{"system":"http://loinc.org","code":"47476-7"}]},"subject":{"reference":"Patient/45876b2f-7f53-4825-94ca-1ac315efb65c"},"effectiveDateTime":"2022-10-30T00:00:00+00:00","valueRatio":{"numerator":{"value":1},"denominator":{"value":4}}},"request":{"method":"POST","url":"Observation"}},{"fullUrl":"Condition/f205127d-5c19-44ad-a2b7-9e4eb0ccd28a","resource":{"resourceType":"Condition","id":"f205127d-5c19-44ad-a2b7-9e4eb0ccd28a","code":{"coding":[{"system":"http://snomed.info/sct","code":"248980004"}]},"subject":{"reference":"Patient/45876b2f-7f53-4825-94ca-1ac315efb65c"},"onsetDateTime":"2022-11-03T00:00:00+00:00"},"request":{"method":"POST","url":"Condition"}},{"fullUrl":"Condition/5507f16f-c1c7-4a0a-8da9-b988f9c20dc0","resource":{"resourceType":"Condition","id":"5507f16f-c1c7-4a0a-8da9-b988f9c20dc0","code":{"coding":[{"system":"http://snomed.info/sct","code":"3951002"}]},"subject":{"reference":"Patient/45876b2f-7f53-4825-94ca-1ac315efb65c"},"onsetDateTime":"2022-03-25T00:00:00+00:00"},"request":{"method":"POST","url":"Condition"}},{"fullUrl":"Condition/e2182e3e-3093-49bd-ba9a-14b6012369e7","resource":{"resourceType":"Condition","id":"e2182e3e-3093-49bd-ba9a-14b6012369e7","code":{"coding":[{"system":"http://snomed.info/sct","code":"21522001"}]},"subject":{"reference":"Patient/45876b2f-7f53-4825-94ca-1ac315efb65c"},"onsetDateTime":"2022-01-10T00:00:00+00:00"},"request":{"method":"POST","url":"Condition"}},{"fullUrl":"Condition/ff5f497d-7f02-433e-b293-8d11090bc9cb","resource":{"resourceType":"Condition","id":"ff5f497d-7f02-433e-b293-8d11090bc9cb","code":{"coding":[{"system":"http://snomed.info/sct","code":"71315007"}]},"subject":{"reference":"Patient/45876b2f-7f53-4825-94ca-1ac315efb65c"},"onsetDateTime":"2022-06-20T00:00:00+00:00"},"request":{"method":"POST","url":"Condition"}},{"fullUrl":"Observation/f45d985d-278a-4d82-8be8-65e2093d26f0","resource":{"resourceType":"Observation","id":"f45d985d-278a-4d82-8be8-65e2093d26f0","status":"final","code":{"coding":[{"system":"http://loinc.org","code":"26464-8"}]},"subject":{"reference":"Patient/45876b2f-7f53-4825-94ca-1ac315efb65c"},"effectiveDateTime":"2022-09-02T00:00:00+00:00","valueQuantity":{"value":8.6}},"request":{"method":"POST","url":"Observation"}},{"fullUrl":"Observation/0cf5aeef-4517-4a35-952e-4de7a1a34400","resource":{"resourceType":"Observation","id":"0cf5aeef-4517-4a35-952e-4de7a1a34400","status":"final","code":{"coding":[{"system":"http://loinc.org","code":"26464-8"}]},"subject":{"reference":"Patient/45876b2f-7f53-4825-94ca-1ac315efb65c"},"effectiveDateTime":"2022-01-24T00:00:00+00:00","valueQuantity":{"value":6.7}},"request":{"method":"POST","url":"Observation"}},{"fullUrl":"Observation/c3b126bc-a43e-4c03-a110-b201dfdea604","resource":{"resourceType":"Observation","id":"c3b126bc-a43e-4c03-a110-b201dfdea604","status":"final","code":{"coding":[{"system":"http://loinc.org","code":"49498-9"}]},"subject":{"reference":"Patient/45876b2f-7f53-4825-94ca-1ac315efb65c"},"effectiveDateTime":"2022-11-26T00:00:00+00:00"},"request":{"method":"POST","url":"Observation"}},{"fullUrl":"Observation/380cf614-ad09-45a4-869d-44fda1ffd2be","resource":{"resourceType":"Observation","id":"380cf614-ad09-45a4-869d-44fda1ffd2be","status":"final","code":{"coding":[{"system":"http://loinc.org","code":"49498-9"}]},"subject":{"reference":"Patient/45876b2f-7f53-4825-94ca-1ac315efb65c"},"effectiveDateTime":"2022-02-19T00:00:00+00:00"},"request":{"method":"POST","url":"Observation"}},{"fullUrl":"Observation/728dfd44-2e85-4424-b458-3bf391d0665a","resource":{"resourceType":"Observation","id":"728dfd44-2e85-4424-b458-3bf391d0665a","status":"final","code":{"coding":[{"system":"http://loinc.org","code":"49498-9"}]},"subject":{"reference":"Patient/45876b2f-7f53-4825-94ca-1ac315efb65c"},"effectiveDateTime":"2022-05-31T00:00:00+00:00"},"request":{"method":"POST","url":"Observation"}},{"fullUrl":"Procedure/e2367f9f-fbaf-4f4b-a4b1-454c5d948ad1","resource":{"resourceType":"Procedure","id":"e2367f9f-fbaf-4f4b-a4b1-454c5d948ad1","status":"completed","code":{"coding":[{"system":"http://snomed.info/sct","code":"146005"}]},"subject":{"reference":"Patient/45876b2f-7f53-4825-94ca-1ac315efb65c"},"performedDateTime":"2022-09-26T00:00:00+00:00"},"request":{"method":"POST","url":"Procedure"}},{"fullUrl":"Procedure/dbd5abdb-3dc8-424f-940e-cdef9ab7b5e4","resource":{"resourceType":"Procedure","id":"dbd5abdb-3dc8-424f-940e-cdef9ab7b5e4","status":"completed","code":{"coding":[{"system":"http://snomed.info/sct","code":"104001"}]},"subject":{"reference":"Patient/45876b2f-7f53-4825-94ca-1ac315efb65c"},"performedDateTime":"2022-01-19T00:00:00+00:00"},"request":{"method":"POST","url":"Procedure"}},{"fullUrl":"Procedure/b204e48d-70f3-455f-bf8e-5fb38f052ed9","resource":{"resourceType":"Procedure","id":"b204e48d-70f3-455f-bf8e-5fb38f052ed9","status":"completed","code":{"coding":[{"system":"http://snomed.info/sct","code":"104001"}]},"subject":{"reference":"Patient/45876b2f-7f53-4825-94ca-1ac315efb65c"},"performedDateTime":"2022-04-14T00:00:00+00:00"},"request":{"method":"POST","url":"Procedure"}},{"fullUrl":"MedicationStatement/08de8e0f-3221-4bbb-9e2f-b3c38a091296","resource":{"resourceType":"MedicationStatement","id":"08de8e0f-3221-4bbb-9e2f-b3c38a091296","status":"completed","medicationCodeableConcept":{"coding":[{"system":"http://www.nlm.nih.gov/research/umls/rxnorm","code":"7980"}]},"subject":{"reference":"Patient/45876b2f-7f53-4825-94ca-1ac315efb65c"},"effectiveDateTime":"2022-08-03T00:00:00+00:00","dosage":[{"doseAndRate":[{"doseQuantity":{"value":1,"unit":"TAB","system":"http://terminology.hl7.org/CodeSystem/v3-orderableDrugForm","code":"TAB"}}]}]},"request":{"method":"POST","url":"MedicationStatement"}},{"fullUrl":"MedicationStatement/356ae7c6-5866-4b87-83c0-1948f8d10ab5","resource":{"resourceType":"MedicationStatement","id":"356ae7c6-5866-4b87-83c0-1948f8d10ab5","status":"completed","medicationCodeableConcept":{"coding":[{"system":"http://www.nlm.nih.gov/research/umls/rxnorm","code":"2193"}]},"subject":{"reference":"Patient/45876b2f-7f53-4825-94ca-1ac315efb65c"},"effectiveDateTime":"2022-11-29T00:00:00+00:00","dosage":[{"doseAndRate":[{"doseQuantity":{"value":2,"unit":"TAB","system":"http://terminology.hl7.org/CodeSystem/v3-orderableDrugForm","code":"TAB"}}]}]},"request":{"method":"POST","url":"MedicationStatement"}},{"fullUrl":"MedicationStatement/53b9fa97-5a46-4fb4-9e33-91055ef06e42","resource":{"resourceType":"MedicationStatement","id":"53b9fa97-5a46-4fb4-9e33-91055ef06e42","status":"completed","medicationCodeableConcept":{"coding":[{"system":"http://www.nlm.nih.gov/research/umls/rxnorm","code":"3640"}]},"subject":{"reference":"Patient/45876b2f-7f53-4825-94ca-1ac315efb65c"},"effectiveDateTime":"2022-10-12T00:00:00+00:00","dosage":[{"doseAndRate":[{"doseQuantity":{"value":2,"unit":"TAB","system":"http://terminology.hl7.org/CodeSystem/v3-orderableDrugForm","code":"TAB"}}]}]},"request":{"method":"POST","url":"MedicationStatement"}},{"fullUrl":"MedicationStatement/ea559b21-4e12-4f32-8821-230530b7a352","resource":{"resourceType":"MedicationStatement","id":"ea559b21-4e12-4f32-8821-230530b7a352","status":"completed","medicationCodeableConcept":{"coding":[{"system":"http://www.nlm.nih.gov/research/umls/rxnorm","code":"7980"}]},"subject":{"reference":"Patient/45876b2f-7f53-4825-94ca-1ac315efb65c"},"effectiveDateTime":"2022-08-17T00:00:00+00:00","dosage":[{"doseAndRate":[{"doseQuantity":{"value":3.8,"unit":"TAB","system":"http://terminology.hl7.org/CodeSystem/v3-orderableDrugForm","code":"TAB"}}]}]},"request":{"method":"POST","url":"MedicationStatement"}},{"fullUrl":"MedicationStatement/97848062-7700-4eb0-882c-a109dd4a6453","resource":{"resourceType":"MedicationStatement","id":"97848062-7700-4eb0-882c-a109dd4a6453","status":"completed","medicationCodeableConcept":{"coding":[{"system":"http://www.nlm.nih.gov/research/umls/rxnorm","code":"7984"}]},"subject":{"reference":"Patient/45876b2f-7f53-4825-94ca-1ac315efb65c"},"effectiveDateTime":"2022-04-22T00:00:00+00:00","dosage":[{"doseAndRate":[{"doseQuantity":{"value":3.8,"unit":"TAB","system":"http://terminology.hl7.org/CodeSystem/v3-orderableDrugForm","code":"TAB"}}]}]},"request":{"method":"POST","url":"MedicationStatement"}},{"fullUrl":"MedicationStatement/13ecd830-2ef1-4132-b327-69e739513e99","resource":{"resourceType":"MedicationStatement","id":"13ecd830-2ef1-4132-b327-69e739513e99","status":"completed","medicationCodeableConcept":{"coding":[{"system":"http://www.nlm.nih.gov/research/umls/rxnorm","code":"3640"}]},"subject":{"reference":"Patient/45876b2f-7f53-4825-94ca-1ac315efb65c"},"effectiveDateTime":"2022-03-28T00:00:00+00:00","dosage":[{"doseAndRate":[{"doseQuantity":{"value":3.5,"unit":"TAB","system":"http://terminology.hl7.org/CodeSystem/v3-orderableDrugForm","code":"TAB"}}]}]},"request":{"method":"POST","url":"MedicationStatement"}},{"fullUrl":"MedicationStatement/921c37e3-0ebe-40c8-9e98-f88af32b92f9","resource":{"resourceType":"MedicationStatement","id":"921c37e3-0ebe-40c8-9e98-f88af32b92f9","status":"completed","medicationCodeableConcept":{"coding":[{"system":"http://www.nlm.nih.gov/research/umls/rxnorm","code":"10395"}]},"subject":{"reference":"Patient/45876b2f-7f53-4825-94ca-1ac315efb65c"},"effectiveDateTime":"2022-12-17T00:00:00+00:00","dosage":[{"doseAndRate":[{"doseQuantity":{"value":6.6,"unit":"TAB","system":"http://terminology.hl7.org/CodeSystem/v3-orderableDrugForm","code":"TAB"}}]}]},"request":{"method":"POST","url":"MedicationStatement"}},{"fullUrl":"MedicationStatement/b6920b6c-c988-4562-881c-6aa23f8128b4","resource":{"resourceType":"MedicationStatement","id":"b6920b6c-c988-4562-881c-6aa23f8128b4","status":"completed","medicationCodeableConcept":{"coding":[{"system":"http://www.nlm.nih.gov/research/umls/rxnorm","code":"10395"}]},"subject":{"reference":"Patient/45876b2f-7f53-4825-94ca-1ac315efb65c"},"effectiveDateTime":"2022-11-01T00:00:00+00:00","dosage":[{"doseAndRate":[{"doseQuantity":{"value":5.4,"unit":"TAB","system":"http://terminology.hl7.org/CodeSystem/v3-orderableDrugForm","code":"TAB"}}]}]},"request":{"method":"POST","url":"MedicationStatement"}},{"fullUrl":"Encounter/2db4942f-ffb3-48e6-b68b-0e3e242f9d96","resource":{"resourceType":"Encounter","id":"2db4942f-ffb3-48e6-b68b-0e3e242f9d96","status":"finished","class":{"system":"http://terminology.hl7.org/CodeSystem/v3-ActCode","code":"IMP","display":"inpatient encounter"},"type":[{"coding":[{"system":"http://terminology.hl7.org/CodeSystem/encounter-type","code":"BD/BM-clin"}]}],"subject":{"reference":"Patient/45876b2f-7f53-4825-94ca-1ac315efb65c"},"period":{"start":"2022-08-07T00:00:00+00:00","end":"2022-08-08T00:00:00+00:00"}},"request":{"method":"POST","url":"Encounter"}},{"fullUrl":"Encounter/f2bba255-dda6-4ad3-97a0-e3b4a9cd92e0","resource":{"resourceType":"Encounter","id":"f2bba255-dda6-4ad3-97a0-e3b4a9cd92e0","status":"finished","class":{"system":"http://terminology.hl7.org/CodeSystem/v3-ActCode","code":"IMP","display":"inpatient encounter"},"type":[{"coding":[{"system":"http://terminology.hl7.org/CodeSystem/encounter-type","code":"ADMS"}]}],"subject":{"reference":"Patient/45876b2f-7f53-4825-94ca-1ac315efb65c"},"period":{"start":"2022-08-15T00:00:00+00:00","end":"2022-08-20T00:00:00+00:00"}},"request":{"method":"POST","url":"Encounter"}},{"fullUrl":"Encounter/3f4141bc-e005-4362-8f6e-fae0c71cd210","resource":{"resourceType":"Encounter","id":"3f4141bc-e005-4362-8f6e-fae0c71cd210","status":"finished","class":{"system":"http://terminology.hl7.org/CodeSystem/v3-ActCode","code":"IMP","display":"inpatient encounter"},"type":[{"coding":[{"system":"http://terminology.hl7.org/CodeSystem/encounter-type","code":"ADMS"}]}],"subject":{"reference":"Patient/45876b2f-7f53-4825-94ca-1ac315efb65c"},"period":{"start":"2022-01-30T00:00:00+00:00","end":"2022-02-04T00:00:00+00:00"}},"request":{"method":"POST","url":"Encounter"}},{"fullUrl":"Encounter/aa6018ce-e17f-4df0-aa73-a1b919fd255f","resource":{"resourceType":"Encounter","id":"aa6018ce-e17f-4df0-aa73-a1b919fd255f","status":"finished","class":{"system":"http://terminology.hl7.org/CodeSystem/v3-ActCode","code":"NONAC","display":"inpatient non-acute"},"type":[{"coding":[{"system":"http://terminology.hl7.org/CodeSystem/encounter-type","code":"OKI"}]}],"subject":{"reference":"Patient/45876b2f-7f53-4825-94ca-1ac315efb65c"},"period":{"start":"2022-06-13T00:00:00+00:00","end":"2022-06-14T00:00:00+00:00"}},"request":{"method":"POST","url":"Encounter"}},{"fullUrl":"Encounter/558760c5-e38e-4055-9330-077cd4e3cc58","resource":{"resourceType":"Encounter","id":"558760c5-e38e-4055-9330-077cd4e3cc58","status":"finished","class":{"system":"http://terminology.hl7.org/CodeSystem/v3-ActCode","code":"ACUTE","display":"inpatient acute"},"type":[{"coding":[{"system":"http://terminology.hl7.org/CodeSystem/encounter-type","code":"BD/BM-clin"}]}],"subject":{"reference":"Patient/45876b2f-7f53-4825-94ca-1ac315efb65c"},"period":{"start":"2022-05-21T00:00:00+00:00","end":"2022-05-27T00:00:00+00:00"}},"request":{"method":"POST","url":"Encounter"}},{"fullUrl":"Patient/2bfc9229-d70e-4589-8a9b-d50bbda11a65","resource":{"resourceType":"Patient","id":"2bfc9229-d70e-4589-8a9b-d50bbda11a65","identifier":[{"type":{"coding":[{"system":"http://terminology.hl7.org/CodeSystem/v2-0203","code":"MR"}]},"system":"urn:fhirgen:mrn","value":"854-80-4089"}],"name":[{"use":"official","family":"Martinez","given":["Daisy"]},{"use":"maiden","family":"Montgomery"}],"telecom":[{"system":"phone","value":"313-044-0174x64758","use":"home"},{"system":"email","value":"kennedycurtis@hotmail.com","use":"home"}],"gender":"female","birthDate":"1980-07-30","address":[{"use":"home","line":["3662 Gregory Loaf Suite 455"],"city":"Port Beth","state":"IL","postalCode":"25875"},{"use":"old","line":["682 Wiggins Overpass"],"city":"North Russellside","state":"KS","postalCode":"31421"}]},"request":{"method":"POST","url":"Patient"}},{"fullUrl":"Observation/5eae85b1-63e6-436f-ba76-a9b154917ce9","resource":{"resourceType":"Observation","id":"5eae85b1-63e6-436f-ba76-a9b154917ce9","status":"final","code":{"coding":[{"system":"http://loinc.org","code":"47476-7"}]},"subject":{"reference":"Patient/2bfc9229-d70e-4589-8a9b-d50bbda11a65"},"effectiveDateTime":"2022-06-26T00:00:00+00:00","valueRatio":{"numerator":{"value":1},"denominator":{"value":4}}},"request":{"method":"POST","url":"Observation"}},{"fullUrl":"Observation/231c6874-5898-4a2c-8193-56c2323c50db","resource":{"resourceType":"Observation","id":"231c6874-5898-4a2c-8193-56c2323c50db","status":"final","code":{"coding":[{"system":"http://loinc.org","code":"11084-1"}]},"subject":{"reference":"Patient/2bfc9229-d70e-4589-8a9b-d50bbda11a65"},"effectiveDateTime":"2022-02-02T00:00:00+00:00","valueRatio":{"numerator":{"value":1},"denominator":{"value":4}}},"request":{"method":"POST","url":"Observation"}},{"fullUrl":"Condition/907a4c7f-ae31-4458-bddb-d3dd764d465b","resource":{"resourceType":"Condition","id":"907a4c7f-ae31-4458-bddb-d3dd764d465b","code":{"coding":[{"system":"http://snomed.info/sct","code":"271939006"}]},"subject":{"reference":"Patient/2bfc9229-d70e-4589-8a9b-d50bbda11a65"},"onsetDateTime":"2022-07-21T00:00:00+00:00"},"request":{"method":"POST","url":"Condition"}},{"fullUrl":"Condition/12b8a44e-2c07-435c-ac86-ac364473c278","resource":{"resourceType":"Condition","id":"12b8a44e-2c07-435c-ac86-ac364473c278","code":{"coding":[{"system":"http://snomed.info/sct","code":"405737000"}]},"subject":{"reference":"Patient/2bfc9229-d70e-4589-8a9b-d50bbda11a65"},"onsetDateTime":"2022-04-26T00:00:00+00:00"},"request":{"method":"POST","url":"Condition"}},{"fullUrl":"Condition/9eebae5b-bf56-4954-8aae-ff119863dd62","resource":{"resourceType":"Condition","id":"9eebae5b-bf56-4954-8aae-ff119863dd62","code":{"coding":[{"system":"http://snomed.info/sct","code":"271939006"}]},"subject":{"reference":"Patient/2bfc9229-d70e-4589-8a9b-d50bbda11a65"},"onsetDateTime":"2022-06-08T00:00:00+00:00"},"request":{"method":"POST","url":"Condition"}},{"fullUrl":"Condition/388adc4e-d469-497a-a833-42d91a35bda0","resource":{"resourceType":"Condition","id":"388adc4e-d469-497a-a833-42d91a35bda0","code":{"coding":[{"system":"http://snomed.info/sct","code":"18165001"}]},"subject":{"reference":"Patient/2bfc9229-d70e-4589-8a9b-d50bbda11a65"},"onsetDateTime":"2022-05-22T00:00:00+00:00"},"request":{"method":"POST","url":"Condition"}},{"fullUrl":"Condition/8b5bc492-fc7f-4fac-a15e-689b43d62308","resource":{"resourceType":"Condition","id":"8b5bc492-fc7f-4fac-a15e-689b43d62308","code":{"coding":[{"system":"http://snomed.info/sct","code":"271939006"}]},"subject":{"reference":"Patient/2bfc9229-d70e-4589-8a9b-d50bbda11a65"},"onsetDateTime":"2022-04-23T00:00:00+00:00"},"request":{"method":"POST","url":"Condition"}},{"fullUrl":"Condition/4adbcbd5-306c-460e-9adf-ff392550f864","resource":{"resourceType":"Condition","id":"4adbcbd5-306c-460e-9adf-ff392550f864","code":{"coding":[{"system":"http://snomed.info/sct","code":"709977002"}]},"subject":{"reference":"Patient/2bfc9229-d70e-4589-8a9b-d50bbda11a65"},"onsetDateTime":"2022-07-07T00:00:00+00:00"},"request":{"method":"POST","url":"Condition"}},{"fullUrl":"Condition/0e8ed2a0-ed16-4c0d-9b45-c1846061a11a","resource":{"resourceType":"Condition","id":"0e8ed2a0-ed16-4c0d-9b45-c1846061a11a","code":{"coding":[{"system":"http://snomed.info/sct","code":"297123002"}]},"subject":{"reference":"Patient/2bfc9229-d70e-4589-8a9b-d50bbda11a65"},"onsetDateTime":"2022-09-22T00:00:00+00:00"},"request":{"method":"POST","url":"Condition"}},{"fullUrl":"Condition/f12cfa96-02b3-46fd-8f09-46eb00f89bc2","resource":{"resourceType":"Condition","id":"f12cfa96-02b3-46fd-8f09-46eb00f89bc2","code":{"coding":[{"system":"http://snomed.info/sct","code":"79342006"}]},"subject":{"reference":"Patient/2bfc9229-d70e-4589-8a9b-d50bbda11a65"},"onsetDateTime":"2022-11-05T00:00:00+00:00"},"request":{"method":"POST","url":"Condition"}},{"fullUrl":"Observation/b4abe63d-1609-4678-a41a-7e0e45331d21","resource":{"resourceType":"Observation","id":"b4abe63d-1609-4678-a41a-7e0e45331d21","status":"final","code":{"coding":[{"system":"http://loinc.org","code":"26464-8"}]},"subject":{"reference":"Patient/2bfc9229-d70e-4589-8a9b-d50bbda11a65"},"effectiveDateTime":"2022-10-13T00:00:00+00:00","valueQuantity":{"value":6.7}},"request":{"method":"POST","url":"Observation"}},{"fullUrl":"Observation/8b258ee7-5f1d-45ce-90f1-516be1a85929","resource":{"resourceType":"Observation","id":"8b258ee7-5f1d-45ce-90f1-516be1a85929","status":"final","code":{"coding":[{"system":"http://loinc.org","code":"6690-2"}]},"subject":{"reference":"Patient/2bfc9229-d70e-4589-8a9b-d50bbda11a65"},"effectiveDateTime":"2022-07-02T00:00:00+00:00","valueQuantity":{"value":6.7}},"request":{"method":"POST","url":"Observation"}},{"fullUrl":"Observation/914406ef-5d4f-4e4e-9026-5bda78de810e","resource":{"resourceType":"Observation","id":"914406ef-5d4f-4e4e-9026-5bda78de810e","status":"final","code":{"coding":[{"system":"http://loinc.org","code":"49498-9"}]},"subject":{"reference":"Patient/2bfc9229-d70e-4589-8a9b-d50bbda11a65"},"effectiveDateTime":"2022-07-22T00:00:00+00:00"},"request":{"method":"POST","url":"Observation"}},{"fullUrl":"Observation/a6c3e3dc-6fe3-4d44-834b-c359f7ce1a92","resource":{"resourceType":"Observation","id":"a6c3e3dc-6fe3-4d44-834b-c359f7ce1a92","status":"final","code":{"coding":[{"system":"http://loinc.org","code":"49498-9"}]},"subject":{"reference":"Patient/2bfc9229-d70e-4589-8a9b-d50bbda11a65"},"effectiveDateTime":"2022-04-27T00:00:00+00:00"},"request":{"method":"POST","url":"Observation"}},{"fullUrl":"Procedure/e3b12ee4-9a90-4ccc-a08b-768b0ae5057b","resource":{"resourceType":"Procedure","id":"e3b12ee4-9a90-4ccc-a08b-768b0ae5057b","status":"completed","code":{"coding":[{"system":"http://snomed.info/sct","code":"189009"}]},"subject":{"reference":"Patient/2bfc9229-d70e-4589-8a9b-d50bbda11a65"},"performedDateTime":"2022-11-03T00:00:00+00:00"},"request":{"method":"POST","url":"Procedure"}},{"fullUrl":"Procedure/e39aa5be-607f-406e-9a8f-93965c3205ef","resource":{"resourceType":"Procedure","id":"e39aa5be-607f-406e-9a8f-93965c3205ef","status":"completed","code":{"coding":[{"system":"http://snomed.info/sct","code":"189009"}]},"subject":{"reference":"Patient/2bfc9229-d70e-4589-8a9b-d50bbda11a65"},"performedDateTime":"2022-08-11T00:00:00+00:00"},"request":{"method":"POST","url":"Procedure"}},{"fullUrl":"Procedure/6e0ab229-b764-472a-8ea7-032492cd850f","resource":{"resourceType":"Procedure","id":"6e0ab229-b764-472a-8ea7-032492cd850f","status":"completed","code":{"coding":[{"system":"http://snomed.info/sct","code":"104001"}]},"subject":{"reference":"Patient/2bfc9229-d70e-4589-8a9b-d50bbda11a65"},"performedDateTime":"2022-03-26T00:00:00+00:00"},"request":{"method":"POST","url":"Procedure"}},{"fullUrl":"MedicationStatement/1fad7589-0c29-48cd-a87a-b21385bdb589","resource":{"resourceType":"MedicationStatement","id":"1fad7589-0c29-48cd-a87a-b21385bdb589","status":"completed","medicationCodeableConcept":{"coding":[{"system":"http://www.nlm.nih.gov/research/umls/rxnorm","code":"7980"}]},"subject":{"reference":"Patient/2bfc9229-d70e-4589-8a9b-d50bbda11a65"},"effectiveDateTime":"2022-04-07T00:00:00+00:00","dosage":[{"doseAndRate":[{"doseQuantity":{"value":1,"unit":"TAB","system":"http://terminology.hl7.org/CodeSystem/v3-orderableDrugForm","code":"TAB"}}]}]},"request":{"method":"POST","url":"MedicationStatement"}},{"fullUrl":"MedicationStatement/1800c7c1-2d8e-4727-8519-7dc4430354ab","resource":{"resourceType":"MedicationStatement","id":"1800c7c1-2d8e-4727-8519-7dc4430354ab","status":"completed","medicationCodeableConcept":{"coding":[{"system":"http://www.nlm.nih.gov/research/umls/rxnorm","code":"3640"}]},"subject":{"reference":"Patient/2bfc9229-d70e-4589-8a9b-d50bbda11a65"},"effectiveDateTime":"2022-02-05T00:00:00+00:00","dosage":[{"doseAndRate":[{"doseQuantity":{"value":2,"unit":"TAB","system":"http://terminology.hl7.org/CodeSystem/v3-orderableDrugForm","code":"TAB"}}]}]},"request":{"method":"POST","url":"MedicationStatement"}},{"fullUrl":"MedicationStatement/6a06f8c2-4049-412b-a8fb-7f36cb4edb39","resource":{"resourceType":"MedicationStatement","id":"6a06f8c2-4049-412b-a8fb-7f36cb4edb39","status":"completed","medicationCodeableConcept":{"coding":[{"system":"http://www.nlm.nih.gov/research/umls/rxnorm","code":"10395"}]},"subject":{"reference":"Patient/2bfc9229-d70e-4589-8a9b-d50bbda11a65"},"effectiveDateTime":"2022-09-15T00:00:00+00:00","dosage":[{"doseAndRate":[{"doseQuantity":{"value":2,"unit":"TAB","system":"http://terminology.hl7.org/CodeSystem/v3-orderableDrugForm","code":"TAB"}}]}]},"request":{"method":"POST","url":"MedicationStatement"}},{"fullUrl":"MedicationStatement/1956c60b-7447-476b-8df0-7c9cd6312a00","resource":{"resourceType":"MedicationStatement","id":"1956c60b-7447-476b-8df0-7c9cd6312a00","status":"completed","medicationCodeableConcept":{"coding":[{"system":"http://www.nlm.nih.gov/research/umls/rxnorm","code":"7984"}]},"subject":{"reference":"Patient/2bfc9229-d70e-4589-8a9b-d50bbda11a65"},"effectiveDateTime":"2022-01-28T00:00:00+00:00","dosage":[{"doseAndRate":[{"doseQuantity":{"value":2,"unit":"TAB","system":"http://terminology.hl7.org/CodeSystem/v3-orderableDrugForm","code":"TAB"}}]}]},"request":{"method":"POST","url":"MedicationStatement"}},{"fullUrl":"MedicationStatement/d2d82629-a08c-4d16-8ac7-e5395096efd4","resource":{"resourceType":"MedicationStatement","id":"d2d82629-a08c-4d16-8ac7-e5395096efd4","status":"completed","medicationCodeableConcept":{"coding":[{"system":"http://www.nlm.nih.gov/research/umls/rxnorm","code":"8698"}]},"subject":{"reference":"Patient/2bfc9229-d70e-4589-8a9b-d50bbda11a65"},"effectiveDateTime":"2022-10-02T00:00:00+00:00","dosage":[{"doseAndRate":[{"doseQuantity":{"value":2,"unit":"TAB","system":"http://terminology.hl7.org/CodeSystem/v3-orderableDrugForm","code":"TAB"}}]}]},"request":{"method":"POST","url":"MedicationStatement"}},{"fullUrl":"MedicationStatement/14b5e59d-0d31-4c56-a1a2-79ace8721dd8","resource":{"resourceType":"MedicationStatement","id":"14b5e59d-0d31-4c56-a1a2-79ace8721dd8","status":"completed","medicationCodeableConcept":{"coding":[{"system":"http://www.nlm.nih.gov/research/umls/rxnorm","code":"7980"}]},"subject":{"reference":"Patient/2bfc9229-d70e-4589-8a9b-d50bbda11a65"},"effectiveDateTime":"2022-10-12T00:00:00+00:00","dosage":[{"doseAndRate":[{"doseQuantity":{"value":2,"unit":"TAB","system":"http://terminology.hl7.org/CodeSystem/v3-orderableDrugForm","code":"TAB"}}]}]},"request":{"method":"POST","url":"MedicationStatement"}},{"fullUrl":"MedicationStatement/32b14a39-2960-4f1f-afe5-37b0a67010a5","resource":{"resourceType":"MedicationStatement","id":"32b14a39-2960-4f1f-afe5-37b0a67010a5","status":"completed","medicationCodeableConcept":{"coding":[{"system":"http://www.nlm.nih.gov/research/umls/rxnorm","code":"8698"}]},"subject":{"reference":"Patient/2bfc9229-d70e-4589-8a9b-d50bbda11a65"},"effectiveDateTime":"2022-02-05T00:00:00+00:00","dosage":[{"doseAndRate":[{"doseQuantity":{"value":1,"unit":"TAB","system":"http://terminology.hl7.org/CodeSystem/v3-orderableDrugForm","code":"TAB"}}]}]},"request":{"method":"POST","url":"MedicationStatement"}},{"fullUrl":"MedicationStatement/ba15f2b8-7cee-4ae7-b8a8-323cbbbef07f","resource":{"resourceType":"MedicationStatement","id":"ba15f2b8-7cee-4ae7-b8a8-323cbbbef07f","status":"completed","medicationCodeableConcept":{"coding":[{"system":"http://www.nlm.nih.gov/research/umls/rxnorm","code":"8698"}]},"subject":{"reference":"Patient/2bfc9229-d70e-4589-8a9b-d50bbda11a65"},"effectiveDateTime":"2022-04-05T00:00:00+00:00","dosage":[{"doseAndRate":[{"doseQuantity":{"value":6.3,"unit":"TAB","system":"http://terminology.hl7.org/CodeSystem/v3-orderableDrugForm","code":"TAB"}}]}]},"request":{"method":"POST","url":"MedicationStatement"}},{"fullUrl":"MedicationStatement/be795e06-5a1c-464d-9997-692d122701c2","resource":{"resourceType":"MedicationStatement","id":"be795e06-5a1c-464d-9997-692d122701c2","status":"completed","medicationCodeableConcept":{"coding":[{"system":"http://www.nlm.nih.gov/research/umls/rxnorm","code":"8698"}]},"subject":{"reference":"Patient/2bfc9229-d70e-4589-8a9b-d50bbda11a65"},"effectiveDateTime":"2022-03-19T00:00:00+00:00","dosage":[{"doseAndRate":[{"doseQuantity":{"value":3.4,"unit":"TAB","system":"http://terminology.hl7.org/CodeSystem/v3-orderableDrugForm","code":"TAB"}}]}]},"request":{"method":"POST","url":"MedicationStatement"}},{"fullUrl":"MedicationStatement/e73a02d9-455c-4a31-ad19-ee5ad07f6b47","resource":{"resourceType":"MedicationStatement","id":"e73a02d9-455c-4a31-ad19-ee5ad07f6b47","status":"completed","medicationCodeableConcept":{"coding":[{"system":"http://www.nlm.nih.gov/research/umls/rxnorm","code":"2193"}]},"subject":{"reference":"Patient/2bfc9229-d70e-4589-8a9b-d50bbda11a65"},"effectiveDateTime":"2022-09-02T00:00:00+00:00","dosage":[{"doseAndRate":[{"doseQuantity":{"value":6.3,"unit":"TAB","system":"http://terminology.hl7.org/CodeSystem/v3-orderableDrugForm","code":"TAB"}}]}]},"request":{"method":"POST","url":"MedicationStatement"}},{"fullUrl":"MedicationStatement/ca8247af-b942-4ec4-aa3c-914d8c4f47ab","resource":{"resourceType":"MedicationStatement","id":"ca8247af-b942-4ec4-aa3c-914d8c4f47ab","status":"completed","medicationCodeableConcept":{"coding":[{"system":"http://www.nlm.nih.gov/research/umls/rxnorm","code":"7980"}]},"subject":{"reference":"Patient/2bfc9229-d70e-4589-8a9b-d50bbda11a65"},"effectiveDateTime":"2022-02-12T00:00:00+00:00","dosage":[{"doseAndRate":[{"doseQuantity":{"value":3.2,"unit":"TAB","system":"http://terminology.hl7.org/CodeSystem/v3-orderableDrugForm","code":"TAB"}}]}]},"request":{"method":"POST","url":"MedicationStatement"}},{"fullUrl":"MedicationStatement/3f952d5b-f192-45f2-8755-f4f21852b1d8","resource":{"resourceType":"MedicationStatement","id":"3f952d5b-f192-45f2-8755-f4f21852b1d8","status":"completed","medicationCodeableConcept":{"coding":[{"system":"http://www.nlm.nih.gov/research/umls/rxnorm","code":"2193"}]},"subject":{"reference":"Patient/2bfc9229-d70e-4589-8a9b-d50bbda11a65"},"effectiveDateTime":"2022-02-20T00:00:00+00:00","dosage":[{"doseAndRate":[{"doseQuantity":{"value":7,"unit":"TAB","system":"http://terminology.hl7.org/CodeSystem/v3-orderableDrugForm","code":"TAB"}}]}]},"request":{"method":"POST","url":"MedicationStatement"}},{"fullUrl":"MedicationStatement/662a4b2b-60af-4452-9434-9310332160a0","resource":{"resourceType":"MedicationStatement","id":"662a4b2b-60af-4452-9434-9310332160a0","status":"completed","medicationCodeableConcept":{"coding":[{"system":"http://www.nlm.nih.gov/research/umls/rxnorm","code":"18631"}]},"subject":{"reference":"Patient/2bfc9229-d70e-4589-8a9b-d50bbda11a65"},"effectiveDateTime":"2022-05-27T00:00:00+00:00","dosage":[{"doseAndRate":[{"doseQuantity":{"value":3.9,"unit":"TAB","system":"http://terminology.hl7.org/CodeSystem/v3-orderableDrugForm","code":"TAB"}}]}]},"request":{"method":"POST","url":"MedicationStatement"}},{"fullUrl":"Encounter/584142c5-9966-4ce6-9c43-7b252ef8a1a0","resource":{"resourceType":"Encounter","id":"584142c5-9966-4ce6-9c43-7b252ef8a1a0","status":"finished","class":{"system":"http://terminology.hl7.org/CodeSystem/v3-ActCode","code":"IMP","display":"inpatient encounter"},"type":[{"coding":[{"system":"http://terminology.hl7.org/CodeSystem/encounter-type","code":"OKI"}]}],"subject":{"reference":"Patient/2bfc9229-d70e-4589-8a9b-d50bbda11a65"},"period":{"start":"2022-03-14T00:00:00+00:00","end":"2022-03-19T00:00:00+00:00"}},"request":{"method":"POST","url":"Encounter"}},{"fullUrl":"Encounter/e3bec12d-84fb-41de-a9da-fe5dad32d306","resource":{"resourceType":"Encounter","id":"e3bec12d-84fb-41de-a9da-fe5dad32d306","status":"finished","class":{"system":"http://terminology.hl7.org/CodeSystem/v3-ActCode","code":"IMP","display":"inpatient encounter"},"type":[{"coding":[{"system":"http://terminology.hl7.org/CodeSystem/encounter-type","code":"ADMS"}]}],"subject":{"reference":"Patient/2bfc9229-d70e-4589-8a9b-d50bbda11a65"},"period":{"start":"2022-09-03T00:00:00+00:00","end":"2022-09-10T00:00:00+00:00"}},"request":{"method":"POST","url":"Encounter"}},{"fullUrl":"Encounter/1dda7af3-31c0-4248-ab79-1e74752f7948","resource":{"resourceType":"Encounter","id":"1dda7af3-31c0-4248-ab79-1e74752f7948","status":"finished","class":{"system":"http://terminology.hl7.org/CodeSystem/v3-ActCode","code":"IMP","display":"inpatient encounter"},"type":[{"coding":[{"system":"http://terminology.hl7.org/CodeSystem/encounter-type","code":"BD/BM-clin"}]}],"subject":{"reference":"Patient/2bfc9229-d70e-4589-8a9b-d50bbda11a65"},"period":{"start":"2022-06-02T00:00:00+00:00","end":"2022-06-05T00:00:00+00:00"}},"request":{"method":"POST","url":"Encounter"}},{"fullUrl":"Encounter/4b2cab76-ada9-45bd-bfe6-c6235943434c","resource":{"resourceType":"Encounter","id":"4b2cab76-ada9-45bd-bfe6-c6235943434c","status":"finished","class":{"system":"http://terminology.hl7.org/CodeSystem/v3-ActCode","code":"SS","display":"short-stay"},"type":[{"coding":[{"system":"http://terminology.hl7.org/CodeSystem/encounter-type","code":"OKI"}]}],"subject":{"reference":"Patient/2bfc9229-d70e-4589-8a9b-d50bbda11a65"},"period":{"start":"2022-03-12T00:00:00+00:00","end":"2022-03-16T00:00:00+00:00"}},"request":{"method":"POST","url":"Encounter"}},{"fullUrl":"Encounter/7bf28335-4b91-46b3-9eaa-8dbffee590fb","resource":{"resourceType":"Encounter","id":"7bf28335-4b91-46b3-9eaa-8dbffee590fb","status":"finished","class":{"system":"http://terminology.hl7.org/CodeSystem/v3-ActCode","code":"OBSENC","display":"observation encounter"},"type":[{"coding":[{"system":"http://terminology.hl7.org/CodeSystem/encounter-type","code":"BD/BM-clin"}]}],"subject":{"reference":"Patient/2bfc9229-d70e-4589-8a9b-d50bbda11a65"},"period":{"start":"2022-02-22T00:00:00+00:00","end":"2022-03-03T00:00:00+00:00"}},"request":{"method":"POST","url":"Encounter"}},{"fullUrl":"Encounter/86bd4180-2ff7-4dbe-94ee-af4af2462902","resource":{"resourceType":"Encounter","id":"86bd4180-2ff7-4dbe-94ee-af4af2462902","status":"finished","class":{"system":"http://terminology.hl7.org/CodeSystem/v3-ActCode","code":"EMER","display":"emergency"},"type":[{"coding":[{"system":"http://terminology.hl7.org/CodeSystem/encounter-type","code":"OKI"}]}],"subject":{"reference":"Patient/2bfc9229-d70e-4589-8a9b-d50bbda11a65"},"period":{"start":"2022-03-16T00:00:00+00:00","end":"2022-03-24T00:00:00+00:00"}},"request":{"method":"POST","url":"Encounter"}},{"fullUrl":"Patient/c00021e3-936f-4f29-a61b-41804bb75617","resource":{"resourceType":"Patient","id":"c00021e3-936f-4f29-a61b-41804bb75617","identifier":[{"type":{"coding":[{"system":"http://terminology.hl7.org/CodeSystem/v2-0203","code":"MR"}]},"system":"urn:fhirgen:mrn","value":"626-30-9111"}],"name":[{"use":"official","family":"Russell","given":["Felicia"]},{"use":"maiden","family":"Mccoy"}],"telecom":[{"system":"phone","value":"001-616-062-6653x36720","use":"work"},{"system":"email","value":"uriddle@hotmail.com","use":"mobile"}],"gender":"female","birthDate":"1968-08-24","address":[{"use":"home","line":["23016 Anderson Way Apt. 996"],"city":"North Vanessachester","state":"MS","postalCode":"22818"},{"use":"old","line":["3366 Patrick Branch Apt. 780"],"city":"South Cherylfurt","state":"SC","postalCode":"33627"}]},"request":{"method":"POST","url":"Patient"}},{"fullUrl":"Observation/93301c9d-a599-4e80-90bb-cf67fd737e55","resource":{"resourceType":"Observation","id":"93301c9d-a599-4e80-90bb-cf67fd737e55","status":"final","code":{"coding":[{"system":"http://loinc.org","code":"50690-7"}]},"subject":{"reference":"Patient/c00021e3-936f-4f29-a61b-41804bb75617"},"effectiveDateTime":"2022-08-10T00:00:00+00:00","valueRatio":{"numerator":{"value":1},"denominator":{"value":4}}},"request":{"method":"POST","url":"Observation"}},{"fullUrl":"Observation/9940b2b6-8f0a-4522-83bb-af3b1061f608","resource":{"resourceType":"Observation","id":"9940b2b6-8f0a-4522-83bb-af3b1061f608","status":"final","code":{"coding":[{"system":"http://loinc.org","code":"5394-2"}]},"subject":{"reference":"Patient/c00021e3-936f-4f29-a61b-41804bb75617"},"effectiveDateTime":"2022-01-29T00:00:00+00:00","valueRatio":{"numerator":{"value":1},"denominator":{"value":64}}},"request":{"method":"POST","url":"Observation"}},{"fullUrl":"Condition/f21b004d-a125-46b2-9c13-6a971f682200","resource":{"resourceType":"Condition","id":"f21b004d-a125-46b2-9c13-6a971f682200","code":{"coding":[{"system":"http://snomed.info/sct","code":"30746006"}]},"subject":{"reference":"Patient/c00021e3-936f-4f29-a61b-41804bb75617"},"onsetDateTime":"2022-02-13T00:00:00+00:00"},"request":{"method":"POST","url":"Condition"}},{"fullUrl":"Condition/3b7ce114-0272-477f-9384-c7a5a7fa6446","resource":{"resourceType":"Condition","id":"3b7ce114-0272-477f-9384-c7a5a7fa6446","code":{"coding":[{"system":"http://snomed.info/sct","code":"248980004"}]},"subject":{"reference":"Patient/c00021e3-936f-4f29-a61b-41804bb75617"},"onsetDateTime":"2022-04-07T00:00:00+00:00"},"request":{"method":"POST","url":"Condition"}},{"fullUrl":"Condition/2e445563-b7dd-4f7d-94a6-ae5d87382fe7","resource":{"resourceType":"Condition","id":"2e445563-b7dd-4f7d-94a6-ae5d87382fe7","code":{"coding":[{"system":"http://snomed.info/sct","code":"3951002"}]},"subject":{"reference":"Patient/c00021e3-936f-4f29-a61b-41804bb75617"},"onsetDateTime":"2022-05-09T00:00:00+00:00"},"request":{"method":"POST","url":"Condition"}},{"fullUrl":"Condition/fbb7bf98-851d-4650-a266-0090e3bdd68b","resource":{"resourceType":"Condition","id":"fbb7bf98-851d-4650-a266-0090e3bdd68b","code":{"coding":[{"system":"http://snomed.info/sct","code":"271807003"}]},"subject":{"reference":"Patient/c00021e3-936f-4f29-a61b-41804bb75617"},"onsetDateTime":"2022-03-27T00:00:00+00:00"},"request":{"method":"POST","url":"Condition"}},{"fullUrl":"Condition/5dce1856-8605-47ca-a757-8473ca45318c","resource":{"resourceType":"Condition","id":"5dce1856-8605-47ca-a757-8473ca45318c","code":{"coding":[{"system":"http://snomed.info/sct","code":"271807003"}]},"subject":{"reference":"Patient/c00021e3-936f-4f29-a61b-41804bb75617"},"onsetDateTime":"2022-01-02T00:00:00+00:00"},"request":{"method":"POST","url":"Condition"}},{"fullUrl":"Observation/9c91095f-f4c9-4a5a-a8c8-f05bc862a616","resource":{"resourceType":"Observation","id":"9c91095f-f4c9-4a5a-a8c8-f05bc862a616","status":"final","code":{"coding":[{"system":"http://loinc.org","code":"804-5"}]},"subject":{"reference":"Patient/c00021e3-936f-4f29-a61b-41804bb75617"},"effectiveDateTime":"2022-07-28T00:00:00+00:00","valueQuantity":{"value":10.9}},"request":{"method":"POST","url":"Observation"}},{"fullUrl":"Observation/4af5a4e5-c63d-4ae4-bdd6-5e363fb055da","resource":{"resourceType":"Observation","id":"4af5a4e5-c63d-4ae4-bdd6-5e363fb055da","status":"final","code":{"coding":[{"system":"http://www.ama-assn.org/go/cpt","code":"85048"}]},"subject":{"reference":"Patient/c00021e3-936f-4f29-a61b-41804bb75617"},"effectiveDateTime":"2022-03-15T00:00:00+00:00","valueQuantity":{"value":5.9}},"request":{"method":"POST","url":"Observation"}},{"fullUrl":"Observation/ea8f6a59-02e5-464b-8fa1-e1145612bbff","resource":{"resourceType":"Observation","id":"ea8f6a59-02e5-464b-8fa1-e1145612bbff","status":"final","code":{"coding":[{"system":"http://loinc.org","code":"26464-8"}]},"subject":{"reference":"Patient/c00021e3-936f-4f29-a61b-41804bb75617"},"effectiveDateTime":"2022-07-26T00:00:00+00:00","valueQuantity":{"value":8.7}},"request":{"method":"POST","url":"Observation"}},{"fullUrl":"Observation/aa8d7ce6-e8fe-4c87-9de4-dfb95abead81","resource":{"resourceType":"Observation","id":"aa8d7ce6-e8fe-4c87-9de4-dfb95abead81","status":"final","code":{"coding":[{"system":"http://loinc.org","code":"49498-9"}]},"subject":{"reference":"Patient/c00021e3-936f-4f29-a61b-41804bb75617"},"effectiveDateTime":"2022-09-12T00:00:00+00:00"},"request":{"method":"POST","url":"Observation"}},{"fullUrl":"Observation/fe3a9a86-6dca-4c5d-9da4-36d6f1cb7eca","resource":{"resourceType":"Observation","id":"fe3a9a86-6dca-4c5d-9da4-36d6f1cb7eca","status":"final","code":{"coding":[{"system":"http://loinc.org","code":"49498-9"}]},"subject":{"reference":"Patient/c00021e3-936f-4f29-a61b-41804bb75617"},"effectiveDateTime":"2022-10-05T00:00:00+00:00"},"request":{"method":"POST","url":"Observation"}},{"fullUrl":"Observation/15878602-90ce-4ff9-ab8d-d4bb794dbe4c","resource":{"resourceType":"Observation","id":"15878602-90ce-4ff9-ab8d-d4bb794dbe4c","status":"final","code":{"coding":[{"system":"http://loinc.org","code":"49498-9"}]},"subject":{"reference":"Patient/c00021e3-936f-4f29-a61b-41804bb75617"},"effectiveDateTime":"2022-01-13T00:00:00+00:00"},"request":{"method":"POST","url":"Observation"}},{"fullUrl":"Procedure/8651fb34-9d5e-407c-8b0a-29fea5ad8349","resource":{"resourceType":"Procedure","id":"8651fb34-9d5e-407c-8b0a-29fea5ad8349","status":"completed","code":{"coding":[{"system":"http://snomed.info/sct","code":"104001"}]},"subject":{"reference":"Patient/c00021e3-936f-4f29-a61b-41804bb75617"},"performedDateTime":"2022-01-18T00:00:00+00:00"},"request":{"method":"POST","url":"Procedure"}},{"fullUrl":"Procedure/0f95e76f-0ff6-4194-8779-1fc07cd7985e","resource":{"resourceType":"Procedure","id":"0f95e76f-0ff6-4194-8779-1fc07cd7985e","status":"completed","code":{"coding":[{"system":"http://snomed.info/sct","code":"104001"}]},"subject":{"reference":"Patient/c00021e3-936f-4f29-a61b-41804bb75617"},"performedDateTime":"2022-12-08T00:00:00+00:00"},"request":{"method":"POST","url":"Procedure"}},{"fullUrl":"Procedure/260a5644-6382-4c38-8171-29bfdc0e71a7","resource":{"resourceType":"Procedure","id":"260a5644-6382-4c38-8171-29bfdc0e71a7","status":"completed","code":{"coding":[{"system":"http://snomed.info/sct","code":"146005"}]},"subject":{"reference":"Patient/c00021e3-936f-4f29-a61b-41804bb75617"},"performedDateTime":"2022-06-07T00:00:00+00:00"},"request":{"method":"POST","url":"Procedure"}},{"fullUrl":"MedicationStatement/c19469f2-9d2c-4870-9422-8370676ee9e1","resource":{"resourceType":"MedicationStatement","id":"c19469f2-9d2c-4870-9422-8370676ee9e1","status":"completed","medicationCodeableConcept":{"coding":[{"system":"http://www.nlm.nih.gov/research/umls/rxnorm","code":"18631"}]},"subject":{"reference":"Patient/c00021e3-936f-4f29-a61b-41804bb75617"},"effectiveDateTime":"2022-09-22T00:00:00+00:00","dosage":[{"doseAndRate":[{"doseQuantity":{"value":2,"unit":"TAB","system":"http://terminology.hl7.org/CodeSystem/v3-orderableDrugForm","code":"TAB"}}]}]},"request":{"method":"POST","url":"MedicationStatement"}},{"fullUrl":"MedicationStatement/96e5e968-c1ca-4a0e-99d8-8a76ad5e43fb","resource":{"resourceType":"MedicationStatement","id":"96e5e968-c1ca-4a0e-99d8-8a76ad5e43fb","status":"completed","medicationCodeableConcept":{"coding":[{"system":"http://www.nlm.nih.gov/research/umls/rxnorm","code":"8698"}]},"subject":{"reference":"Patient/c00021e3-936f-4f29-a61b-41804bb75617"},"effectiveDateTime":"2022-02-03T00:00:00+00:00","dosage":[{"doseAndRate":[{"doseQuantity":{"value":4,"unit":"TAB","system":"http://terminology.hl7.org/CodeSystem/v3-orderableDrugForm","code":"TAB"}}]}]},"request":{"method":"POST","url":"MedicationStatement"}},{"fullUrl":"MedicationStatement/2fcf9444-d395-4c3d-85aa-f4a02ed39cff","resource":{"resourceType":"MedicationStatement","id":"2fcf9444-d395-4c3d-85aa-f4a02ed39cff","status":"completed","medicationCodeableConcept":{"coding":[{"system":"http://www.nlm.nih.gov/research/umls/rxnorm","code":"18631"}]},"subject":{"reference":"Patient/c00021e3-936f-4f29-a61b-41804bb75617"},"effectiveDateTime":"2022-05-26T00:00:00+00:00","dosage":[{"doseAndRate":[{"doseQuantity":{"value":4.7,"unit":"TAB","system":"http://terminology.hl7.org/CodeSystem/v3-orderableDrugForm","code":"TAB"}}]}]},"request":{"method":"POST","url":"MedicationStatement"}},{"fullUrl":"MedicationStatement/c45b0a82-0b67-4c00-bf20-a4c5f81004a4","resource":{"resourceType":"MedicationStatement","id":"c45b0a82-0b67-4c00-bf20-a4c5f81004a4","status":"completed","medicationCodeableConcept":{"coding":[{"system":"http://www.nlm.nih.gov/research/umls/rxnorm","code":"2193"}]},"subject":{"reference":"Patient/c00021e3-936f-4f29-a61b-41804bb75617"},"effectiveDateTime":"2022-09-24T00:00:00+00:00","dosage":[{"doseAndRate":[{"doseQuantity":{"value":3.8,"unit":"TAB","system":"http://terminology.hl7.org/CodeSystem/v3-orderableDrugForm","code":"TAB"}}]}]},"request":{"method":"POST","url":"MedicationStatement"}},{"fullUrl":"MedicationStatement/ae96a62d-5788-4bfe-a79e-a630817e98a6","resource":{"resourceType":"MedicationStatement","id":"ae96a62d-5788-4bfe-a79e-a630817e98a6","status":"completed","medicationCodeableConcept":{"coding":[{"system":"http://www.nlm.nih.gov/research/umls/rxnorm","code":"8698"}]},"subject":{"reference":"Patient/c00021e3-936f-4f29-a61b-41804bb75617"},"effectiveDateTime":"2022-08-13T00:00:00+00:00","dosage":[{"doseAndRate":[{"doseQuantity":{"value":4.8,"unit":"TAB","system":"http://terminology.hl7.org/CodeSystem/v3-orderableDrugForm","code":"TAB"}}]}]},"request":{"method":"POST","url":"MedicationStatement"}},{"fullUrl":"MedicationStatement/54fec02d-ff31-4bd7-b742-48a5da3b8434","resource":{"resourceType":"MedicationStatement","id":"54fec02d-ff31-4bd7-b742-48a5da3b8434","status":"completed","medicationCodeableConcept":{"coding":[{"system":"http://www.nlm.nih.gov/research/umls/rxnorm","code":"7984"}]},"subject":{"reference":"Patient/c00021e3-936f-4f29-a61b-41804bb75617"},"effectiveDateTime":"2022-10-03T00:00:00+00:00","dosage":[{"doseAndRate":[{"doseQuantity":{"value":3.5,"unit":"TAB","system":"http://terminology.hl7.org/CodeSystem/v3-orderableDrugForm","code":"TAB"}}]}]},"request":{"method":"POST","url":"MedicationStatement"}},{"fullUrl":"Encounter/8ae7d4a6-165a-4f2b-8b7a-0ecc672964e3","resource":{"resourceType":"Encounter","id":"8ae7d4a6-165a-4f2b-8b7a-0ecc672964e3","status":"finished","class":{"system":"http://terminology.hl7.org/CodeSystem/v3-ActCode","code":"IMP","display":"inpatient encounter"},"type":[{"coding":[{"system":"http://terminology.hl7.org/CodeSystem/encounter-type","code":"CCS60"}]}],"subject":{"reference":"Patient/c00021e3-936f-4f29-a61b-41804bb75617"},"period":{"start":"2022-02-10T00:00:00+00:00","end":"2022-02-17T00:00:00+00:00"}},"request":{"method":"POST","url":"Encounter"}},{"fullUrl":"Encounter/bd25daa9-b4a0-4056-8d64-dd425fdabb12","resource":{"resourceType":"Encounter","id":"bd25daa9-b4a0-4056-8d64-dd425fdabb12","status":"finished","class":{"system":"http://terminology.hl7.org/CodeSystem/v3-ActCode","code":"IMP","display":"inpatient encounter"},"type":[{"coding":[{"system":"http://terminology.hl7.org/CodeSystem/encounter-type","code":"CCS60"}]}],"subject":{"reference":"Patient/c00021e3-936f-4f29-a61b-41804bb75617"},"period":{"start":"2022-07-28T00:00:00+00:00","end":"2022-08-03T00:00:00+00:00"}},"request":{"method":"POST","url":"Encounter"}},{"fullUrl":"Encounter/949898e1-0ee5-4128-a8d4-78ec4fd64a08","resource":{"resourceType":"Encounter","id":"949898e1-0ee5-4128-a8d4-78ec4fd64a08","status":"finished","class":{"system":"http://terminology.hl7.org/CodeSystem/v3-ActCode","code":"HH","display":"home health"},"type":[{"coding":[{"system":"http://terminology.hl7.org/CodeSystem/encounter-type","code":"ADMS"}]}],"subject":{"reference":"Patient/c00021e3-936f-4f29-a61b-41804bb75617"},"period":{"start":"2022-01-23T00:00:00+00:00","end":"2022-02-01T00:00:00+00:00"}},"request":{"method":"POST","url":"Encounter"}},{"fullUrl":"Encounter/c922166d-6956-480b-bccf-004206f26583","resource":{"resourceType":"Encounter","id":"c922166d-6956-480b-bccf-004206f26583","status":"finished","class":{"system":"http://terminology.hl7.org/CodeSystem/v3-ActCode","code":"SS","display":"short-stay"},"type":[{"coding":[{"system":"http://terminology.hl7.org/CodeSystem/encounter-type","code":"CCS60"}]}],"subject":{"reference":"Patient/c00021e3-936f-4f29-a61b-41804bb75617"},"period":{"start":"2022-03-26T00:00:00+00:00","end":"2022-03-26T00:00:00+00:00"}},"request":{"method":"POST","url":"Encounter"}},{"fullUrl":"Encounter/f230dfc7-1024-4ced-9c83-90f37c1deb60","resource":{"resourceType":"Encounter","id":"f230dfc7-1024-4ced-9c83-90f37c1deb60","status":"finished","class":{"system":"http://terminology.hl7.org/CodeSystem/v3-ActCode","code":"IMP","display":"inpatient encounter"},"type":[{"coding":[{"system":"http://terminology.hl7.org/CodeSystem/encounter-type","code":"ADMS"}]}],"subject":{"reference":"Patient/c00021e3-936f-4f29-a61b-41804bb75617"},"period":{"start":"2022-11-21T00:00:00+00:00","end":"2022-11-22T00:00:00+00:00"}},"request":{"method":"POST","url":"Encounter"}},{"fullUrl":"Patient/a538cf23-b6f9-4ef7-b742-d62328e2ef24","resource":{"resourceType":"Patient","id":"a538cf23-b6f9-4ef7-b742-d62328e2ef24","identifier":[{"type":{"coding":[{"system":"http://terminology.hl7.org/CodeSystem/v2-0203","code":"MR"}]},"system":"urn:fhirgen:mrn","value":"884-22-0603"}],"name":[{"use":"official","family":"Delacruz","given":["Anthony"]},{"use":"maiden","family":"Macias"}],"telecom":[{"system":"phone","value":"001-363-933-6419","use":"mobile"},{"system":"email","value":"ugarcia@gmail.com","use":"mobile"}],"gender":"other","birthDate":"1995-07-01","address":[{"use":"home","line":["1405 Brandon Park"],"city":"Aliburgh","state":"KY","postalCode":"85542"},{"use":"old","line":["003 Wesley Mountain"],"city":"South Roberthaven","state":"MO","postalCode":"68864"}]},"request":{"method":"POST","url":"Patient"}},{"fullUrl":"Observation/43b1ab78-f257-411b-9d34-4c05faa38e4c","resource":{"resourceType":"Observation","id":"43b1ab78-f257-411b-9d34-4c05faa38e4c","status":"final","code":{"coding":[{"system":"http://loinc.org","code":"26009-1"}]},"subject":{"reference":"Patient/a538cf23-b6f9-4ef7-b742-d62328e2ef24"},"effectiveDateTime":"2022-02-08T00:00:00+00:00","valueRatio":{"numerator":{"value":1},"denominator":{"value":4}}},"request":{"method":"POST","url":"Observation"}},{"fullUrl":"Observation/efaee0c1-a952-408c-aa15-b196bb36cdce","resource":{"resourceType":"Observation","id":"efaee0c1-a952-408c-aa15-b196bb36cdce","status":"final","code":{"coding":[{"system":"http://loinc.org","code":"71793-4"}]},"subject":{"reference":"Patient/a538cf23-b6f9-4ef7-b742-d62328e2ef24"},"effectiveDateTime":"2022-12-27T00:00:00+00:00","valueRatio":{"numerator":{"value":1},"denominator":{"value":4}}},"request":{"method":"POST","url":"Observation"}},{"fullUrl":"Observation/bc037950-de56-47c1-a44f-f83acdca08fe","resource":{"resourceType":"Observation","id":"bc037950-de56-47c1-a44f-f83acdca08fe","status":"final","code":{"coding":[{"system":"http://loinc.org","code":"22590-4"}]},"subject":{"reference":"Patient/a538cf23-b6f9-4ef7-b742-d62328e2ef24"},"effectiveDateTime":"2022-08-31T00:00:00+00:00","valueRatio":{"numerator":{"value":1},"denominator":{"value":32}}},"request":{"method":"POST","url":"Observation"}},{"fullUrl":"Condition/1e6a09f2-28e2-4a17-bf5b-9bcd1f588f46","resource":{"resourceType":"Condition","id":"1e6a09f2-28e2-4a17-bf5b-9bcd1f588f46","code":{"coding":[{"system":"http://snomed.info/sct","code":"418290006"}]},"subject":{"reference":"Patient/a538cf23-b6f9-4ef7-b742-d62328e2ef24"},"onsetDateTime":"2022-01-24T00:00:00+00:00"},"request":{"method":"POST","url":"Condition"}},{"fullUrl":"Condition/8e199137-3c9d-4d46-b39d-97b6e8b0ec4f","resource":{"resourceType":"Condition","id":"8e199137-3c9d-4d46-b39d-97b6e8b0ec4f","code":{"coding":[{"system":"http://snomed.info/sct","code":"91554004"}]},"subject":{"reference":"Patient/a538cf23-b6f9-4ef7-b742-d62328e2ef24"},"onsetDateTime":"2022-07-25T00:00:00+00:00"},"request":{"method":"POST","url":"Condition"}},{"fullUrl":"Condition/78d96e02-725e-496b-ab25-4188fb4a33e1","resource":{"resourceType":"Condition","id":"78d96e02-725e-496b-ab25-4188fb4a33e1","code":{"coding":[{"system":"http://snomed.info/sct","code":"56317004"}]},"subject":{"reference":"Patient/a538cf23-b6f9-4ef7-b742-d62328e2ef24"},"onsetDateTime":"2022-02-09T00:00:00+00:00"},"request":{"method":"POST","url":"Condition"}},{"fullUrl":"Condition/c56c458e-c79b-4d0c-b1a0-2a4a88269963","resource":{"resourceType":"Condition","id":"c56c458e-c79b-4d0c-b1a0-2a4a88269963","code":{"coding":[{"system":"http://snomed.info/sct","code":"418290006"}]},"subject":{"reference":"Patient/a538cf23-b6f9-4ef7-b742-d62328e2ef24"},"onsetDateTime":"2022-08-14T00:00:00+00:00"},"request":{"method":"POST","url":"Condition"}},{"fullUrl":"Condition/9236ea3e-e58e-47fe-81b5-e9be1736e8d4","resource":{"resourceType":"Condition","id":"9236ea3e-e58e-47fe-81b5-e9be1736e8d4","code":{"coding":[{"system":"http://snomed.info/sct","code":"709977002"}]},"subject":{"reference":"Patient/a538cf23-b6f9-4ef7-b742-d62328e2ef24"},"onsetDateTime":"2022-03-16T00:00:00+00:00"},"request":{"method":"POST","url":"Condition"}},{"fullUrl":"Condition/7d55cc5c-e00f-45d6-b8fa-6e8472e3cc15","resource":{"resourceType":"Condition","id":"7d55cc5c-e00f-45d6-b8fa-6e8472e3cc15","code":{"coding":[{"system":"http://snomed.info/sct","code":"271807003"}]},"subject":{"reference":"Patient/a538cf23-b6f9-4ef7-b742-d62328e2ef24"},"onsetDateTime":"2022-04-17T00:00:00+00:00"},"request":{"method":"POST","url":"Condition"}},{"fullUrl":"Condition/67c96ee8-ecfa-4dec-a9f4-09edef10b2df","resource":{"resourceType":"Condition","id":"67c96ee8-ecfa-4dec-a9f4-09edef10b2df","code":{"coding":[{"system":"http://snomed.info/sct","code":"18165001"}]},"subject":{"reference":"Patient/a538cf23-b6f9-4ef7-b742-d62328e2ef24"},"onsetDateTime":"2022-11-18T00:00:00+00:00"},"request":{"method":"POST","url":"Condition"}},{"fullUrl":"Observation/1e9b327e-8a2b-40f5-816d-957a6bd44207","resource":{"resourceType":"Observation","id":"1e9b327e-8a2b-40f5-816d-957a6bd44207","status":"final","code":{"coding":[{"system":"http://loinc.org","code":"49498-9"}]},"subject":{"reference":"Patient/a538cf23-b6f9-4ef7-b742-d62328e2ef24"},"effectiveDateTime":"2022-04-28T00:00:00+00:00","valueQuantity":{"value":5.9}},"request":{"method":"POST","url":"Observation"}},{"fullUrl":"Observation/dd54af64-0179-417b-8214-ca5b3e097d1b","resource":{"resourceType":"Observation","id":"dd54af64-0179-417b-8214-ca5b3e097d1b","status":"final","code":{"coding":[{"system":"http://www.ama-assn.org/go/cpt","code":"85048"}]},"subject":{"reference":"Patient/a538cf23-b6f9-4ef7-b742-d62328e2ef24"},"effectiveDateTime":"2022-10-05T00:00:00+00:00","valueQuantity":{"value":10.5}},"request":{"method":"POST","url":"Observation"}},{"fullUrl":"Observation/eac9a7aa-f07c-47da-b66f-df8181ad9eef","resource":{"resourceType":"Observation","id":"eac9a7aa-f07c-47da-b66f-df8181ad9eef","status":"final","code":{"coding":[{"system":"http://loinc.org","code":"6690-2"}]},"subject":{"reference":"Patient/a538cf23-b6f9-4ef7-b742-d62328e2ef24"},"effectiveDateTime":"2022-03-14T00:00:00+00:00","valueQuantity":{"value":6.5}},"request":{"method":"POST","url":"Observation"}},{"fullUrl":"Observation/0ec3db5c-f69d-4d2b-80fc-69d139d30d5c","resource":{"resourceType":"Observation","id":"0ec3db5c-f69d-4d2b-80fc-69d139d30d5c","status":"final","code":{"coding":[{"system":"http://loinc.org","code":"49498-9"}]},"subject":{"reference":"Patient/a538cf23-b6f9-4ef7-b742-d62328e2ef24"},"effectiveDateTime":"2022-03-26T00:00:00+00:00"},"request":{"method":"POST","url":"Observation"}},{"fullUrl":"Observation/28587a63-2428-4ea5-85c3-e1e835edf391","resource":{"resourceType":"Observation","id":"28587a63-2428-4ea5-85c3-e1e835edf391","status":"final","code":{"coding":[{"system":"http://loinc.org","code":"49498-9"}]},"subject":{"reference":"Patient/a538cf23-b6f9-4ef7-b742-d62328e2ef24"},"effectiveDateTime":"2022-05-08T00:00:00+00:00"},"request":{"method":"POST","url":"Observation"}},{"fullUrl":"Observation/2c863820-97f1-4d2e-81e0-fbcfcbf2e3b3","resource":{"resourceType":"Observation","id":"2c863820-97f1-4d2e-81e0-fbcfcbf2e3b3","status":"final","code":{"coding":[{"system":"http://loinc.org","code":"49498-9"}]},"subject":{"reference":"Patient/a538cf23-b6f9-4ef7-b742-d62328e2ef24"},"effectiveDateTime":"2022-12-29T00:00:00+00:00"},"request":{"method":"POST","url":"Observation"}},{"fullUrl":"Procedure/3eb34245-06ed-48db-9a80-a969e3ae9cd9","resource":{"resourceType":"Procedure","id":"3eb34245-06ed-48db-9a80-a969e3ae9cd9","status":"completed","code":{"coding":[{"system":"http://snomed.info/sct","code":"115006"}]},"subject":{"reference":"Patient/a538cf23-b6f9-4ef7-b742-d62328e2ef24"},"performedDateTime":"2022-12-29T00:00:00+00:00"},"request":{"method":"POST","url":"Procedure"}},{"fullUrl":"Procedure/52a2d89a-c8f0-4df9-a3a7-e128976f8705","resource":{"resourceType":"Procedure","id":"52a2d89a-c8f0-4df9-a3a7-e128976f8705","status":"completed","code":{"coding":[{"system":"http://snomed.info/sct","code":"189009"}]},"subject":{"reference":"Patient/a538cf23-b6f9-4ef7-b742-d62328e2ef24"},"performedDateTime":"2022-03-12T00:00:00+00:00"},"request":{"method":"POST","url":"Procedure"}},{"fullUrl":"Procedure/268e9b4d-a476-4dbb-a51b-44f987f38fab","resource":{"resourceType":"Procedure","id":"268e9b4d-a476-4dbb-a51b-44f987f38fab","status":"completed","code":{"coding":[{"system":"http://snomed.info/sct","code":"104001"}]},"subject":{"reference":"Patient/a538cf23-b6f9-4ef7-b742-d62328e2ef24"},"performedDateTime":"2022-03-13T00:00:00+00:00"},"request":{"method":"POST","url":"Procedure"}},{"fullUrl":"MedicationStatement/93eb0af0-1d13-4271-89ed-6debd540f99b","resource":{"resourceType":"MedicationStatement","id":"93eb0af0-1d13-4271-89ed-6debd540f99b","status":"completed","medicationCodeableConcept":{"coding":[{"system":"http://www.nlm.nih.gov/research/umls/rxnorm","code":"3640"}]},"subject":{"reference":"Patient/a538cf23-b6f9-4ef7-b742-d62328e2ef24"},"effectiveDateTime":"2022-05-24T00:00:00+00:00","dosage":[{"doseAndRate":[{"doseQuantity":{"value":2,"unit":"TAB","system":"http://terminology.hl7.org/CodeSystem/v3-orderableDrugForm","code":"TAB"}}]}]},"request":{"method":"POST","url":"MedicationStatement"}},{"fullUrl":"MedicationStatement/a434c59b-b620-467a-a307-72cff481eb22","resource":{"resourceType":"MedicationStatement","id":"a434c59b-b620-467a-a307-72cff481eb22","status":"completed","medicationCodeableConcept":{"coding":[{"system":"http://www.nlm.nih.gov/research/umls/rxnorm","code":"7984"}]},"subject":{"reference":"Patient/a538cf23-b6f9-4ef7-b742-d62328e2ef24"},"effectiveDateTime":"2022-03-19T00:00:00+00:00","dosage":[{"doseAndRate":[{"doseQuantity":{"value":2,"unit":"TAB","system":"http://terminology.hl7.org/CodeSystem/v3-orderableDrugForm","code":"TAB"}}]}]},"request":{"method":"POST","url":"MedicationStatement"}},{"fullUrl":"MedicationStatement/cefc657d-c711-44cf-9e34-1126a0afd2a1","resource":{"resourceType":"MedicationStatement","id":"cefc657d-c711-44cf-9e34-1126a0afd2a1","status":"completed","medicationCodeableConcept":{"coding":[{"system":"http://www.nlm.nih.gov/research/umls/rxnorm","code":"10395"}]},"subject":{"reference":"Patient/a538cf23-b6f9-4ef7-b742-d62328e2ef24"},"effectiveDateTime":"2022-01-04T00:00:00+00:00","dosage":[{"doseAndRate":[{"doseQuantity":{"value":2,"unit":"TAB","system":"http://terminology.hl7.org/CodeSystem/v3-orderableDrugForm","code":"TAB"}}]}]},"request":{"method":"POST","url":"MedicationStatement"}},{"fullUrl":"MedicationStatement/563830d6-fbc1-4230-95d7-6a3ce82ff24e","resource":{"resourceType":"MedicationStatement","id":"563830d6-fbc1-4230-95d7-6a3ce82ff24e","status":"completed","medicationCodeableConcept":{"coding":[{"system":"http://www.nlm.nih.gov/research/umls/rxnorm","code":"7980"}]},"subject":{"reference":"Patient/a538cf23-b6f9-4ef7-b742-d62328e2ef24"},"effectiveDateTime":"2022-04-17T00:00:00+00:00","dosage":[{"doseAndRate":[{"doseQuantity":{"value":2,"unit":"TAB","system":"http://terminology.hl7.org/CodeSystem/v3-orderableDrugForm","code":"TAB"}}]}]},"request":{"method":"POST","url":"MedicationStatement"}},{"fullUrl":"MedicationStatement/70e508c4-315e-4933-8af2-8f2e194f8b92","resource":{"resourceType":"MedicationStatement","id":"70e508c4-315e-4933-8af2-8f2e194f8b92","status":"completed","medicationCodeableConcept":{"coding":[{"system":"http://www.nlm.nih.gov/research/umls/rxnorm","code":"8698"}]},"subject":{"reference":"Patient/a538cf23-b6f9-4ef7-b742-d62328e2ef24"},"effectiveDateTime":"2022-03-19T00:00:00+00:00","dosage":[{"doseAndRate":[{"doseQuantity":{"value":1,"unit":"TAB","system":"http://terminology.hl7.org/CodeSystem/v3-orderableDrugForm","code":"TAB"}}]}]},"request":{"method":"POST","url":"MedicationStatement"}},{"fullUrl":"MedicationStatement/1be9a46b-1f77-4b96-aef5-844bb7ff9dbd","resource":{"resourceType":"MedicationStatement","id":"1be9a46b-1f77-4b96-aef5-844bb7ff9dbd","status":"completed","medicationCodeableConcept":{"coding":[{"system":"http://www.nlm.nih.gov/research/umls/rxnorm","code":"18631"}]},"subject":{"reference":"Patient/a538cf23-b6f9-4ef7-b742-d62328e2ef24"},"effectiveDateTime":"2022-01-31T00:00:00+00:00","dosage":[{"doseAndRate":[{"doseQuantity":{"value":4.3,"unit":"TAB","system":"http://terminology.hl7.org/CodeSystem/v3-orderableDrugForm","code":"TAB"}}]}]},"request":{"method":"POST","url":"MedicationStatement"}},{"fullUrl":"MedicationStatement/187fed16-550a-4734-b9a9-013dae49e67f","resource":{"resourceType":"MedicationStatement","id":"187fed16-550a-4734-b9a9-013dae49e67f","status":"completed","medicationCodeableConcept":{"coding":[{"system":"http://www.nlm.nih.gov/research/umls/rxnorm","code":"2193"}]},"subject":{"reference":"Patient/a538cf23-b6f9-4ef7-b742-d62328e2ef24"},"effectiveDateTime":"2022-11-30T00:00:00+00:00","dosage":[{"doseAndRate":[{"doseQuantity":{"value":3.8,"unit":"TAB","system":"http://terminology.hl7.org/CodeSystem/v3-orderableDrugForm","code":"TAB"}}]}]},"request":{"method":"POST","url":"MedicationStatement"}},{"fullUrl":"MedicationStatement/71ea88f6-d666-46e5-862c-b1892a54fe9f","resource":{"resourceType":"MedicationStatement","id":"71ea88f6-d666-46e5-862c-b1892a54fe9f","status":"completed","medicationCodeableConcept":{"coding":[{"system":"http://www.nlm.nih.gov/research/umls/rxnorm","code":"2193"}]},"subject":{"reference":"Patient/a538cf23-b6f9-4ef7-b742-d62328e2ef24"},"effectiveDateTime":"2022-02-16T00:00:00+00:00","dosage":[{"doseAndRate":[{"doseQuantity":{"value":4.9,"unit":"TAB","system":"http://terminology.hl7.org/CodeSystem/v3-orderableDrugForm","code":"TAB"}}]}]},"request":{"method":"POST","url":"MedicationStatement"}},{"fullUrl":"MedicationStatement/ff87f931-1718-4fe4-a3bf-66fe65f3ed6b","resource":{"resourceType":"MedicationStatement","id":"ff87f931-1718-4fe4-a3bf-66fe65f3ed6b","status":"completed","medicationCodeableConcept":{"coding":[{"system":"http://www.nlm.nih.gov/research/umls/rxnorm","code":"7980"}]},"subject":{"reference":"Patient/a538cf23-b6f9-4ef7-b742-d62328e2ef24"},"effectiveDateTime":"2022-08-04T00:00:00+00:00","dosage":[{"doseAndRate":[{"doseQuantity":{"value":5.3,"unit":"TAB","system":"http://terminology.hl7.org/CodeSystem/v3-orderableDrugForm","code":"TAB"}}]}]},"request":{"method":"POST","url":"MedicationStatement"}},{"fullUrl":"Encounter/96fcd8e4-b17c-4dda-9f4e-f561c0483986","resource":{"resourceType":"Encounter","id":"96fcd8e4-b17c-4dda-9f4e-f561c0483986","status":"finished","class":{"system":"http://terminology.hl7.org/CodeSystem/v3-ActCode","code":"IMP","display":"inpatient encounter"},"type":[{"coding":[{"system":"http://terminology.hl7.org/CodeSystem/encounter-type","code":"CCS60"}]}],"subject":{"reference":"Patient/a538cf23-b6f9-4ef7-b742-d62328e2ef24"},"period":{"start":"2022-01-29T00:00:00+00:00","end":"2022-02-06T00:00:00+00:00"}},"request":{"method":"POST","url":"Encounter"}},{"fullUrl":"Encounter/bc3681ea-5131-49e3-9cd9-50e8f1f6c726","resource":{"resourceType":"Encounter","id":"bc3681ea-5131-49e3-9cd9-50e8f1f6c726","status":"finished","class":{"system":"http://terminology.hl7.org/CodeSystem/v3-ActCode","code":"IMP","display":"inpatient encounter"},"type":[{"coding":[{"system":"http://terminology.hl7.org/CodeSystem/encounter-type","code":"ADMS"}]}],"subject":{"reference":"Patient/a538cf23-b6f9-4ef7-b742-d62328e2ef24"},"period":{"start":"2022-07-09T00:00:00+00:00","end":"2022-07-14T00:00:00+00:00"}},"request":{"method":"POST","url":"Encounter"}},{"fullUrl":"Encounter/e0285721-853f-40f9-ad4b-65e3688f11cc","resource":{"resourceType":"Encounter","id":"e0285721-853f-40f9-ad4b-65e3688f11cc","status":"finished","class":{"system":"http://terminology.hl7.org/CodeSystem/v3-ActCode","code":"IMP","display":"inpatient encounter"},"type":[{"coding":[{"system":"http://terminology.hl7.org/CodeSystem/encounter-type","code":"BD/BM-clin"}]}],"subject":{"reference":"Patient/a538cf23-b6f9-4ef7-b742-d62328e2ef24"},"period":{"start":"2022-04-21T00:00:00+00:00","end":"2022-04-28T00:00:00+00:00"}},"request":{"method":"POST","url":"Encounter"}},{"fullUrl":"Encounter/248bb872-3ff0-4f08-bf3c-338ce53c0936","resource":{"resourceType":"Encounter","id":"248bb872-3ff0-4f08-bf3c-338ce53c0936","status":"finished","class":{"system":"http://terminology.hl7.org/CodeSystem/v3-ActCode","code":"FLD","display":"field"},"type":[{"coding":[{"system":"http://terminology.hl7.org/CodeSystem/encounter-type","code":"ADMS"}]}],"subject":{"reference":"Patient/a538cf23-b6f9-4ef7-b742-d62328e2ef24"},"period":{"start":"2022-05-06T00:00:00+00:00","end":"2022-05-08T00:00:00+00:00"}},"request":{"method":"POST","url":"Encounter"}},{"fullUrl":"Encounter/b172386c-8aef-4d9d-b6be-01f0f0f82eab","resource":{"resourceType":"Encounter","id":"b172386c-8aef-4d9d-b6be-01f0f0f82eab","status":"finished","class":{"system":"http://terminology.hl7.org/CodeSystem/v3-ActCode","code":"AMB","display":"ambulatory"},"type":[{"coding":[{"system":"http://terminology.hl7.org/CodeSystem/encounter-type","code":"ADMS"}]}],"subject":{"reference":"Patient/a538cf23-b6f9-4ef7-b742-d62328e2ef24"},"period":{"start":"2022-11-16T00:00:00+00:00","end":"2022-11-25T00:00:00+00:00"}},"request":{"method":"POST","url":"Encounter"}}]}