{"resourceType":"Bundle","id":"8ae35069-f6dc-427f-8b59-632514fb835d","type":"collection","entry":[{"fullUrl":"Patient/ac62147a-8797-4d7b-bd05-8bb2cd55167c","resource":{"resourceType":"Patient","id":"ac62147a-8797-4d7b-bd05-8bb2cd55167c","meta":{"profile":["http://hl7.org/fhir/us/core/StructureDefinition/us-core-patient"]},"extension":[{"extension":[{"url":"ombCategory","valueCoding":{"system":"http://terminology.hl7.org/CodeSystem/v3-NullFlavor","code":"ASKU","display":"asked but unknown"}},{"url":"text","valueString":"asked but unknown"}],"url":"http://hl7.org/fhir/us/core/StructureDefinition/us-core-race"},{"extension":[{"url":"ombCategory","valueCoding":{"system":"urn:oid:2.16.840.1.113883.6.238","code":"2186-5","display":"Non Hispanic or Latino"}},{"url":"text","valueString":"Non Hispanic or Latino"}],"url":"http://hl7.org/fhir/us/core/StructureDefinition/us-core-ethnicity"}],"identifier":[{"type":{"coding":[{"system":"http://terminology.hl7.org/CodeSystem/v2-0203","code":"MR"}]},"system":"urn:fhirgen:mrn","value":"847-72-5592"}],"name":[{"use":"official","family":"Heath","given":["David"]},{"use":"maiden","family":"Kirby"}],"telecom":[{"system":"phone","value":"223.848.0408x530","use":"home"},{"system":"email","value":"arthur16@hotmail.com","use":"mobile"}],"gender":"male","birthDate":"1973-04-22","address":[{"use":"home","line":["0361 Kenneth Pines Apt. 388"],"city":"Hallview","state":"VA","postalCode":"90795"},{"use":"old","line":["788 Leah Lane"],"city":"North David","state":"WI","postalCode":"78682"}]}},{"fullUrl":"Observation/e5207686-8f5d-405c-8d1e-81a868aa37f5","resource":{"resourceType":"Observation","id":"e5207686-8f5d-405c-8d1e-81a868aa37f5","meta":{"profile":["http://hl7.org/fhir/us/core/StructureDefinition/us-core-observation-lab"]},"status":"final","category":[{"coding":[{"system":"http://terminology.hl7.org/CodeSystem/observation-category","code":"laboratory","display":"Laboratory"}]}],"code":{"coding":[{"system":"http://loinc.org","code":"31146-4"}]},"subject":{"reference":"Patient/ac62147a-8797-4d7b-bd05-8bb2cd55167c"},"effectiveDateTime":"2022-11-02T00:00:00+00:00","valueRatio":{"numerator":{"value":1},"denominator":{"value":64}}}},{"fullUrl":"Observation/3979e8a7-c351-45bb-b962-615390f1ed2c","resource":{"resourceType":"Observation","id":"3979e8a7-c351-45bb-b962-615390f1ed2c","meta":{"profile":["http://hl7.org/fhir/us/core/StructureDefinition/us-core-observation-lab"]},"status":"final","category":[{"coding":[{"system":"http://terminology.hl7.org/CodeSystem/observation-category","code":"laboratory","display":"Laboratory"}]}],"code":{"coding":[{"system":"http://loinc.org","code":"11084-1"}]},"subject":{"reference":"Patient/ac62147a-8797-4d7b-bd05-8bb2cd55167c"},"effectiveDateTime":"2022-03-19T00:00:00+00:00","valueRatio":{"numerator":{"value":1},"denominator":{"value":4}}}},{"fullUrl":"Observation/1fba563c-3475-498d-8b72-216ebfd7a17d","resource":{"resourceType":"Observation","id":"1fba563c-3475-498d-8b72-216ebfd7a17d","meta":{"profile":["http://hl7.org/fhir/us/core/StructureDefinition/us-core-observation-lab"]},"status":"final","category":[{"coding":[{"system":"http://terminology.hl7.org/CodeSystem/observation-category","code":"laboratory","display":"Laboratory"}]}],"code":{"coding":[{"system":"http://loinc.org","code":"11084-1"}]},"subject":{"reference":"Patient/ac62147a-8797-4d7b-bd05-8bb2cd55167c"},"effectiveDateTime":"2022-09-20T00:00:00+00:00","valueRatio":{"numerator":{"value":1},"denominator":{"value":64}}}},{"fullUrl":"Condition/5f0ab964-48aa-42c7-93dc-74d1b4a21c5e","resource":{"resourceType":"Condition","id":"5f0ab964-48aa-42c7-93dc-74d1b4a21c5e","meta":{"profile":["http://hl7.org/fhir/us/core/StructureDefinition/us-core-condition"]},"clinicalStatus":{"coding":[{"system":"http://terminology.hl7.org/CodeSystem/condition-clinical","code":"active","display":"Active"}]},"category":[{"coding":[{"system":"http://terminology.hl7.org/CodeSystem/condition-category","code":"problem-list-item"}]}],"code":{"coding":[{"system":"http://snomed.info/sct","code":"736686006"}]},"subject":{"reference":"Patient/ac62147a-8797-4d7b-bd05-8bb2cd55167c"},"onsetDateTime":"2022-09-08T00:00:00+00:00"}},{"fullUrl":"Condition/7cd48664-1e4f-4619-9eab-7575871b6874","resource":{"resourceType":"Condition","id":"7cd48664-1e4f-4619-9eab-7575871b6874","meta":{"profile":["http://hl7.org/fhir/us/core/StructureDefinition/us-core-condition"]},"clinicalStatus":{"coding":[{"system":"http://terminology.hl7.org/CodeSystem/condition-clinical","code":"active","display":"Active"}]},"category":[{"coding":[{"system":"http://terminology.hl7.org/CodeSystem/condition-category","code":"problem-list-item"}]}],"code":{"coding":[{"system":"http://snomed.info/sct","code":"736686006"}]},"subject":{"reference":"Patient/ac62147a-8797-4d7b-bd05-8bb2cd55167c"},"onsetDateTime":"2022-09-07T00:00:00+00:00"}},{"fullUrl":"Condition/949e8f9f-7121-4468-ac8d-8a8ad99a337a","resource":{"resourceType":"Condition","id":"949e8f9f-7121-4468-ac8d-8a8ad99a337a","meta":{"profile":["http://hl7.org/fhir/us/core/StructureDefinition/us-core-condition"]},"clinicalStatus":{"coding":[{"system":"http://terminology.hl7.org/CodeSystem/condition-clinical","code":"active","display":"Active"}]},"category":[{"coding":[{"system":"http://terminology.hl7.org/CodeSystem/condition-category","code":"problem-list-item"}]}],"code":{"coding":[{"system":"http://snomed.info/sct","code":"736686006"}]},"subject":{"reference":"Patient/ac62147a-8797-4d7b-bd05-8bb2cd55167c"},"onsetDateTime":"2022-04-16T00:00:00+00:00"}},{"fullUrl":"Condition/f93dedfa-6cd0-4063-b79f-18d190b20b44","resource":{"resourceType":"Condition","id":"f93dedfa-6cd0-4063-b79f-18d190b20b44","meta":{"profile":["http://hl7.org/fhir/us/core/StructureDefinition/us-core-condition"]},"clinicalStatus":{"coding":[{"system":"http://terminology.hl7.org/CodeSystem/condition-clinical","code":"active","display":"Active"}]},"category":[{"coding":[{"system":"http://terminology.hl7.org/CodeSystem/condition-category","code":"problem-list-item"}]}],"code":{"coding":[{"system":"http://snomed.info/sct","code":"709977002"}]},"subject":{"reference":"Patient/ac62147a-8797-4d7b-bd05-8bb2cd55167c"},"onsetDateTime":"2022-04-26T00:00:00+00:00"}},{"fullUrl":"Condition/c4dac84d-ce62-4c3c-94bd-7d817d9dd2a9","resource":{"resourceType":"Condition","id":"c4dac84d-ce62-4c3c-94bd-7d817d9dd2a9","meta":{"profile":["http://hl7.org/fhir/us/core/StructureDefinition/us-core-condition"]},"clinicalStatus":{"coding":[{"system":"http://terminology.hl7.org/CodeSystem/condition-clinical","code":"active","display":"Active"}]},"category":[{"coding":[{"system":"http://terminology.hl7.org/CodeSystem/condition-category","code":"problem-list-item"}]}],"code":{"coding":[{"system":"http://snomed.info/sct","code":"709977002"}]},"subject":{"reference":"Patient/ac62147a-8797-4d7b-bd05-8bb2cd55167c"},"onsetDateTime":"2022-12-08T00:00:00+00:00"}},{"fullUrl":"Condition/099469ca-4319-4e66-ae68-7a33a886e0bf","resource":{"resourceType":"Condition","id":"099469ca-4319-4e66-ae68-7a33a886e0bf","meta":{"profile":["http://hl7.org/fhir/us/core/StructureDefinition/us-core-condition"]},"clinicalStatus":{"coding":[{"system":"http://terminology.hl7.org/CodeSystem/condition-clinical","code":"active","display":"Active"}]},"category":[{"coding":[{"system":"http://terminology.hl7.org/CodeSystem/condition-category","code":"problem-list-item"}]}],"code":{"coding":[{"system":"http://snomed.info/sct","code":"44882003"}]},"subject":{"reference":"Patient/ac62147a-8797-4d7b-bd05-8bb2cd55167c"},"onsetDateTime":"2022-07-18T00:00:00+00:00"}},{"fullUrl":"Observation/9182235e-9a91-48c8-ac52-9c3e120c9255","resource":{"resourceType":"Observation","id":"9182235e-9a91-48c8-ac52-9c3e120c9255","meta":{"profile":["http://hl7.org/fhir/us/core/StructureDefinition/us-core-observation-lab"]},"status":"final","category":[{"coding":[{"system":"http://terminology.hl7.org/CodeSystem/observation-category","code":"laboratory","display":"Laboratory"}]}],"code":{"coding":[{"system":"http://loinc.org","code":"6690-2"}]},"subject":{"reference":"Patient/ac62147a-8797-4d7b-bd05-8bb2cd55167c"},"effectiveDateTime":"2022-11-18T00:00:00+00:00","valueQuantity":{"value":4.8}}},{"fullUrl":"Observation/7bc4733c-99ec-4da0-a424-edd4cea9c813","resource":{"resourceType":"Observation","id":"7bc4733c-99ec-4da0-a424-edd4cea9c813","meta":{"profile":["http://hl7.org/fhir/us/core/StructureDefinition/us-core-observation-lab"]},"status":"final","category":[{"coding":[{"system":"http://terminology.hl7.org/CodeSystem/observation-category","code":"laboratory","display":"Laboratory"}]}],"code":{"coding":[{"system":"http://loinc.org","code":"49498-9"}]},"subject":{"reference":"Patient/ac62147a-8797-4d7b-bd05-8bb2cd55167c"},"effectiveDateTime":"2022-10-27T00:00:00+00:00","valueQuantity":{"value":5.7}}},{"fullUrl":"Observation/5aca09ab-778e-4f7b-85c0-453b6488875c","resource":{"resourceType":"Observation","id":"5aca09ab-778e-4f7b-85c0-453b6488875c","meta":{"profile":["http://hl7.org/fhir/us/core/StructureDefinition/us-core-bmi"]},"status":"final","category":[{"coding":[{"system":"http://terminology.hl7.org/CodeSystem/observation-category","code":"vital-signs","display":"Vital Signs"}]}],"code":{"coding":[{"system":"http://loinc.org","code":"39156-5"}]},"subject":{"reference":"Patient/ac62147a-8797-4d7b-bd05-8bb2cd55167c"},"effectiveDateTime":"2022-10-23T00:00:00+00:00","valueQuantity":{"value":18.04,"unit":"kg/m2","system":"http://unitsofmeasure.org","code":"kg/m2"}}},{"fullUrl":"Observation/b1598cdf-02d5-43c3-8e11-7ab37f68aaea","resource":{"resourceType":"Observation","id":"b1598cdf-02d5-43c3-8e11-7ab37f68aaea","meta":{"profile":["http://hl7.org/fhir/us/core/StructureDefinition/us-core-head-circumference"]},"status":"final","category":[{"coding":[{"system":"http://terminology.hl7.org/CodeSystem/observation-category","code":"vital-signs","display":"Vital Signs"}]}],"code":{"coding":[{"system":"http://loinc.org","code":"9843-4"}]},"subject":{"reference":"Patient/ac62147a-8797-4d7b-bd05-8bb2cd55167c"},"effectiveDateTime":"2022-04-07T00:00:00+00:00","valueQuantity":{"value":9.4,"unit":"Inch","system":"http://unitsofmeasure.org","code":"[in_i]"}}},{"fullUrl":"Observation/f3626ddb-11c1-41d1-b423-7fa8ef042c3a","resource":{"resourceType":"Observation","id":"f3626ddb-11c1-41d1-b423-7fa8ef042c3a","meta":{"profile":["http://hl7.org/fhir/us/core/StructureDefinition/us-core-body-height"]},"status":"final","category":[{"coding":[{"system":"http://terminology.hl7.org/CodeSystem/observation-category","code":"vital-signs","display":"Vital Signs"}]}],"code":{"coding":[{"system":"http://loinc.org","code":"8302-2"}]},"subject":{"reference":"Patient/ac62147a-8797-4d7b-bd05-8bb2cd55167c"},"effectiveDateTime":"2022-07-02T00:00:00+00:00","valueQuantity":{"value":83,"unit":"Inch","system":"http://unitsofmeasure.org","code":"[in_i]"}}},{"fullUrl":"Observation/f521759a-1b85-4f03-b654-31da510df311","resource":{"resourceType":"Observation","id":"f521759a-1b85-4f03-b654-31da510df311","meta":{"profile":["http://hl7.org/fhir/us/core/StructureDefinition/us-core-body-weight"]},"status":"final","category":[{"coding":[{"system":"http://terminology.hl7.org/CodeSystem/observation-category","code":"vital-signs","display":"Vital Signs"}]}],"code":{"coding":[{"system":"http://loinc.org","code":"29463-7"}]},"subject":{"reference":"Patient/ac62147a-8797-4d7b-bd05-8bb2cd55167c"},"effectiveDateTime":"2022-06-05T00:00:00+00:00","valueQuantity":{"value":49.33,"unit":"kilogram","system":"http://unitsofmeasure.org","code":"kg"}}},{"fullUrl":"Observation/ceb5ca27-c797-482c-9471-cb35713017fc","resource":{"resourceType":"Observation","id":"ceb5ca27-c797-482c-9471-cb35713017fc","meta":{"profile":["http://hl7.org/fhir/us/core/StructureDefinition/us-core-body-weight"]},"status":"final","category":[{"coding":[{"system":"http://terminology.hl7.org/CodeSystem/observation-category","code":"vital-signs","display":"Vital Signs"}]}],"code":{"coding":[{"system":"http://loinc.org","code":"29463-7"}]},"subject":{"reference":"Patient/ac62147a-8797-4d7b-bd05-8bb2cd55167c"},"effectiveDateTime":"2022-05-04T00:00:00+00:00","valueQuantity":{"value":34.49,"unit":"kilogram","system":"http://unitsofmeasure.org","code":"kg"}}},{"fullUrl":"Observation/8ff6b93b-b153-441e-93f9-67b2f98ca9f7","resource":{"resourceType":"Observation","id":"8ff6b93b-b153-441e-93f9-67b2f98ca9f7","meta":{"profile":["http://hl7.org/fhir/us/core/StructureDefinition/us-core-body-temperature"]},"status":"final","category":[{"coding":[{"system":"http://terminology.hl7.org/CodeSystem/observation-category","code":"vital-signs","display":"Vital Signs"}]}],"code":{"coding":[{"system":"http://loinc.org","code":"8310-5"}]},"subject":{"reference":"Patient/ac62147a-8797-4d7b-bd05-8bb2cd55167c"},"effectiveDateTime":"2022-04-15T00:00:00+00:00","valueQuantity":{"value":75.32,"unit":"Degrees Fahrenheit","system":"http://unitsofmeasure.org","code":"[degF]"}}},{"fullUrl":"Observation/9bdb7a80-e663-487f-9dad-736b3596f624","resource":{"resourceType":"Observation","id":"9bdb7a80-e663-487f-9dad-736b3596f624","meta":{"profile":["http://hl7.org/fhir/us/core/StructureDefinition/us-core-body-temperature"]},"status":"final","category":[{"coding":[{"system":"http://terminology.hl7.org/CodeSystem/observation-category","code":"vital-signs","display":"Vital Signs"}]}],"code":{"coding":[{"system":"http://loinc.org","code":"8310-5"}]},"subject":{"reference":"Patient/ac62147a-8797-4d7b-bd05-8bb2cd55167c"},"effectiveDateTime":"2022-10-18T00:00:00+00:00","valueQuantity":{"value":127.98,"unit":"Degrees Fahrenheit","system":"http://unitsofmeasure.org","code":"[degF]"}}},{"fullUrl":"Observation/f326d978-3c4e-409c-bbe3-4869ecbf0fc7","resource":{"resourceType":"Observation","id":"f326d978-3c4e-409c-bbe3-4869ecbf0fc7","meta":{"profile":["http://hl7.org/fhir/us/core/StructureDefinition/us-core-heart-rate"]},"status":"final","category":[{"coding":[{"system":"http://terminology.hl7.org/CodeSystem/observation-category","code":"vital-signs","display":"Vital Signs"}]}],"code":{"coding":[{"system":"http://loinc.org","code":"8867-4"}]},"subject":{"reference":"Patient/ac62147a-8797-4d7b-bd05-8bb2cd55167c"},"effectiveDateTime":"2022-03-29T00:00:00+00:00","valueQuantity":{"value":97.9,"unit":"Per Minute","system":"http://unitsofmeasure.org","code":"/min"}}},{"fullUrl":"Patient/717d0d75-85f7-4db3-9a73-ba0178a61864","resource":{"resourceType":"Patient","id":"717d0d75-85f7-4db3-9a73-ba0178a61864","meta":{"profile":["http://hl7.org/fhir/us/core/StructureDefinition/us-core-patient"]},"extension":[{"extension":[{"url":"ombCategory","valueCoding":{"system":"http://terminology.hl7.org/CodeSystem/v3-NullFlavor","code":"UNK","display":"unknown"}},{"url":"text","valueString":"unknown"}],"url":"http://hl7.org/fhir/us/core/StructureDefinition/us-core-race"},{"extension":[{"url":"ombCategory","valueCoding":{"system":"urn:oid:2.16.840.1.113883.6.238","code":"2135-2","display":"Hispanic or Latino"}},{"url":"text","valueString":"Hispanic or Latino"}],"url":"http://hl7.org/fhir/us/core/StructureDefinition/us-core-ethnicity"}],"identifier":[{"type":{"coding":[{"system":"http://terminology.hl7.org/CodeSystem/v2-0203","code":"MR"}]},"system":"urn:fhirgen:mrn","value":"556-56-3403"}],"name":[{"use":"official","family":"Gibson","given":["David"]},{"use":"maiden","family":"Vance"}],"telecom":[{"system":"phone","value":"568-110-0856x033","use":"work"},{"system":"email","value":"angelapeterson@yahoo.com","use":"work"}],"gender":"male","birthDate":"1975-07-13","address":[{"use":"home","line":["4887 Kevin Harbor"],"city":"Michaelmouth","state":"CA","postalCode":"17825"},{"use":"old","line":["2661 Watson Flats Apt. 501"],"city":"Navarromouth","state":"NE","postalCode":"09510"}]}},{"fullUrl":"Observation/899a851b-d3df-4999-81dc-2b53ed6ec5c1","resource":{"resourceType":"Observation","id":"899a851b-d3df-4999-81dc-2b53ed6ec5c1","meta":{"profile":["http://hl7.org/fhir/us/core/StructureDefinition/us-core-observation-lab"]},"status":"final","category":[{"coding":[{"system":"http://terminology.hl7.org/CodeSystem/observation-category","code":"laboratory","display":"Laboratory"}]}],"code":{"coding":[{"system":"http://loinc.org","code":"26009-1"}]},"subject":{"reference":"Patient/717d0d75-85f7-4db3-9a73-ba0178a61864"},"effectiveDateTime":"2022-03-06T00:00:00+00:00","valueRatio":{"numerator":{"value":1},"denominator":{"value":4}}}},{"fullUrl":"Observation/a7d317bc-9ef9-4f65-aaf1-1e1e2aafa89c","resource":{"resourceType":"Observation","id":"a7d317bc-9ef9-4f65-aaf1-1e1e2aafa89c","meta":{"profile":["http://hl7.org/fhir/us/core/StructureDefinition/us-core-observation-lab"]},"status":"final","category":[{"coding":[{"system":"http://terminology.hl7.org/CodeSystem/observation-category","code":"laboratory","display":"Laboratory"}]}],"code":{"coding":[{"system":"http://loinc.org","code":"11084-1"}]},"subject":{"reference":"Patient/717d0d75-85f7-4db3-9a73-ba0178a61864"},"effectiveDateTime":"2022-07-07T00:00:00+00:00","valueRatio":{"numerator":{"value":1},"denominator":{"value":64}}}},{"fullUrl":"Observation/a07ee4cf-8724-4acf-803b-082eaae49ba4","resource":{"resourceType":"Observation","id":"a07ee4cf-8724-4acf-803b-082eaae49ba4","meta":{"profile":["http://hl7.org/fhir/us/core/StructureDefinition/us-core-observation-lab"]},"status":"final","category":[{"coding":[{"system":"http://terminology.hl7.org/CodeSystem/observation-category","code":"laboratory","display":"Laboratory"}]}],"code":{"coding":[{"system":"http://loinc.org","code":"47235-7"}]},"subject":{"reference":"Patient/717d0d75-85f7-4db3-9a73-ba0178a61864"},"effectiveDateTime":"2022-04-05T00:00:00+00:00","valueRatio":{"numerator":{"value":1},"denominator":{"value":4}}}},{"fullUrl":"Condition/8fbb5255-7ce9-417b-a19d-0c2ba32a29fe","resource":{"resourceType":"Condition","id":"8fbb5255-7ce9-417b-a19d-0c2ba32a29fe","meta":{"profile":["http://hl7.org/fhir/us/core/StructureDefinition/us-core-condition"]},"clinicalStatus":{"coding":[{"system":"http://terminology.hl7.org/CodeSystem/condition-clinical","code":"active","display":"Active"}]},"category":[{"coding":[{"system":"http://terminology.hl7.org/CodeSystem/condition-category","code":"problem-list-item"}]}],"code":{"coding":[{"system":"http://snomed.info/sct","code":"736686006"}]},"subject":{"reference":"Patient/717d0d75-85f7-4db3-9a73-ba0178a61864"},"onsetDateTime":"2022-12-08T00:00:00+00:00"}},{"fullUrl":"Condition/30165cf3-0d9d-4446-ae7e-4186707acac1","resource":{"resourceType":"Condition","id":"30165cf3-0d9d-4446-ae7e-4186707acac1","meta":{"profile":["http://hl7.org/fhir/us/core/StructureDefinition/us-core-condition"]},"clinicalStatus":{"coding":[{"system":"http://terminology.hl7.org/CodeSystem/condition-clinical","code":"active","display":"Active"}]},"category":[{"coding":[{"system":"http://terminology.hl7.org/CodeSystem/condition-category","code":"problem-list-item"}]}],"code":{"coding":[{"system":"http://snomed.info/sct","code":"91554004"}]},"subject":{"reference":"Patient/717d0d75-85f7-4db3-9a73-ba0178a61864"},"onsetDateTime":"2022-11-17T00:00:00+00:00"}},{"fullUrl":"Condition/bf23243f-ef93-4358-a1cf-1a84d337ce72","resource":{"resourceType":"Condition","id":"bf23243f-ef93-4358-a1cf-1a84d337ce72","meta":{"profile":["http://hl7.org/fhir/us/core/StructureDefinition/us-core-condition"]},"clinicalStatus":{"coding":[{"system":"http://terminology.hl7.org/CodeSystem/condition-clinical","code":"active","display":"Active"}]},"category":[{"coding":[{"system":"http://terminology.hl7.org/CodeSystem/condition-category","code":"problem-list-item"}]}],"code":{"coding":[{"system":"http://snomed.info/sct","code":"44882003"}]},"subject":{"reference":"Patient/717d0d75-85f7-4db3-9a73-ba0178a61864"},"onsetDateTime":"2022-07-16T00:00:00+00:00"}},{"fullUrl":"Condition/25ed2b5e-f935-4cd3-b40d-383a35ebc2c7","resource":{"resourceType":"Condition","id":"25ed2b5e-f935-4cd3-b40d-383a35ebc2c7","meta":{"profile":["http://hl7.org/fhir/us/core/StructureDefinition/us-core-condition"]},"clinicalStatus":{"coding":[{"system":"http://terminology.hl7.org/CodeSystem/condition-clinical","code":"active","display":"Active"}]},"category":[{"coding":[{"system":"http://terminology.hl7.org/CodeSystem/condition-category","code":"problem-list-item"}]}],"code":{"coding":[{"system":"http://snomed.info/sct","code":"418290006"}]},"subject":{"reference":"Patient/717d0d75-85f7-4db3-9a73-ba0178a61864"},"onsetDateTime":"2022-12-01T00:00:00+00:00"}},{"fullUrl":"Condition/8e4770bc-8c36-408d-8643-feeae9915767","resource":{"resourceType":"Condition","id":"8e4770bc-8c36-408d-8643-feeae9915767","meta":{"profile":["http://hl7.org/fhir/us/core/StructureDefinition/us-core-condition"]},"clinicalStatus":{"coding":[{"system":"http://terminology.hl7.org/CodeSystem/condition-clinical","code":"active","display":"Active"}]},"category":[{"coding":[{"system":"http://terminology.hl7.org/CodeSystem/condition-category","code":"problem-list-item"}]}],"code":{"coding":[{"system":"http://snomed.info/sct","code":"91554004"}]},"subject":{"reference":"Patient/717d0d75-85f7-4db3-9a73-ba0178a61864"},"onsetDateTime":"2022-09-11T00:00:00+00:00"}},{"fullUrl":"Condition/901cae6c-759f-475e-abdd-19dd1166679b","resource":{"resourceType":"Condition","id":"901cae6c-759f-475e-abdd-19dd1166679b","meta":{"profile":["http://hl7.org/fhir/us/core/StructureDefinition/us-core-condition"]},"clinicalStatus":{"coding":[{"system":"http://terminology.hl7.org/CodeSystem/condition-clinical","code":"active","display":"Active"}]},"category":[{"coding":[{"system":"http://terminology.hl7.org/CodeSystem/condition-category","code":"problem-list-item"}]}],"code":{"coding":[{"system":"http://snomed.info/sct","code":"418290006"}]},"subject":{"reference":"Patient/717d0d75-85f7-4db3-9a73-ba0178a61864"},"onsetDateTime":"2022-09-28T00:00:00+00:00"}},{"fullUrl":"Condition/dfd36411-ecc4-45b3-8c5f-8f3e79135623","resource":{"resourceType":"Condition","id":"dfd36411-ecc4-45b3-8c5f-8f3e79135623","meta":{"profile":["http://hl7.org/fhir/us/core/StructureDefinition/us-core-condition"]},"clinicalStatus":{"coding":[{"system":"http://terminology.hl7.org/CodeSystem/condition-clinical","code":"active","display":"Active"}]},"category":[{"coding":[{"system":"http://terminology.hl7.org/CodeSystem/condition-category","code":"problem-list-item"}]}],"code":{"coding":[{"system":"http://snomed.info/sct","code":"91554004"}]},"subject":{"reference":"Patient/717d0d75-85f7-4db3-9a73-ba0178a61864"},"onsetDateTime":"2022-11-12T00:00:00+00:00"}},{"fullUrl":"Observation/a7902d02-5629-47a3-9c69-450a44929371","resource":{"resourceType":"Observation","id":"a7902d02-5629-47a3-9c69-450a44929371","meta":{"profile":["http://hl7.org/fhir/us/core/StructureDefinition/us-core-observation-lab"]},"status":"final","category":[{"coding":[{"system":"http://terminology.hl7.org/CodeSystem/observation-category","code":"laboratory","display":"Laboratory"}]}],"code":{"coding":[{"system":"http://loinc.org","code":"26464-8"}]},"subject":{"reference":"Patient/717d0d75-85f7-4db3-9a73-ba0178a61864"},"effectiveDateTime":"2022-08-17T00:00:00+00:00","valueQuantity":{"value":7.9}}},{"fullUrl":"Observation/8ce40881-b9cb-4701-8353-51bd26474b39","resource":{"resourceType":"Observation","id":"8ce40881-b9cb-4701-8353-51bd26474b39","meta":{"profile":["http://hl7.org/fhir/us/core/StructureDefinition/us-core-observation-lab"]},"status":"final","category":[{"coding":[{"system":"http://terminology.hl7.org/CodeSystem/observation-category","code":"laboratory","display":"Laboratory"}]}],"code":{"coding":[{"system":"http://loinc.org","code":"26464-8"}]},"subject":{"reference":"Patient/717d0d75-85f7-4db3-9a73-ba0178a61864"},"effectiveDateTime":"2022-03-31T00:00:00+00:00","valueQuantity":{"value":8.4}}},{"fullUrl":"Observation/28951784-2627-4d89-a2f6-90dcda06dde1","resource":{"resourceType":"Observation","id":"28951784-2627-4d89-a2f6-90dcda06dde1","meta":{"profile":["http://hl7.org/fhir/us/core/StructureDefinition/us-core-bmi"]},"status":"final","category":[{"coding":[{"system":"http://terminology.hl7.org/CodeSystem/observation-category","code":"vital-signs","display":"Vital Signs"}]}],"code":{"coding":[{"system":"http://loinc.org","code":"39156-5"}]},"subject":{"reference":"Patient/717d0d75-85f7-4db3-9a73-ba0178a61864"},"effectiveDateTime":"2022-04-01T00:00:00+00:00","valueQuantity":{"value":23.99,"unit":"kg/m2","system":"http://unitsofmeasure.org","code":"kg/m2"}}},{"fullUrl":"Observation/04010a82-9ced-4407-8dd9-cb47fc1a5830","resource":{"resourceType":"Observation","id":"04010a82-9ced-4407-8dd9-cb47fc1a5830","meta":{"profile":["http://hl7.org/fhir/us/core/StructureDefinition/us-core-head-circumference"]},"status":"final","category":[{"coding":[{"system":"http://terminology.hl7.org/CodeSystem/observation-category","code":"vital-signs","display":"Vital Signs"}]}],"code":{"coding":[{"system":"http://loinc.org","code":"9843-4"}]},"subject":{"reference":"Patient/717d0d75-85f7-4db3-9a73-ba0178a61864"},"effectiveDateTime":"2022-11-17T00:00:00+00:00","valueQuantity":{"value":10,"unit":"Inch","system":"http://unitsofmeasure.org","code":"[in_i]"}}},{"fullUrl":"Observation/5aa132ac-6f2e-4621-8476-bfca921e7130","resource":{"resourceType":"Observation","id":"5aa132ac-6f2e-4621-8476-bfca921e7130","meta":{"profile":["http://hl7.org/fhir/us/core/StructureDefinition/us-core-body-height"]},"status":"final","category":[{"coding":[{"system":"http://terminology.hl7.org/CodeSystem/observation-category","code":"vital-signs","display":"Vital Signs"}]}],"code":{"coding":[{"system":"http://loinc.org","code":"8302-2"}]},"subject":{"reference":"Patient/717d0d75-85f7-4db3-9a73-ba0178a61864"},"effectiveDateTime":"2022-12-02T00:00:00+00:00","valueQuantity":{"value":61.6,"unit":"Inch","system":"http://unitsofmeasure.org","code":"[in_i]"}}},{"fullUrl":"Observation/ee0a9945-4907-4755-895b-b18aa635bc5c","resource":{"resourceType":"Observation","id":"ee0a9945-4907-4755-895b-b18aa635bc5c","meta":{"profile":["http://hl7.org/fhir/us/core/StructureDefinition/us-core-body-weight"]},"status":"final","category":[{"coding":[{"system":"http://terminology.hl7.org/CodeSystem/observation-category","code":"vital-signs","display":"Vital Signs"}]}],"code":{"coding":[{"system":"http://loinc.org","code":"29463-7"}]},"subject":{"reference":"Patient/717d0d75-85f7-4db3-9a73-ba0178a61864"},"effectiveDateTime":"2022-02-25T00:00:00+00:00","valueQuantity":{"value":121.35,"unit":"kilogram","system":"http://unitsofmeasure.org","code":"kg"}}},{"fullUrl":"Observation/96162056-adcf-4c64-8207-b5239f2e0938","resource":{"resourceType":"Observation","id":"96162056-adcf-4c64-8207-b5239f2e0938","meta":{"profile":["http://hl7.org/fhir/us/core/StructureDefinition/us-core-body-temperature"]},"status":"final","category":[{"coding":[{"system":"http://terminology.hl7.org/CodeSystem/observation-category","code":"vital-signs","display":"Vital Signs"}]}],"code":{"coding":[{"system":"http://loinc.org","code":"8310-5"}]},"subject":{"reference":"Patient/717d0d75-85f7-4db3-9a73-ba0178a61864"},"effectiveDateTime":"2022-03-26T00:00:00+00:00","valueQuantity":{"value":64.1,"unit":"Degrees Fahrenheit","system":"http://unitsofmeasure.org","code":"[degF]"}}},{"fullUrl":"Observation/3b706f05-20c4-426d-9c25-ab5dba19167b","resource":{"resourceType":"Observation","id":"3b706f05-20c4-426d-9c25-ab5dba19167b","meta":{"profile":["http://hl7.org/fhir/us/core/StructureDefinition/us-core-heart-rate"]},"status":"final","category":[{"coding":[{"system":"http://terminology.hl7.org/CodeSystem/observation-category","code":"vital-signs","display":"Vital Signs"}]}],"code":{"coding":[{"system":"http://loinc.org","code":"8867-4"}]},"subject":{"reference":"Patient/717d0d75-85f7-4db3-9a73-ba0178a61864"},"effectiveDateTime":"2022-04-04T00:00:00+00:00","valueQuantity":{"value":96.9,"unit":"Per Minute","system":"http://unitsofmeasure.org","code":"/min"}}},{"fullUrl":"Observation/c6be2aa1-9fd8-41b6-aabb-255b30b080ab","resource":{"resourceType":"Observation","id":"c6be2aa1-9fd8-41b6-aabb-255b30b080ab","meta":{"profile":["http://hl7.org/fhir/us/core/StructureDefinition/us-core-heart-rate"]},"status":"final","category":[{"coding":[{"system":"http://terminology.hl7.org/CodeSystem/observation-category","code":"vital-signs","display":"Vital Signs"}]}],"code":{"coding":[{"system":"http://loinc.org","code":"8867-4"}]},"subject":{"reference":"Patient/717d0d75-85f7-4db3-9a73-ba0178a61864"},"effectiveDateTime":"2022-02-27T00:00:00+00:00","valueQuantity":{"value":96.7,"unit":"Per Minute","system":"http://unitsofmeasure.org","code":"/min"}}},{"fullUrl":"Patient/feedfa79-f15e-450a-a5a3-6203f29ff10e","resource":{"resourceType":"Patient","id":"feedfa79-f15e-450a-a5a3-6203f29ff10e","meta":{"profile":["http://hl7.org/fhir/us/core/StructureDefinition/us-core-patient"]},"extension":[{"extension":[{"url":"ombCategory","valueCoding":{"system":"urn:oid:2.16.840.1.113883.6.238","code":"2028-9","display":"Asian"}},{"url":"text","valueString":"Asian"}],"url":"http://hl7.org/fhir/us/core/StructureDefinition/us-core-race"},{"extension":[{"url":"ombCategory","valueCoding":{"system":"urn:oid:2.16.840.1.113883.6.238","code":"2186-5","display":"Non Hispanic or Latino"}},{"url":"text","valueString":"Non Hispanic or Latino"}],"url":"http://hl7.org/fhir/us/core/StructureDefinition/us-core-ethnicity"}],"identifier":[{"type":{"coding":[{"system":"http://terminology.hl7.org/CodeSystem/v2-0203","code":"MR"}]},"system":"urn:fhirgen:mrn","value":"531-20-6272"}],"name":[{"use":"official","family":"Greene","given":["Sarah"]},{"use":"maiden","family":"Clark"}],"telecom":[{"system":"phone","value":"(228)326-0663x43920","use":"mobile"},{"system":"email","value":"ikeith@hotmail.com","use":"work"}],"gender":"female","birthDate":"1975-04-04","address":[{"use":"home","line":["13036 Hector Parks Apt. 933"],"city":"New Kristina","state":"SD","postalCode":"82373"},{"use":"old","line":["217 Robert Freeway Suite 320"],"city":"East Michelle","state":"LA","postalCode":"55049"}]}},{"fullUrl":"Observation/00646f75-d875-4b2f-9837-87d535b3bca1","resource":{"resourceType":"Observation","id":"00646f75-d875-4b2f-9837-87d535b3bca1","meta":{"profile":["http://hl7.org/fhir/us/core/StructureDefinition/us-core-observation-lab"]},"status":"final","category":[{"coding":[{"system":"http://terminology.hl7.org/CodeSystem/observation-category","code":"laboratory","display":"Laboratory"}]}],"code":{"coding":[{"system":"http://loinc.org","code":"47476-7"}]},"subject":{"reference":"Patient/feedfa79-f15e-450a-a5a3-6203f29ff10e"},"effectiveDateTime":"2022-08-19T00:00:00+00:00","valueRatio":{"numerator":{"value":1},"denominator":{"value":32}}}},{"fullUrl":"Observation/34bfa359-450a-491f-8c78-b1635e9a45f9","resource":{"resourceType":"Observation","id":"34bfa359-450a-491f-8c78-b1635e9a45f9","meta":{"profile":["http://hl7.org/fhir/us/core/StructureDefinition/us-core-observation-lab"]},"status":"final","category":[{"coding":[{"system":"http://terminology.hl7.org/CodeSystem/observation-category","code":"laboratory","display":"Laboratory"}]}],"code":{"coding":[{"system":"http://loinc.org","code":"5394-2"}]},"subject":{"reference":"Patient/feedfa79-f15e-450a-a5a3-6203f29ff10e"},"effectiveDateTime":"2022-04-03T00:00:00+00:00","valueRatio":{"numerator":{"value":1},"denominator":{"value":32}}}},{"fullUrl":"Condition/b2b2410c-3c10-4641-8da1-caf0e4055206","resource":{"resourceType":"Condition","id":"b2b2410c-3c10-4641-8da1-caf0e4055206","meta":{"profile":["http://hl7.org/fhir/us/core/StructureDefinition/us-core-condition"]},"clinicalStatus":{"coding":[{"system":"http://terminology.hl7.org/CodeSystem/condition-clinical","code":"active","display":"Active"}]},"category":[{"coding":[{"system":"http://terminology.hl7.org/CodeSystem/condition-category","code":"problem-list-item"}]}],"code":{"coding":[{"system":"http://snomed.info/sct","code":"44882003"}]},"subject":{"reference":"Patient/feedfa79-f15e-450a-a5a3-6203f29ff10e"},"onsetDateTime":"2022-03-01T00:00:00+00:00"}},{"fullUrl":"Condition/17782522-9daa-4d15-86e1-bd560e0ae0b9","resource":{"resourceType":"Condition","id":"17782522-9daa-4d15-86e1-bd560e0ae0b9","meta":{"profile":["http://hl7.org/fhir/us/core/StructureDefinition/us-core-condition"]},"clinicalStatus":{"coding":[{"system":"http://terminology.hl7.org/CodeSystem/condition-clinical","code":"active","display":"Active"}]},"category":[{"coding":[{"system":"http://terminology.hl7.org/CodeSystem/condition-category","code":"problem-list-item"}]}],"code":{"coding":[{"system":"http://snomed.info/sct","code":"736686006"}]},"subject":{"reference":"Patient/feedfa79-f15e-450a-a5a3-6203f29ff10e"},"onsetDateTime":"2022-09-13T00:00:00+00:00"}},{"fullUrl":"Condition/d80e94ff-2bd7-493e-be2b-d915db2b6dfd","resource":{"resourceType":"Condition","id":"d80e94ff-2bd7-493e-be2b-d915db2b6dfd","meta":{"profile":["http://hl7.org/fhir/us/core/StructureDefinition/us-core-condition"]},"clinicalStatus":{"coding":[{"system":"http://terminology.hl7.org/CodeSystem/condition-clinical","code":"active","display":"Active"}]},"category":[{"coding":[{"system":"http://terminology.hl7.org/CodeSystem/condition-category","code":"problem-list-item"}]}],"code":{"coding":[{"system":"http://snomed.info/sct","code":"44882003"}]},"subject":{"reference":"Patient/feedfa79-f15e-450a-a5a3-6203f29ff10e"},"onsetDateTime":"2022-10-25T00:00:00+00:00"}},{"fullUrl":"Condition/1722f759-9935-48fe-a371-7e1948d2ac61","resource":{"resourceType":"Condition","id":"1722f759-9935-48fe-a371-7e1948d2ac61","meta":{"profile":["http://hl7.org/fhir/us/core/StructureDefinition/us-core-condition"]},"clinicalStatus":{"coding":[{"system":"http://terminology.hl7.org/CodeSystem/condition-clinical","code":"active","display":"Active"}]},"category":[{"coding":[{"system":"http://terminology.hl7.org/CodeSystem/condition-category","code":"problem-list-item"}]}],"code":{"coding":[{"system":"http://snomed.info/sct","code":"44882003"}]},"subject":{"reference":"Patient/feedfa79-f15e-450a-a5a3-6203f29ff10e"},"onsetDateTime":"2022-05-14T00:00:00+00:00"}},{"fullUrl":"Observation/a184aa25-bd01-465e-8651-0ced85f71e83","resource":{"resourceType":"Observation","id":"a184aa25-bd01-465e-8651-0ced85f71e83","meta":{"profile":["http://hl7.org/fhir/us/core/StructureDefinition/us-core-observation-lab"]},"status":"final","category":[{"coding":[{"system":"http://terminology.hl7.org/CodeSystem/observation-category","code":"laboratory","display":"Laboratory"}]}],"code":{"coding":[{"system":"http://loinc.org","code":"804-5"}]},"subject":{"reference":"Patient/feedfa79-f15e-450a-a5a3-6203f29ff10e"},"effectiveDateTime":"2022-08-18T00:00:00+00:00","valueQuantity":{"value":8.5}}},{"fullUrl":"Observation/0817782a-dab1-4962-9abe-708977adee97","resource":{"resourceType":"Observation","id":"0817782a-dab1-4962-9abe-708977adee97","meta":{"profile":["http://hl7.org/fhir/us/core/StructureDefinition/us-core-observation-lab"]},"status":"final","category":[{"coding":[{"system":"http://terminology.hl7.org/CodeSystem/observation-category","code":"laboratory","display":"Laboratory"}]}],"code":{"coding":[{"system":"http://loinc.org","code":"26464-8"}]},"subject":{"reference":"Patient/feedfa79-f15e-450a-a5a3-6203f29ff10e"},"effectiveDateTime":"2022-09-19T00:00:00+00:00","valueQuantity":{"value":9.8}}},{"fullUrl":"Observation/b3209d3f-4390-4443-b7f4-c7536b775421","resource":{"resourceType":"Observation","id":"b3209d3f-4390-4443-b7f4-c7536b775421","meta":{"profile":["http://hl7.org/fhir/us/core/StructureDefinition/us-core-bmi"]},"status":"final","category":[{"coding":[{"system":"http://terminology.hl7.org/CodeSystem/observation-category","code":"vital-signs","display":"Vital Signs"}]}],"code":{"coding":[{"system":"http://loinc.org","code":"39156-5"}]},"subject":{"reference":"Patient/feedfa79-f15e-450a-a5a3-6203f29ff10e"},"effectiveDateTime":"2022-05-21T00:00:00+00:00","valueQuantity":{"value":22.21,"unit":"kg/m2","system":"http://unitsofmeasure.org","code":"kg/m2"}}},{"fullUrl":"Observation/9f9def93-d19a-4b8b-b3ae-852e2fc1ff14","resource":{"resourceType":"Observation","id":"9f9def93-d19a-4b8b-b3ae-852e2fc1ff14","meta":{"profile":["http://hl7.org/fhir/us/core/StructureDefinition/us-core-bmi"]},"status":"final","category":[{"coding":[{"system":"http://terminology.hl7.org/CodeSystem/observation-category","code":"vital-signs","display":"Vital Signs"}]}],"code":{"coding":[{"system":"http://loinc.org","code":"39156-5"}]},"subject":{"reference":"Patient/feedfa79-f15e-450a-a5a3-6203f29ff10e"},"effectiveDateTime":"2022-10-13T00:00:00+00:00","valueQuantity":{"value":12.66,"unit":"kg/m2","system":"http://unitsofmeasure.org","code":"kg/m2"}}},{"fullUrl":"Observation/193baf0a-734e-4999-b989-3b98c74b368d","resource":{"resourceType":"Observation","id":"193baf0a-734e-4999-b989-3b98c74b368d","meta":{"profile":["http://hl7.org/fhir/us/core/StructureDefinition/us-core-head-circumference"]},"status":"final","category":[{"coding":[{"system":"http://terminology.hl7.org/CodeSystem/observation-category","code":"vital-signs","display":"Vital Signs"}]}],"code":{"coding":[{"system":"http://loinc.org","code":"9843-4"}]},"subject":{"reference":"Patient/feedfa79-f15e-450a-a5a3-6203f29ff10e"},"effectiveDateTime":"2022-05-30T00:00:00+00:00","valueQuantity":{"value":8.3,"unit":"Inch","system":"http://unitsofmeasure.org","code":"[in_i]"}}},{"fullUrl":"Observation/705c6cf1-0a63-4167-bf36-1501859490cf","resource":{"resourceType":"Observation","id":"705c6cf1-0a63-4167-bf36-1501859490cf","meta":{"profile":["http://hl7.org/fhir/us/core/StructureDefinition/us-core-body-height"]},"status":"final","category":[{"coding":[{"system":"http://terminology.hl7.org/CodeSystem/observation-category","code":"vital-signs","display":"Vital Signs"}]}],"code":{"coding":[{"system":"http://loinc.org","code":"8302-2"}]},"subject":{"reference":"Patient/feedfa79-f15e-450a-a5a3-6203f29ff10e"},"effectiveDateTime":"2022-01-29T00:00:00+00:00","valueQuantity":{"value":72.4,"unit":"Inch","system":"http://unitsofmeasure.org","code":"[in_i]"}}},{"fullUrl":"Observation/f65d594f-fd5d-423c-9a02-613d54882ef4","resource":{"resourceType":"Observation","id":"f65d594f-fd5d-423c-9a02-613d54882ef4","meta":{"profile":["http://hl7.org/fhir/us/core/StructureDefinition/us-core-body-weight"]},"status":"final","category":[{"coding":[{"system":"http://terminology.hl7.org/CodeSystem/observation-category","code":"vital-signs","display":"Vital Signs"}]}],"code":{"coding":[{"system":"http://loinc.org","code":"29463-7"}]},"subject":{"reference":"Patient/feedfa79-f15e-450a-a5a3-6203f29ff10e"},"effectiveDateTime":"2022-08-28T00:00:00+00:00","valueQuantity":{"value":146.42,"unit":"kilogram","system":"http://unitsofmeasure.org","code":"kg"}}},{"fullUrl":"Observation/0b7ee71a-d2e9-4d8b-82a8-97fad02a10f7","resource":{"resourceType":"Observation","id":"0b7ee71a-d2e9-4d8b-82a8-97fad02a10f7","meta":{"profile":["http://hl7.org/fhir/us/core/StructureDefinition/us-core-body-temperature"]},"status":"final","category":[{"coding":[{"system":"http://terminology.hl7.org/CodeSystem/observation-category","code":"vital-signs","display":"Vital Signs"}]}],"code":{"coding":[{"system":"http://loinc.org","code":"8310-5"}]},"subject":{"reference":"Patient/feedfa79-f15e-450a-a5a3-6203f29ff10e"},"effectiveDateTime":"2022-08-23T00:00:00+00:00","valueQuantity":{"value":31.51,"unit":"Degrees Fahrenheit","system":"http://unitsofmeasure.org","code":"[degF]"}}},{"fullUrl":"Observation/10973559-336e-497e-bd6a-085d28d00863","resource":{"resourceType":"Observation","id":"10973559-336e-497e-bd6a-085d28d00863","meta":{"profile":["http://hl7.org/fhir/us/core/StructureDefinition/us-core-body-temperature"]},"status":"final","category":[{"coding":[{"system":"http://terminology.hl7.org/CodeSystem/observation-category","code":"vital-signs","display":"Vital Signs"}]}],"code":{"coding":[{"system":"http://loinc.org","code":"8310-5"}]},"subject":{"reference":"Patient/feedfa79-f15e-450a-a5a3-6203f29ff10e"},"effectiveDateTime":"2022-09-26T00:00:00+00:00","valueQuantity":{"value":133.01,"unit":"Degrees Fahrenheit","system":"http://unitsofmeasure.org","code":"[degF]"}}},{"fullUrl":"Observation/9c43f26f-db34-4d3c-8419-d2cbdb9d6297","resource":{"resourceType":"Observation","id":"9c43f26f-db34-4d3c-8419-d2cbdb9d6297","meta":{"profile":["http://hl7.org/fhir/us/core/StructureDefinition/us-core-heart-rate"]},"status":"final","category":[{"coding":[{"system":"http://terminology.hl7.org/CodeSystem/observation-category","code":"vital-signs","display":"Vital Signs"}]}],"code":{"coding":[{"system":"http://loinc.org","code":"8867-4"}]},"subject":{"reference":"Patient/feedfa79-f15e-450a-a5a3-6203f29ff10e"},"effectiveDateTime":"2022-05-01T00:00:00+00:00","valueQuantity":{"value":96.3,"unit":"Per Minute","system":"http://unitsofmeasure.org","code":"/min"}}},{"fullUrl":"Patient/d96d6fb2-7137-488d-847a-9887a19ef7aa","resource":{"resourceType":"Patient","id":"d96d6fb2-7137-488d-847a-9887a19ef7aa","meta":{"profile":["http://hl7.org/fhir/us/core/StructureDefinition/us-core-patient"]},"extension":[{"extension":[{"url":"ombCategory","valueCoding":{"system":"urn:oid:2.16.840.1.113883.6.238","code":"1002-5","display":"American Indian or Alaska Native"}},{"url":"text","valueString":"American Indian or Alaska Native"}],"url":"http://hl7.org/fhir/us/core/StructureDefinition/us-core-race"},{"extension":[{"url":"ombCategory","valueCoding":{"system":"urn:oid:2.16.840.1.113883.6.238","code":"2186-5","display":"Non Hispanic or Latino"}},{"url":"text","valueString":"Non Hispanic or Latino"}],"url":"http://hl7.org/fhir/us/core/StructureDefinition/us-core-ethnicity"}],"identifier":[{"type":{"coding":[{"system":"http://terminology.hl7.org/CodeSystem/v2-0203","code":"MR"}]},"system":"urn:fhirgen:mrn","value":"088-73-3673"}],"name":[{"use":"official","family":"Johnson","given":["Rachel"]},{"use":"maiden","family":"Thomas"}],"telecom":[{"system":"phone","value":"(322)787-5839x4983","use":"work"},{"system":"email","value":"vmorris@hotmail.com","use":"mobile"}],"gender":"female","birthDate":"1953-12-03","address":[{"use":"home","line":["8333 Amanda Heights Suite 890"],"city":"East Joannefort","state":"DC","postalCode":"68324"},{"use":"old","line":["8509 Edwards Mission Suite 632"],"city":"Bakerbury","state":"MI","postalCode":"87494"}]}},{"fullUrl":"Observation/5479b12c-6c7d-49fe-80d3-a43743aeb5d3","resource":{"resourceType":"Observation","id":"5479b12c-6c7d-49fe-80d3-a43743aeb5d3","meta":{"profile":["http://hl7.org/fhir/us/core/StructureDefinition/us-core-observation-lab"]},"status":"final","category":[{"coding":[{"system":"http://terminology.hl7.org/CodeSystem/observation-category","code":"laboratory","display":"Laboratory"}]}],"code":{"coding":[{"system":"http://loinc.org","code":"87925-4"}]},"subject":{"reference":"Patient/d96d6fb2-7137-488d-847a-9887a19ef7aa"},"effectiveDateTime":"2022-03-27T00:00:00+00:00","valueRatio":{"numerator":{"value":1},"denominator":{"value":4}}}},{"fullUrl":"Observation/61637035-05b0-4aa0-8da9-60c9d09e76d5","resource":{"resourceType":"Observation","id":"61637035-05b0-4aa0-8da9-60c9d09e76d5","meta":{"profile":["http://hl7.org/fhir/us/core/StructureDefinition/us-core-observation-lab"]},"status":"final","category":[{"coding":[{"system":"http://terminology.hl7.org/CodeSystem/observation-category","code":"laboratory","display":"Laboratory"}]}],"code":{"coding":[{"system":"http://loinc.org","code":"31146-4"}]},"subject":{"reference":"Patient/d96d6fb2-7137-488d-847a-9887a19ef7aa"},"effectiveDateTime":"2022-07-04T00:00:00+00:00","valueRatio":{"numerator":{"value":1},"denominator":{"value":4}}}},{"fullUrl":"Condition/874e226d-ef0b-4db1-a23c-e7842544eae2","resource":{"resourceType":"Condition","id":"874e226d-ef0b-4db1-a23c-e7842544eae2","meta":{"profile":["http://hl7.org/fhir/us/core/StructureDefinition/us-core-condition"]},"clinicalStatus":{"coding":[{"system":"http://terminology.hl7.org/CodeSystem/condition-clinical","code":"active","display":"Active"}]},"category":[{"coding":[{"system":"http://terminology.hl7.org/CodeSystem/condition-category","code":"problem-list-item"}]}],"code":{"coding":[{"system":"http://snomed.info/sct","code":"709977002"}]},"subject":{"reference":"Patient/d96d6fb2-7137-488d-847a-9887a19ef7aa"},"onsetDateTime":"2022-05-12T00:00:00+00:00"}},{"fullUrl":"Condition/84555a6e-f85b-496a-8269-d015a9912b24","resource":{"resourceType":"Condition","id":"84555a6e-f85b-496a-8269-d015a9912b24","meta":{"profile":["http://hl7.org/fhir/us/core/StructureDefinition/us-core-condition"]},"clinicalStatus":{"coding":[{"system":"http://terminology.hl7.org/CodeSystem/condition-clinical","code":"active","display":"Active"}]},"category":[{"coding":[{"system":"http://terminology.hl7.org/CodeSystem/condition-category","code":"problem-list-item"}]}],"code":{"coding":[{"system":"http://snomed.info/sct","code":"736686006"}]},"subject":{"reference":"Patient/d96d6fb2-7137-488d-847a-9887a19ef7aa"},"onsetDateTime":"2022-01-17T00:00:00+00:00"}},{"fullUrl":"Condition/23b32cbb-fdbc-44fa-99a1-963320bee545","resource":{"resourceType":"Condition","id":"23b32cbb-fdbc-44fa-99a1-963320bee545","meta":{"profile":["http://hl7.org/fhir/us/core/StructureDefinition/us-core-condition"]},"clinicalStatus":{"coding":[{"system":"http://terminology.hl7.org/CodeSystem/condition-clinical","code":"active","display":"Active"}]},"category":[{"coding":[{"system":"http://terminology.hl7.org/CodeSystem/condition-category","code":"problem-list-item"}]}],"code":{"coding":[{"system":"http://snomed.info/sct","code":"91554004"}]},"subject":{"reference":"Patient/d96d6fb2-7137-488d-847a-9887a19ef7aa"},"onsetDateTime":"2022-12-26T00:00:00+00:00"}},{"fullUrl":"Condition/ea3a4923-10a7-4f34-b4fd-a2427dd67495","resource":{"resourceType":"Condition","id":"ea3a4923-10a7-4f34-b4fd-a2427dd67495","meta":{"profile":["http://hl7.org/fhir/us/core/StructureDefinition/us-core-condition"]},"clinicalStatus":{"coding":[{"system":"http://terminology.hl7.org/CodeSystem/condition-clinical","code":"active","display":"Active"}]},"category":[{"coding":[{"system":"http://terminology.hl7.org/CodeSystem/condition-category","code":"problem-list-item"}]}],"code":{"coding":[{"system":"http://snomed.info/sct","code":"418290006"}]},"subject":{"reference":"Patient/d96d6fb2-7137-488d-847a-9887a19ef7aa"},"onsetDateTime":"2022-05-01T00:00:00+00:00"}},{"fullUrl":"Condition/9e4dffba-46ab-4929-b24b-bd811e450885","resource":{"resourceType":"Condition","id":"9e4dffba-46ab-4929-b24b-bd811e450885","meta":{"profile":["http://hl7.org/fhir/us/core/StructureDefinition/us-core-condition"]},"clinicalStatus":{"coding":[{"system":"http://terminology.hl7.org/CodeSystem/condition-clinical","code":"active","display":"Active"}]},"category":[{"coding":[{"system":"http://terminology.hl7.org/CodeSystem/condition-category","code":"problem-list-item"}]}],"code":{"coding":[{"system":"http://snomed.info/sct","code":"709977002"}]},"subject":{"reference":"Patient/d96d6fb2-7137-488d-847a-9887a19ef7aa"},"onsetDateTime":"2022-07-20T00:00:00+00:00"}},{"fullUrl":"Condition/398a7f41-40da-440e-b064-665c403bed0a","resource":{"resourceType":"Condition","id":"398a7f41-40da-440e-b064-665c403bed0a","meta":{"profile":["http://hl7.org/fhir/us/core/StructureDefinition/us-core-condition"]},"clinicalStatus":{"coding":[{"system":"http://terminology.hl7.org/CodeSystem/condition-clinical","code":"active","display":"Active"}]},"category":[{"coding":[{"system":"http://terminology.hl7.org/CodeSystem/condition-category","code":"problem-list-item"}]}],"code":{"coding":[{"system":"http://snomed.info/sct","code":"736686006"}]},"subject":{"reference":"Patient/d96d6fb2-7137-488d-847a-9887a19ef7aa"},"onsetDateTime":"2022-03-08T00:00:00+00:00"}},{"fullUrl":"Condition/5375b8b7-f0d0-4b4d-afd5-5488c3131d4b","resource":{"resourceType":"Condition","id":"5375b8b7-f0d0-4b4d-afd5-5488c3131d4b","meta":{"profile":["http://hl7.org/fhir/us/core/StructureDefinition/us-core-condition"]},"clinicalStatus":{"coding":[{"system":"http://terminology.hl7.org/CodeSystem/condition-clinical","code":"active","display":"Active"}]},"category":[{"coding":[{"system":"http://terminology.hl7.org/CodeSystem/condition-category","code":"problem-list-item"}]}],"code":{"coding":[{"system":"http://snomed.info/sct","code":"44882003"}]},"subject":{"reference":"Patient/d96d6fb2-7137-488d-847a-9887a19ef7aa"},"onsetDateTime":"2022-07-16T00:00:00+00:00"}},{"fullUrl":"Condition/b17cb5f6-f047-4fef-9f23-5806da526363","resource":{"resourceType":"Condition","id":"b17cb5f6-f047-4fef-9f23-5806da526363","meta":{"profile":["http://hl7.org/fhir/us/core/StructureDefinition/us-core-condition"]},"clinicalStatus":{"coding":[{"system":"http://terminology.hl7.org/CodeSystem/condition-clinical","code":"active","display":"Active"}]},"category":[{"coding":[{"system":"http://terminology.hl7.org/CodeSystem/condition-category","code":"problem-list-item"}]}],"code":{"coding":[{"system":"http://snomed.info/sct","code":"44882003"}]},"subject":{"reference":"Patient/d96d6fb2-7137-488d-847a-9887a19ef7aa"},"onsetDateTime":"2022-04-12T00:00:00+00:00"}},{"fullUrl":"Observation/db3453ec-39e7-40bd-8826-66e49be299f4","resource":{"resourceType":"Observation","id":"db3453ec-39e7-40bd-8826-66e49be299f4","meta":{"profile":["http://hl7.org/fhir/us/core/StructureDefinition/us-core-observation-lab"]},"status":"final","category":[{"coding":[{"system":"http://terminology.hl7.org/CodeSystem/observation-category","code":"laboratory","display":"Laboratory"}]}],"code":{"coding":[{"system":"http://loinc.org","code":"49498-9"}]},"subject":{"reference":"Patient/d96d6fb2-7137-488d-847a-9887a19ef7aa"},"effectiveDateTime":"2022-05-23T00:00:00+00:00","valueQuantity":{"value":9.8}}},{"fullUrl":"Observation/c075ecc3-afd3-4cb7-b8ff-1fb852da061e","resource":{"resourceType":"Observation","id":"c075ecc3-afd3-4cb7-b8ff-1fb852da061e","meta":{"profile":["http://hl7.org/fhir/us/core/StructureDefinition/us-core-observation-lab"]},"status":"final","category":[{"coding":[{"system":"http://terminology.hl7.org/CodeSystem/observation-category","code":"laboratory","display":"Laboratory"}]}],"code":{"coding":[{"system":"http://loinc.org","code":"6690-2"}]},"subject":{"reference":"Patient/d96d6fb2-7137-488d-847a-9887a19ef7aa"},"effectiveDateTime":"2022-05-24T00:00:00+00:00","valueQuantity":{"value":4.5}}},{"fullUrl":"Observation/56ebd451-b46e-4724-88ac-29b165f38281","resource":{"resourceType":"Observation","id":"56ebd451-b46e-4724-88ac-29b165f38281","meta":{"profile":["http://hl7.org/fhir/us/core/StructureDefinition/us-core-observation-lab"]},"status":"final","category":[{"coding":[{"system":"http://terminology.hl7.org/CodeSystem/observation-category","code":"laboratory","display":"Laboratory"}]}],"code":{"coding":[{"system":"http://loinc.org","code":"804-5"}]},"subject":{"reference":"Patient/d96d6fb2-7137-488d-847a-9887a19ef7aa"},"effectiveDateTime":"2022-05-19T00:00:00+00:00","valueQuantity":{"value":8.9}}},{"fullUrl":"Observation/96bf2c38-4f36-495b-8069-67e0845054b2","resource":{"resourceType":"Observation","id":"96bf2c38-4f36-495b-8069-67e0845054b2","meta":{"profile":["http://hl7.org/fhir/us/core/StructureDefinition/us-core-bmi"]},"status":"final","category":[{"coding":[{"system":"http://terminology.hl7.org/CodeSystem/observation-category","code":"vital-signs","display":"Vital Signs"}]}],"code":{"coding":[{"system":"http://loinc.org","code":"39156-5"}]},"subject":{"reference":"Patient/d96d6fb2-7137-488d-847a-9887a19ef7aa"},"effectiveDateTime":"2022-03-11T00:00:00+00:00","valueQuantity":{"value":16.46,"unit":"kg/m2","system":"http://unitsofmeasure.org","code":"kg/m2"}}},{"fullUrl":"Observation/5a38bca2-a169-4dc7-b587-4a46746dcaa5","resource":{"resourceType":"Observation","id":"5a38bca2-a169-4dc7-b587-4a46746dcaa5","meta":{"profile":["http://hl7.org/fhir/us/core/StructureDefinition/us-core-bmi"]},"status":"final","category":[{"coding":[{"system":"http://terminology.hl7.org/CodeSystem/observation-category","code":"vital-signs","display":"Vital Signs"}]}],"code":{"coding":[{"system":"http://loinc.org","code":"39156-5"}]},"subject":{"reference":"Patient/d96d6fb2-7137-488d-847a-9887a19ef7aa"},"effectiveDateTime":"2022-03-16T00:00:00+00:00","valueQuantity":{"value":24.25,"unit":"kg/m2","system":"http://unitsofmeasure.org","code":"kg/m2"}}},{"fullUrl":"Observation/7c96d3ce-3257-44a3-8ba3-191fdc0113c1","resource":{"resourceType":"Observation","id":"7c96d3ce-3257-44a3-8ba3-191fdc0113c1","meta":{"profile":["http://hl7.org/fhir/us/core/StructureDefinition/us-core-head-circumference"]},"status":"final","category":[{"coding":[{"system":"http://terminology.hl7.org/CodeSystem/observation-category","code":"vital-signs","display":"Vital Signs"}]}],"code":{"coding":[{"system":"http://loinc.org","code":"9843-4"}]},"subject":{"reference":"Patient/d96d6fb2-7137-488d-847a-9887a19ef7aa"},"effectiveDateTime":"2022-01-22T00:00:00+00:00","valueQuantity":{"value":8.8,"unit":"Inch","system":"http://unitsofmeasure.org","code":"[in_i]"}}},{"fullUrl":"Observation/35eabe20-56cb-4248-83e2-9ecce610577c","resource":{"resourceType":"Observation","id":"35eabe20-56cb-4248-83e2-9ecce610577c","meta":{"profile":["http://hl7.org/fhir/us/core/StructureDefinition/us-core-body-height"]},"status":"final","category":[{"coding":[{"system":"http://terminology.hl7.org/CodeSystem/observation-category","code":"vital-signs","display":"Vital Signs"}]}],"code":{"coding":[{"system":"http://loinc.org","code":"8302-2"}]},"subject":{"reference":"Patient/d96d6fb2-7137-488d-847a-9887a19ef7aa"},"effectiveDateTime":"2022-03-25T00:00:00+00:00","valueQuantity":{"value":68.4,"unit":"Inch","system":"http://unitsofmeasure.org","code":"[in_i]"}}},{"fullUrl":"Observation/69ceb1a3-2e83-4c9d-a8e7-7577de09d090","resource":{"resourceType":"Observation","id":"69ceb1a3-2e83-4c9d-a8e7-7577de09d090","meta":{"profile":["http://hl7.org/fhir/us/core/StructureDefinition/us-core-body-weight"]},"status":"final","category":[{"coding":[{"system":"http://terminology.hl7.org/CodeSystem/observation-category","code":"vital-signs","display":"Vital Signs"}]}],"code":{"coding":[{"system":"http://loinc.org","code":"29463-7"}]},"subject":{"reference":"Patient/d96d6fb2-7137-488d-847a-9887a19ef7aa"},"effectiveDateTime":"2022-08-26T00:00:00+00:00","valueQuantity":{"value":81.26,"unit":"kilogram","system":"http://unitsofmeasure.org","code":"kg"}}},{"fullUrl":"Observation/469bef51-9204-4219-8590-0e35c47f2722","resource":{"resourceType":"Observation","id":"469bef51-9204-4219-8590-0e35c47f2722","meta":{"profile":["http://hl7.org/fhir/us/core/StructureDefinition/us-core-body-weight"]},"status":"final","category":[{"coding":[{"system":"http://terminology.hl7.org/CodeSystem/observation-category","code":"vital-signs","display":"Vital Signs"}]}],"code":{"coding":[{"system":"http://loinc.org","code":"29463-7"}]},"subject":{"reference":"Patient/d96d6fb2-7137-488d-847a-9887a19ef7aa"},"effectiveDateTime":"2022-01-25T00:00:00+00:00","valueQuantity":{"value":102.18,"unit":"kilogram","system":"http://unitsofmeasure.org","code":"kg"}}},{"fullUrl":"Observation/eddba2fe-63e4-45aa-b7ed-b44de2b71952","resource":{"resourceType":"Observation","id":"eddba2fe-63e4-45aa-b7ed-b44de2b71952","meta":{"profile":["http://hl7.org/fhir/us/core/StructureDefinition/us-core-body-temperature"]},"status":"final","category":[{"coding":[{"system":"http://terminology.hl7.org/CodeSystem/observation-category","code":"vital-signs","display":"Vital Signs"}]}],"code":{"coding":[{"system":"http://loinc.org","code":"8310-5"}]},"subject":{"reference":"Patient/d96d6fb2-7137-488d-847a-9887a19ef7aa"},"effectiveDateTime":"2022-09-11T00:00:00+00:00","valueQuantity":{"value":77.67,"unit":"Degrees Fahrenheit","system":"http://unitsofmeasure.org","code":"[degF]"}}},{"fullUrl":"Observation/3d82f75b-8d7d-42a0-88b4-6fb16c3c1c6a","resource":{"resourceType":"Observation","id":"3d82f75b-8d7d-42a0-88b4-6fb16c3c1c6a","meta":{"profile":["http://hl7.org/fhir/us/core/StructureDefinition/us-core-body-temperature"]},"status":"final","category":[{"coding":[{"system":"http://terminology.hl7.org/CodeSystem/observation-category","code":"vital-signs","display":"Vital Signs"}]}],"code":{"coding":[{"system":"http://loinc.org","code":"8310-5"}]},"subject":{"reference":"Patient/d96d6fb2-7137-488d-847a-9887a19ef7aa"},"effectiveDateTime":"2022-06-17T00:00:00+00:00","valueQuantity":{"value":128.52,"unit":"Degrees Fahrenheit","system":"http://unitsofmeasure.org","code":"[degF]"}}},{"fullUrl":"Observation/08f373c2-dade-43c6-9d5f-803a48255d5c","resource":{"resourceType":"Observation","id":"08f373c2-dade-43c6-9d5f-803a48255d5c","meta":{"profile":["http://hl7.org/fhir/us/core/StructureDefinition/us-core-heart-rate"]},"status":"final","category":[{"coding":[{"system":"http://terminology.hl7.org/CodeSystem/observation-category","code":"vital-signs","display":"Vital Signs"}]}],"code":{"coding":[{"system":"http://loinc.org","code":"8867-4"}]},"subject":{"reference":"Patient/d96d6fb2-7137-488d-847a-9887a19ef7aa"},"effectiveDateTime":"2022-07-16T00:00:00+00:00","valueQuantity":{"value":101.2,"unit":"Per Minute","system":"http://unitsofmeasure.org","code":"/min"}}},{"fullUrl":"Observation/07f1b209-149c-4135-92d0-e62711c9866c","resource":{"resourceType":"Observation","id":"07f1b209-149c-4135-92d0-e62711c9866c","meta":{"profile":["http://hl7.org/fhir/us/core/StructureDefinition/us-core-heart-rate"]},"status":"final","category":[{"coding":[{"system":"http://terminology.hl7.org/CodeSystem/observation-category","code":"vital-signs","display":"Vital Signs"}]}],"code":{"coding":[{"system":"http://loinc.org","code":"8867-4"}]},"subject":{"reference":"Patient/d96d6fb2-7137-488d-847a-9887a19ef7aa"},"effectiveDateTime":"2022-01-29T00:00:00+00:00","valueQuantity":{"value":96.6,"unit":"Per Minute","system":"http://unitsofmeasure.org","code":"/min"}}},{"fullUrl":"Patient/e1230cc4-11b7-4841-b3b9-a2c8d8394b8d","resource":{"resourceType":"Patient","id":"e1230cc4-11b7-4841-b3b9-a2c8d8394b8d","meta":{"profile":["http://hl7.org/fhir/us/core/StructureDefinition/us-core-patient"]},"extension":[{"extension":[{"url":"ombCategory","valueCoding":{"system":"urn:oid:2.16.840.1.113883.6.238","code":"2028-9","display":"Asian"}},{"url":"text","valueString":"Asian"}],"url":"http://hl7.org/fhir/us/core/StructureDefinition/us-core-race"},{"extension":[{"url":"ombCategory","valueCoding":{"system":"urn:oid:2.16.840.1.113883.6.238","code":"2186-5","display":"Non Hispanic or Latino"}},{"url":"text","valueString":"Non Hispanic or Latino"}],"url":"http://hl7.org/fhir/us/core/StructureDefinition/us-core-ethnicity"}],"identifier":[{"type":{"coding":[{"system":"http://terminology.hl7.org/CodeSystem/v2-0203","code":"MR"}]},"system":"urn:fhirgen:mrn","value":"150-55-3770"}],"name":[{"use":"official","family":"Meyer","given":["Ryan"]},{"use":"maiden","family":"Brown"}],"telecom":[{"system":"phone","value":"+1-254-434-7360","use":"work"},{"system":"email","value":"isabel20@hotmail.com","use":"work"}],"gender":"other","birthDate":"1968-02-07","address":[{"use":"home","line":["841 Sophia Rue Apt. 460"],"city":"Adamsstad","state":"VA","postalCode":"55650"},{"use":"old","line":["97917 David Green Apt. 300"],"city":"South Matthew","state":"WV","postalCode":"49102"}]}},{"fullUrl":"Observation/ab615ead-7152-481d-933f-b01ddfaeaeae","resource":{"resourceType":"Observation","id":"ab615ead-7152-481d-933f-b01ddfaeaeae","meta":{"profile":["http://hl7.org/fhir/us/core/StructureDefinition/us-core-observation-lab"]},"status":"final","category":[{"coding":[{"system":"http://terminology.hl7.org/CodeSystem/observation-category","code":"laboratory","display":"Laboratory"}]}],"code":{"coding":[{"system":"http://loinc.org","code":"31147-2"}]},"subject":{"reference":"Patient/e1230cc4-11b7-4841-b3b9-a2c8d8394b8d"},"effectiveDateTime":"2022-05-25T00:00:00+00:00","valueRatio":{"numerator":{"value":1},"denominator":{"value":64}}}},{"fullUrl":"Observation/22718110-8243-455f-b605-f56656272208","resource":{"resourceType":"Observation","id":"22718110-8243-455f-b605-f56656272208","meta":{"profile":["http://hl7.org/fhir/us/core/StructureDefinition/us-core-observation-lab"]},"status":"final","category":[{"coding":[{"system":"http://terminology.hl7.org/CodeSystem/observation-category","code":"laboratory","display":"Laboratory"}]}],"code":{"coding":[{"system":"http://loinc.org","code":"5394-2"}]},"subject":{"reference":"Patient/e1230cc4-11b7-4841-b3b9-a2c8d8394b8d"},"effectiveDateTime":"2022-02-23T00:00:00+00:00","valueRatio":{"numerator":{"value":1},"denominator":{"value":4}}}},{"fullUrl":"Observation/42b8ae85-1e48-45ab-8e34-7c30dbec0a25","resource":{"resourceType":"Observation","id":"42b8ae85-1e48-45ab-8e34-7c30dbec0a25","meta":{"profile":["http://hl7.org/fhir/us/core/StructureDefinition/us-core-observation-lab"]},"status":"final","category":[{"coding":[{"system":"http://terminology.hl7.org/CodeSystem/observation-category","code":"laboratory","display":"Laboratory"}]}],"code":{"coding":[{"system":"http://loinc.org","code":"22590-4"}]},"subject":{"reference":"Patient/e1230cc4-11b7-4841-b3b9-a2c8d8394b8d"},"effectiveDateTime":"2022-02-07T00:00:00+00:00","valueRatio":{"numerator":{"value":1},"denominator":{"value":64}}}},{"fullUrl":"Condition/f2d16083-e2bc-4ae2-a3da-9d7fa3c8b088","resource":{"resourceType":"Condition","id":"f2d16083-e2bc-4ae2-a3da-9d7fa3c8b088","meta":{"profile":["http://hl7.org/fhir/us/core/StructureDefinition/us-core-condition"]},"clinicalStatus":{"coding":[{"system":"http://terminology.hl7.org/CodeSystem/condition-clinical","code":"active","display":"Active"}]},"category":[{"coding":[{"system":"http://terminology.hl7.org/CodeSystem/condition-category","code":"problem-list-item"}]}],"code":{"coding":[{"system":"http://snomed.info/sct","code":"418290006"}]},"subject":{"reference":"Patient/e1230cc4-11b7-4841-b3b9-a2c8d8394b8d"},"onsetDateTime":"2022-02-13T00:00:00+00:00"}},{"fullUrl":"Condition/a08acac1-5f62-47f5-b614-323632540081","resource":{"resourceType":"Condition","id":"a08acac1-5f62-47f5-b614-323632540081","meta":{"profile":["http://hl7.org/fhir/us/core/StructureDefinition/us-core-condition"]},"clinicalStatus":{"coding":[{"system":"http://terminology.hl7.org/CodeSystem/condition-clinical","code":"active","display":"Active"}]},"category":[{"coding":[{"system":"http://terminology.hl7.org/CodeSystem/condition-category","code":"problem-list-item"}]}],"code":{"coding":[{"system":"http://snomed.info/sct","code":"418290006"}]},"subject":{"reference":"Patient/e1230cc4-11b7-4841-b3b9-a2c8d8394b8d"},"onsetDateTime":"2022-05-12T00:00:00+00:00"}},{"fullUrl":"Condition/4b5d238a-76e3-4a3d-9b18-f3eb3b9e13ef","resource":{"resourceType":"Condition","id":"4b5d238a-76e3-4a3d-9b18-f3eb3b9e13ef","meta":{"profile":["http://hl7.org/fhir/us/core/StructureDefinition/us-core-condition"]},"clinicalStatus":{"coding":[{"system":"http://terminology.hl7.org/CodeSystem/condition-clinical","code":"active","display":"Active"}]},"category":[{"coding":[{"system":"http://terminology.hl7.org/CodeSystem/condition-category","code":"problem-list-item"}]}],"code":{"coding":[{"system":"http://snomed.info/sct","code":"44882003"}]},"subject":{"reference":"Patient/e1230cc4-11b7-4841-b3b9-a2c8d8394b8d"},"onsetDateTime":"2022-01-22T00:00:00+00:00"}},{"fullUrl":"Condition/0c4a4857-3a36-4c1e-9be8-5b8d501467ad","resource":{"resourceType":"Condition","id":"0c4a4857-3a36-4c1e-9be8-5b8d501467ad","meta":{"profile":["http://hl7.org/fhir/us/core/StructureDefinition/us-core-condition"]},"clinicalStatus":{"coding":[{"system":"http://terminology.hl7.org/CodeSystem/condition-clinical","code":"active","display":"Active"}]},"category":[{"coding":[{"system":"http://terminology.hl7.org/CodeSystem/condition-category","code":"problem-list-item"}]}],"code":{"coding":[{"system":"http://snomed.info/sct","code":"736686006"}]},"subject":{"reference":"Patient/e1230cc4-11b7-4841-b3b9-a2c8d8394b8d"},"onsetDateTime":"2022-04-06T00:00:00+00:00"}},{"fullUrl":"Condition/3ac99569-0549-459f-b58f-007fe727612b","resource":{"resourceType":"Condition","id":"3ac99569-0549-459f-b58f-007fe727612b","meta":{"profile":["http://hl7.org/fhir/us/core/StructureDefinition/us-core-condition"]},"clinicalStatus":{"coding":[{"system":"http://terminology.hl7.org/CodeSystem/condition-clinical","code":"active","display":"Active"}]},"category":[{"coding":[{"system":"http://terminology.hl7.org/CodeSystem/condition-category","code":"problem-list-item"}]}],"code":{"coding":[{"system":"http://snomed.info/sct","code":"44882003"}]},"subject":{"reference":"Patient/e1230cc4-11b7-4841-b3b9-a2c8d8394b8d"},"onsetDateTime":"2022-09-23T00:00:00+00:00"}},{"fullUrl":"Condition/39d5c1c3-db6c-467e-8b9c-efa9e3fafa85","resource":{"resourceType":"Condition","id":"39d5c1c3-db6c-467e-8b9c-efa9e3fafa85","meta":{"profile":["http://hl7.org/fhir/us/core/StructureDefinition/us-core-condition"]},"clinicalStatus":{"coding":[{"system":"http://terminology.hl7.org/CodeSystem/condition-clinical","code":"active","display":"Active"}]},"category":[{"coding":[{"system":"http://terminology.hl7.org/CodeSystem/condition-category","code":"problem-list-item"}]}],"code":{"coding":[{"system":"http://snomed.info/sct","code":"91554004"}]},"subject":{"reference":"Patient/e1230cc4-11b7-4841-b3b9-a2c8d8394b8d"},"onsetDateTime":"2022-12-18T00:00:00+00:00"}},{"fullUrl":"Condition/1a62a117-f504-4305-9d4b-ffe1ffd0ee8a","resource":{"resourceType":"Condition","id":"1a62a117-f504-4305-9d4b-ffe1ffd0ee8a","meta":{"profile":["http://hl7.org/fhir/us/core/StructureDefinition/us-core-condition"]},"clinicalStatus":{"coding":[{"system":"http://terminology.hl7.org/CodeSystem/condition-clinical","code":"active","display":"Active"}]},"category":[{"coding":[{"system":"http://terminology.hl7.org/CodeSystem/condition-category","code":"problem-list-item"}]}],"code":{"coding":[{"system":"http://snomed.info/sct","code":"418290006"}]},"subject":{"reference":"Patient/e1230cc4-11b7-4841-b3b9-a2c8d8394b8d"},"onsetDateTime":"2022-07-22T00:00:00+00:00"}},{"fullUrl":"Condition/124cd417-9fad-4cad-bde1-15b21367a262","resource":{"resourceType":"Condition","id":"124cd417-9fad-4cad-bde1-15b21367a262","meta":{"profile":["http://hl7.org/fhir/us/core/StructureDefinition/us-core-condition"]},"clinicalStatus":{"coding":[{"system":"http://terminology.hl7.org/CodeSystem/condition-clinical","code":"active","display":"Active"}]},"category":[{"coding":[{"system":"http://terminology.hl7.org/CodeSystem/condition-category","code":"problem-list-item"}]}],"code":{"coding":[{"system":"http://snomed.info/sct","code":"709977002"}]},"subject":{"reference":"Patient/e1230cc4-11b7-4841-b3b9-a2c8d8394b8d"},"onsetDateTime":"2022-09-16T00:00:00+00:00"}},{"fullUrl":"Observation/bce11a06-0aee-46e8-a06f-b750cc6b2609","resource":{"resourceType":"Observation","id":"bce11a06-0aee-46e8-a06f-b750cc6b2609","meta":{"profile":["http://hl7.org/fhir/us/core/StructureDefinition/us-core-observation-lab"]},"status":"final","category":[{"coding":[{"system":"http://terminology.hl7.org/CodeSystem/observation-category","code":"laboratory","display":"Laboratory"}]}],"code":{"coding":[{"system":"http://loinc.org","code":"6690-2"}]},"subject":{"reference":"Patient/e1230cc4-11b7-4841-b3b9-a2c8d8394b8d"},"effectiveDateTime":"2022-06-30T00:00:00+00:00","valueQuantity":{"value":9.9}}},{"fullUrl":"Observation/51ab735d-e53e-4b31-bab4-6b469f7c4527","resource":{"resourceType":"Observation","id":"51ab735d-e53e-4b31-bab4-6b469f7c4527","meta":{"profile":["http://hl7.org/fhir/us/core/StructureDefinition/us-core-observation-lab"]},"status":"final","category":[{"coding":[{"system":"http://terminology.hl7.org/CodeSystem/observation-category","code":"laboratory","display":"Laboratory"}]}],"code":{"coding":[{"system":"http://loinc.org","code":"6690-2"}]},"subject":{"reference":"Patient/e1230cc4-11b7-4841-b3b9-a2c8d8394b8d"},"effectiveDateTime":"2022-04-27T00:00:00+00:00","valueQuantity":{"value":7.1}}},{"fullUrl":"Observation/8e8da879-c1b7-45e1-9147-d3524e1829d3","resource":{"resourceType":"Observation","id":"8e8da879-c1b7-45e1-9147-d3524e1829d3","meta":{"profile":["http://hl7.org/fhir/us/core/StructureDefinition/us-core-observation-lab"]},"status":"final","category":[{"coding":[{"system":"http://terminology.hl7.org/CodeSystem/observation-category","code":"laboratory","display":"Laboratory"}]}],"code":{"coding":[{"system":"http://loinc.org","code":"26464-8"}]},"subject":{"reference":"Patient/e1230cc4-11b7-4841-b3b9-a2c8d8394b8d"},"effectiveDateTime":"2022-10-13T00:00:00+00:00","valueQuantity":{"value":9.6}}},{"fullUrl":"Observation/523a832c-35db-497c-903d-661b14b09b46","resource":{"resourceType":"Observation","id":"523a832c-35db-497c-903d-661b14b09b46","meta":{"profile":["http://hl7.org/fhir/us/core/StructureDefinition/us-core-bmi"]},"status":"final","category":[{"coding":[{"system":"http://terminology.hl7.org/CodeSystem/observation-category","code":"vital-signs","display":"Vital Signs"}]}],"code":{"coding":[{"system":"http://loinc.org","code":"39156-5"}]},"subject":{"reference":"Patient/e1230cc4-11b7-4841-b3b9-a2c8d8394b8d"},"effectiveDateTime":"2022-11-29T00:00:00+00:00","valueQuantity":{"value":25.54,"unit":"kg/m2","system":"http://unitsofmeasure.org","code":"kg/m2"}}},{"fullUrl":"Observation/cc7060f9-0703-4848-bec2-8dee6f9b3bd4","resource":{"resourceType":"Observation","id":"cc7060f9-0703-4848-bec2-8dee6f9b3bd4","meta":{"profile":["http://hl7.org/fhir/us/core/StructureDefinition/us-core-head-circumference"]},"status":"final","category":[{"coding":[{"system":"http://terminology.hl7.org/CodeSystem/observation-category","code":"vital-signs","display":"Vital Signs"}]}],"code":{"coding":[{"system":"http://loinc.org","code":"9843-4"}]},"subject":{"reference":"Patient/e1230cc4-11b7-4841-b3b9-a2c8d8394b8d"},"effectiveDateTime":"2022-03-24T00:00:00+00:00","valueQuantity":{"value":1.2,"unit":"Inch","system":"http://unitsofmeasure.org","code":"[in_i]"}}},{"fullUrl":"Observation/7230373c-cb39-4c9a-8930-d7f97148bc8a","resource":{"resourceType":"Observation","id":"7230373c-cb39-4c9a-8930-d7f97148bc8a","meta":{"profile":["http://hl7.org/fhir/us/core/StructureDefinition/us-core-body-height"]},"status":"final","category":[{"coding":[{"system":"http://terminology.hl7.org/CodeSystem/observation-category","code":"vital-signs","display":"Vital Signs"}]}],"code":{"coding":[{"system":"http://loinc.org","code":"8302-2"}]},"subject":{"reference":"Patient/e1230cc4-11b7-4841-b3b9-a2c8d8394b8d"},"effectiveDateTime":"2022-11-13T00:00:00+00:00","valueQuantity":{"value":82.6,"unit":"Inch","system":"http://unitsofmeasure.org","code":"[in_i]"}}},{"fullUrl":"Observation/f8d33202-0161-4101-9513-f71e197c6d0f","resource":{"resourceType":"Observation","id":"f8d33202-0161-4101-9513-f71e197c6d0f","meta":{"profile":["http://hl7.org/fhir/us/core/StructureDefinition/us-core-body-height"]},"status":"final","category":[{"coding":[{"system":"http://terminology.hl7.org/CodeSystem/observation-category","code":"vital-signs","display":"Vital Signs"}]}],"code":{"coding":[{"system":"http://loinc.org","code":"8302-2"}]},"subject":{"reference":"Patient/e1230cc4-11b7-4841-b3b9-a2c8d8394b8d"},"effectiveDateTime":"2022-10-10T00:00:00+00:00","valueQuantity":{"value":70.9,"unit":"Inch","system":"http://unitsofmeasure.org","code":"[in_i]"}}},{"fullUrl":"Observation/630b526f-9459-4834-999c-47ee512bde39","resource":{"resourceType":"Observation","id":"630b526f-9459-4834-999c-47ee512bde39","meta":{"profile":["http://hl7.org/fhir/us/core/StructureDefinition/us-core-body-weight"]},"status":"final","category":[{"coding":[{"system":"http://terminology.hl7.org/CodeSystem/observation-category","code":"vital-signs","display":"Vital Signs"}]}],"code":{"coding":[{"system":"http://loinc.org","code":"29463-7"}]},"subject":{"reference":"Patient/e1230cc4-11b7-4841-b3b9-a2c8d8394b8d"},"effectiveDateTime":"2022-05-16T00:00:00+00:00","valueQuantity":{"value":64.54,"unit":"kilogram","system":"http://unitsofmeasure.org","code":"kg"}}},{"fullUrl":"Observation/90baa04b-0e98-4558-b659-d6f2017ba32d","resource":{"resourceType":"Observation","id":"90baa04b-0e98-4558-b659-d6f2017ba32d","meta":{"profile":["http://hl7.org/fhir/us/core/StructureDefinition/us-core-body-weight"]},"status":"final","category":[{"coding":[{"system":"http://terminology.hl7.org/CodeSystem/observation-category","code":"vital-signs","display":"Vital Signs"}]}],"code":{"coding":[{"system":"http://loinc.org","code":"29463-7"}]},"subject":{"reference":"Patient/e1230cc4-11b7-4841-b3b9-a2c8d8394b8d"},"effectiveDateTime":"2022-01-24T00:00:00+00:00","valueQuantity":{"value":103.12,"unit":"kilogram","system":"http://unitsofmeasure.org","code":"kg"}}},{"fullUrl":"Observation/01cac2ba-f6c0-40e0-8d32-3545f7098906","resource":{"resourceType":"Observation","id":"01cac2ba-f6c0-40e0-8d32-3545f7098906","meta":{"profile":["http://hl7.org/fhir/us/core/StructureDefinition/us-core-body-temperature"]},"status":"final","category":[{"coding":[{"system":"http://terminology.hl7.org/CodeSystem/observation-category","code":"vital-signs","display":"Vital Signs"}]}],"code":{"coding":[{"system":"http://loinc.org","code":"8310-5"}]},"subject":{"reference":"Patient/e1230cc4-11b7-4841-b3b9-a2c8d8394b8d"},"effectiveDateTime":"2022-07-16T00:00:00+00:00","valueQuantity":{"value":102.54,"unit":"Degrees Fahrenheit","system":"http://unitsofmeasure.org","code":"[degF]"}}},{"fullUrl":"Observation/2bba1b30-7347-4392-aa14-82a93116ce85","resource":{"resourceType":"Observation","id":"2bba1b30-7347-4392-aa14-82a93116ce85","meta":{"profile":["http://hl7.org/fhir/us/core/StructureDefinition/us-core-heart-rate"]},"status":"final","category":[{"coding":[{"system":"http://terminology.hl7.org/CodeSystem/observation-category","code":"vital-signs","display":"Vital Signs"}]}],"code":{"coding":[{"system":"http://loinc.org","code":"8867-4"}]},"subject":{"reference":"Patient/e1230cc4-11b7-4841-b3b9-a2c8d8394b8d"},"effectiveDateTime":"2022-11-15T00:00:00+00:00","valueQuantity":{"value":95.2,"unit":"Per Minute","system":"http://unitsofmeasure.org","code":"/min"}}},{"fullUrl":"Observation/4f5dcad1-2e1e-4652-8838-f8edc1d7d6bb","resource":{"resourceType":"Observation","id":"4f5dcad1-2e1e-4652-8838-f8edc1d7d6bb","meta":{"profile":["http://hl7.org/fhir/us/core/StructureDefinition/us-core-heart-rate"]},"status":"final","category":[{"coding":[{"system":"http://terminology.hl7.org/CodeSystem/observation-category","code":"vital-signs","display":"Vital Signs"}]}],"code":{"coding":[{"system":"http://loinc.org","code":"8867-4"}]},"subject":{"reference":"Patient/e1230cc4-11b7-4841-b3b9-a2c8d8394b8d"},"effectiveDateTime":"2022-08-27T00:00:00+00:00","valueQuantity":{"value":101,"unit":"Per Minute","system":"http://unitsofmeasure.org","code":"/min"}}}]}