{"resourceType":"Bundle","id":"307e05ff-8ff3-459a-9657-27d5c0baca32","type":"transaction","entry":[{"fullUrl":"Patient/159bfb54-a5e4-454a-83d1-2fb8a18651d5","resource":{"resourceType":"Patient","id":"159bfb54-a5e4-454a-83d1-2fb8a18651d5","identifier":[{"type":{"coding":[{"system":"http://terminology.hl7.org/CodeSystem/v2-0203","code":"MR"}]},"system":"urn:fhirgen:mrn","value":"618-21-0768"}],"name":[{"use":"official","family":"Waller","given":["Michael"]},{"use":"maiden","family":"Murray"}],"telecom":[{"system":"phone","value":"+1-208-247-3965x7941","use":"home"},{"system":"email","value":"ubrewer@gmail.com","use":"work"}],"gender":"male","birthDate":"1991-01-15","address":[{"use":"home","line":["30541 Nicolas Expressway"],"city":"Hurleyville","state":"NY","postalCode":"51948"},{"use":"old","line":["1467 Davis Square Apt. 864"],"city":"Michealville","state":"MS","postalCode":"81455"}]},"request":{"method":"POST","url":"Patient"}},{"fullUrl":"Observation/03db196a-ee94-4881-9400-593f50176b37","resource":{"resourceType":"Observation","id":"03db196a-ee94-4881-9400-593f50176b37","status":"final","code":{"coding":[{"system":"http://loinc.org","code":"31146-4"}]},"subject":{"reference":"Patient/159bfb54-a5e4-454a-83d1-2fb8a18651d5"},"effectiveDateTime":"2022-10-10T00:00:00+00:00","valueRatio":{"numerator":{"value":1},"denominator":{"value":4}}},"request":{"method":"POST","url":"Observation"}},{"fullUrl":"Observation/fe76ddbf-ac76-484a-a58c-d1d000ae13f6","resource":{"resourceType":"Observation","id":"fe76ddbf-ac76-484a-a58c-d1d000ae13f6","status":"final","code":{"coding":[{"system":"http://loinc.org","code":"11084-1"}]},"subject":{"reference":"Patient/159bfb54-a5e4-454a-83d1-2fb8a18651d5"},"effectiveDateTime":"2022-12-21T00:00:00+00:00","valueRatio":{"numerator":{"value":1},"denominator":{"value":64}}},"request":{"method":"POST","url":"Observation"}},{"fullUrl":"Condition/ad3e9bf9-54a0-4733-a42a-c79217fb92a5","resource":{"resourceType":"Condition","id":"ad3e9bf9-54a0-4733-a42a-c79217fb92a5","code":{"coding":[{"system":"http://snomed.info/sct","code":"198199009"}]},"subject":{"reference":"Patient/159bfb54-a5e4-454a-83d1-2fb8a18651d5"},"onsetDateTime":"2022-08-30T00:00:00+00:00"},"request":{"method":"POST","url":"Condition"}},{"fullUrl":"Condition/422455d2-a048-4b50-8941-836fd73ee97f","resource":{"resourceType":"Condition","id":"422455d2-a048-4b50-8941-836fd73ee97f","code":{"coding":[{"system":"http://snomed.info/sct","code":"30746006"}]},"subject":{"reference":"Patient/159bfb54-a5e4-454a-83d1-2fb8a18651d5"},"onsetDateTime":"2022-12-03T00:00:00+00:00"},"request":{"method":"POST","url":"Condition"}},{"fullUrl":"Condition/2c0f7fff-6326-4449-8352-56513faf3718","resource":{"resourceType":"Condition","id":"2c0f7fff-6326-4449-8352-56513faf3718","code":{"coding":[{"system":"http://snomed.info/sct","code":"3951002"}]},"subject":{"reference":"Patient/159bfb54-a5e4-454a-83d1-2fb8a18651d5"},"onsetDateTime":"2022-09-23T00:00:00+00:00"},"request":{"method":"POST","url":"Condition"}},{"fullUrl":"Observation/5628fe8b-51ab-4153-b823-2b61f1b5c309","resource":{"resourceType":"Observation","id":"5628fe8b-51ab-4153-b823-2b61f1b5c309","status":"final","code":{"coding":[{"system":"http://loinc.org","code":"804-5"}]},"subject":{"reference":"Patient/159bfb54-a5e4-454a-83d1-2fb8a18651d5"},"effectiveDateTime":"2022-08-25T00:00:00+00:00","valueQuantity":{"value":9.8}},"request":{"method":"POST","url":"Observation"}},{"fullUrl":"Observation/a70df08d-4a5c-4bed-a6db-f50f61d4f07b","resource":{"resourceType":"Observation","id":"a70df08d-4a5c-4bed-a6db-f50f61d4f07b","status":"final","code":{"coding":[{"system":"http://loinc.org","code":"6690-2"}]},"subject":{"reference":"Patient/159bfb54-a5e4-454a-83d1-2fb8a18651d5"},"effectiveDateTime":"2022-05-22T00:00:00+00:00","valueQuantity":{"value":7.7}},"request":{"method":"POST","url":"Observation"}},{"fullUrl":"Observation/1bd3002c-b8ce-45be-a195-d918e01a8226","resource":{"resourceType":"Observation","id":"1bd3002c-b8ce-45be-a195-d918e01a8226","status":"final","code":{"coding":[{"system":"http://loinc.org","code":"26464-8"}]},"subject":{"reference":"Patient/159bfb54-a5e4-454a-83d1-2fb8a18651d5"},"effectiveDateTime":"2022-01-07T00:00:00+00:00","valueQuantity":{"value":7.9}},"request":{"method":"POST","url":"Observation"}},{"fullUrl":"Observation/26983cd4-1b49-4542-af71-f079b262c9aa","resource":{"resourceType":"Observation","id":"26983cd4-1b49-4542-af71-f079b262c9aa","status":"final","code":{"coding":[{"system":"http://loinc.org","code":"49498-9"}]},"subject":{"reference":"Patient/159bfb54-a5e4-454a-83d1-2fb8a18651d5"},"effectiveDateTime":"2022-03-16T00:00:00+00:00"},"request":{"method":"POST","url":"Observation"}},{"fullUrl":"Observation/995d5583-e73b-45c8-9abb-f20a007a4610","resource":{"resourceType":"Observation","id":"995d5583-e73b-45c8-9abb-f20a007a4610","status":"final","code":{"coding":[{"system":"http://loinc.org","code":"49498-9"}]},"subject":{"reference":"Patient/159bfb54-a5e4-454a-83d1-2fb8a18651d5"},"effectiveDateTime":"2022-07-09T00:00:00+00:00"},"request":{"method":"POST","url":"Observation"}},{"fullUrl":"Procedure/14210b89-f422-4389-94c4-e50a7ea726d5","resource":{"resourceType":"Procedure","id":"14210b89-f422-4389-94c4-e50a7ea726d5","status":"completed","code":{"coding":[{"system":"http://snomed.info/sct","code":"146005"}]},"subject":{"reference":"Patient/159bfb54-a5e4-454a-83d1-2fb8a18651d5"},"performedDateTime":"2022-06-01T00:00:00+00:00"},"request":{"method":"POST","url":"Procedure"}},{"fullUrl":"Procedure/38fa8350-3913-498f-a9ae-0993d060ac02","resource":{"resourceType":"Procedure","id":"38fa8350-3913-498f-a9ae-0993d060ac02","status":"completed","code":{"coding":[{"system":"http://snomed.info/sct","code":"647000"}]},"subject":{"reference":"Patient/159bfb54-a5e4-454a-83d1-2fb8a18651d5"},"performedDateTime":"2022-09-21T00:00:00+00:00"},"request":{"method":"POST","url":"Procedure"}},{"fullUrl":"Procedure/b809b343-11df-4925-946e-8d9965d3d209","resource":{"resourceType":"Procedure","id":"b809b343-11df-4925-946e-8d9965d3d209","status":"completed","code":{"coding":[{"system":"http://snomed.info/sct","code":"104001"}]},"subject":{"reference":"Patient/159bfb54-a5e4-454a-83d1-2fb8a18651d5"},"performedDateTime":"2022-08-28T00:00:00+00:00"},"request":{"method":"POST","url":"Procedure"}},{"fullUrl":"MedicationStatement/3a4494bf-b407-4ae0-8ce4-668f3e6ebfc7","resource":{"resourceType":"MedicationStatement","id":"3a4494bf-b407-4ae0-8ce4-668f3e6ebfc7","status":"completed","medicationCodeableConcept":{"coding":[{"system":"http://www.nlm.nih.gov/research/umls/rxnorm","code":"2193"}]},"subject":{"reference":"Patient/159bfb54-a5e4-454a-83d1-2fb8a18651d5"},"effectiveDateTime":"2022-01-19T00:00:00+00:00","dosage":[{"doseAndRate":[{"doseQuantity":{"value":2,"unit":"TAB","system":"http://terminology.hl7.org/CodeSystem/v3-orderableDrugForm","code":"TAB"}}]}]},"request":{"method":"POST","url":"MedicationStatement"}},{"fullUrl":"MedicationStatement/69224eed-13a5-4027-889a-c43b8de645b5","resource":{"resourceType":"MedicationStatement","id":"69224eed-13a5-4027-889a-c43b8de645b5","status":"completed","medicationCodeableConcept":{"coding":[{"system":"http://www.nlm.nih.gov/research/umls/rxnorm","code":"8698"}]},"subject":{"reference":"Patient/159bfb54-a5e4-454a-83d1-2fb8a18651d5"},"effectiveDateTime":"2022-11-03T00:00:00+00:00","dosage":[{"doseAndRate":[{"doseQuantity":{"value":2,"unit":"TAB","system":"http://terminology.hl7.org/CodeSystem/v3-orderableDrugForm","code":"TAB"}}]}]},"request":{"method":"POST","url":"MedicationStatement"}},{"fullUrl":"MedicationStatement/7ee9344d-e91b-4791-9643-b953747a7dab","resource":{"resourceType":"MedicationStatement","id":"7ee9344d-e91b-4791-9643-b953747a7dab","status":"completed","medicationCodeableConcept":{"coding":[{"system":"http://www.nlm.nih.gov/research/umls/rxnorm","code":"18631"}]},"subject":{"reference":"Patient/159bfb54-a5e4-454a-83d1-2fb8a18651d5"},"effectiveDateTime":"2022-06-01T00:00:00+00:00","dosage":[{"doseAndRate":[{"doseQuantity":{"value":1,"unit":"TAB","system":"http://terminology.hl7.org/CodeSystem/v3-orderableDrugForm","code":"TAB"}}]}]},"request":{"method":"POST","url":"MedicationStatement"}},{"fullUrl":"MedicationStatement/d92ac9b7-f5ba-4c5e-8e51-fcf222436d58","resource":{"resourceType":"MedicationStatement","id":"d92ac9b7-f5ba-4c5e-8e51-fcf222436d58","status":"completed","medicationCodeableConcept":{"coding":[{"system":"http://www.nlm.nih.gov/research/umls/rxnorm","code":"7980"}]},"subject":{"reference":"Patient/159bfb54-a5e4-454a-83d1-2fb8a18651d5"},"effectiveDateTime":"2022-01-27T00:00:00+00:00","dosage":[{"doseAndRate":[{"doseQuantity":{"value":1,"unit":"TAB","system":"http://terminology.hl7.org/CodeSystem/v3-orderableDrugForm","code":"TAB"}}]}]},"request":{"method":"POST","url":"MedicationStatement"}},{"fullUrl":"MedicationStatement/1a52f40a-e07f-485d-9925-4d24ffb8ae61","resource":{"resourceType":"MedicationStatement","id":"1a52f40a-e07f-485d-9925-4d24ffb8ae61","status":"completed","medicationCodeableConcept":{"coding":[{"system":"http://www.nlm.nih.gov/research/umls/rxnorm","code":"18631"}]},"subject":{"reference":"Patient/159bfb54-a5e4-454a-83d1-2fb8a18651d5"},"effectiveDateTime":"2022-01-23T00:00:00+00:00","dosage":[{"doseAndRate":[{"doseQuantity":{"value":1,"unit":"TAB","system":"http://terminology.hl7.org/CodeSystem/v3-orderableDrugForm","code":"TAB"}}]}]},"request":{"method":"POST","url":"MedicationStatement"}},{"fullUrl":"MedicationStatement/4488b6fc-ba04-4c2a-90ee-0b2ed5260d8f","resource":{"resourceType":"MedicationStatement","id":"4488b6fc-ba04-4c2a-90ee-0b2ed5260d8f","status":"completed","medicationCodeableConcept":{"coding":[{"system":"http://www.nlm.nih.gov/research/umls/rxnorm","code":"3640"}]},"subject":{"reference":"Patient/159bfb54-a5e4-454a-83d1-2fb8a18651d5"},"effectiveDateTime":"2022-01-31T00:00:00+00:00","dosage":[{"doseAndRate":[{"doseQuantity":{"value":2,"unit":"TAB","system":"http://terminology.hl7.org/CodeSystem/v3-orderableDrugForm","code":"TAB"}}]}]},"request":{"method":"POST","url":"MedicationStatement"}},{"fullUrl":"MedicationStatement/5e48c1c2-45c8-488e-8c49-a33e2d967213","resource":{"resourceType":"MedicationStatement","id":"5e48c1c2-45c8-488e-8c49-a33e2d967213","status":"completed","medicationCodeableConcept":{"coding":[{"system":"http://www.nlm.nih.gov/research/umls/rxnorm","code":"3640"}]},"subject":{"reference":"Patient/159bfb54-a5e4-454a-83d1-2fb8a18651d5"},"effectiveDateTime":"2022-10-08T00:00:00+00:00","dosage":[{"doseAndRate":[{"doseQuantity":{"value":2,"unit":"TAB","system":"http://terminology.hl7.org/CodeSystem/v3-orderableDrugForm","code":"TAB"}}]}]},"request":{"method":"POST","url":"MedicationStatement"}},{"fullUrl":"MedicationStatement/b12145ee-31d2-4e68-869a-b0f17e05e429","resource":{"resourceType":"MedicationStatement","id":"b12145ee-31d2-4e68-869a-b0f17e05e429","status":"completed","medicationCodeableConcept":{"coding":[{"system":"http://www.nlm.nih.gov/research/umls/rxnorm","code":"2193"}]},"subject":{"reference":"Patient/159bfb54-a5e4-454a-83d1-2fb8a18651d5"},"effectiveDateTime":"2022-06-03T00:00:00+00:00","dosage":[{"doseAndRate":[{"doseQuantity":{"value":2,"unit":"TAB","system":"http://terminology.hl7.org/CodeSystem/v3-orderableDrugForm","code":"TAB"}}]}]},"request":{"method":"POST","url":"MedicationStatement"}},{"fullUrl":"MedicationStatement/e24e3d7a-4fed-4f2f-ae4c-5bf1dd4a824b","resource":{"resourceType":"MedicationStatement","id":"e24e3d7a-4fed-4f2f-ae4c-5bf1dd4a824b","status":"completed","medicationCodeableConcept":{"coding":[{"system":"http://www.nlm.nih.gov/research/umls/rxnorm","code":"2193"}]},"subject":{"reference":"Patient/159bfb54-a5e4-454a-83d1-2fb8a18651d5"},"effectiveDateTime":"2022-02-27T00:00:00+00:00","dosage":[{"doseAndRate":[{"doseQuantity":{"value":5.8,"unit":"TAB","system":"http://terminology.hl7.org/CodeSystem/v3-orderableDrugForm","code":"TAB"}}]}]},"request":{"method":"POST","url":"MedicationStatement"}},{"fullUrl":"MedicationStatement/01b7d44a-4a61-4345-9de3-47cbe97646e1","resource":{"resourceType":"MedicationStatement","id":"01b7d44a-4a61-4345-9de3-47cbe97646e1","status":"completed","medicationCodeableConcept":{"coding":[{"system":"http://www.nlm.nih.gov/research/umls/rxnorm","code":"3640"}]},"subject":{"reference":"Patient/159bfb54-a5e4-454a-83d1-2fb8a18651d5"},"effectiveDateTime":"2022-04-21T00:00:00+00:00","dosage":[{"doseAndRate":[{"doseQuantity":{"value":6.7,"unit":"TAB","system":"http://terminology.hl7.org/CodeSystem/v3-orderableDrugForm","code":"TAB"}}]}]},"request":{"method":"POST","url":"MedicationStatement"}},{"fullUrl":"MedicationStatement/87763cbf-33be-426b-a567-a60b1cb253fb","resource":{"resourceType":"MedicationStatement","id":"87763cbf-33be-426b-a567-a60b1cb253fb","status":"completed","medicationCodeableConcept":{"coding":[{"system":"http://www.nlm.nih.gov/research/umls/rxnorm","code":"10395"}]},"subject":{"reference":"Patient/159bfb54-a5e4-454a-83d1-2fb8a18651d5"},"effectiveDateTime":"2022-05-14T00:00:00+00:00","dosage":[{"doseAndRate":[{"doseQuantity":{"value":5.8,"unit":"TAB","system":"http://terminology.hl7.org/CodeSystem/v3-orderableDrugForm","code":"TAB"}}]}]},"request":{"method":"POST","url":"MedicationStatement"}},{"fullUrl":"MedicationStatement/95faecdd-ad1a-472b-bb60-ef3d7ade7964","resource":{"resourceType":"MedicationStatement","id":"95faecdd-ad1a-472b-bb60-ef3d7ade7964","status":"completed","medicationCodeableConcept":{"coding":[{"system":"http://www.nlm.nih.gov/research/umls/rxnorm","code":"18631"}]},"subject":{"reference":"Patient/159bfb54-a5e4-454a-83d1-2fb8a18651d5"},"effectiveDateTime":"2022-10-25T00:00:00+00:00","dosage":[{"doseAndRate":[{"doseQuantity":{"value":5.9,"unit":"TAB","system":"http://terminology.hl7.org/CodeSystem/v3-orderableDrugForm","code":"TAB"}}]}]},"request":{"method":"POST","url":"MedicationStatement"}},{"fullUrl":"MedicationStatement/e1513235-6b0b-4810-8e92-11ea0af9b9f1","resource":{"resourceType":"MedicationStatement","id":"e1513235-6b0b-4810-8e92-11ea0af9b9f1","status":"completed","medicationCodeableConcept":{"coding":[{"system":"http://www.nlm.nih.gov/research/umls/rxnorm","code":"3640"}]},"subject":{"reference":"Patient/159bfb54-a5e4-454a-83d1-2fb8a18651d5"},"effectiveDateTime":"2022-10-30T00:00:00+00:00","dosage":[{"doseAndRate":[{"doseQuantity":{"value":4.6,"unit":"TAB","system":"http://terminology.hl7.org/CodeSystem/v3-orderableDrugForm","code":"TAB"}}]}]},"request":{"method":"POST","url":"MedicationStatement"}},{"fullUrl":"MedicationStatement/c3303865-7e8a-42ac-ab68-74888732f1c4","resource":{"resourceType":"MedicationStatement","id":"c3303865-7e8a-42ac-ab68-74888732f1c4","status":"completed","medicationCodeableConcept":{"coding":[{"system":"http://www.nlm.nih.gov/research/umls/rxnorm","code":"18631"}]},"subject":{"reference":"Patient/159bfb54-a5e4-454a-83d1-2fb8a18651d5"},"effectiveDateTime":"2022-11-13T00:00:00+00:00","dosage":[{"doseAndRate":[{"doseQuantity":{"value":6.9,"unit":"TAB","system":"http://terminology.hl7.org/CodeSystem/v3-orderableDrugForm","code":"TAB"}}]}]},"request":{"method":"POST","url":"MedicationStatement"}},{"fullUrl":"Encounter/68849481-bff9-45d4-b199-ef65d9c5c2ff","resource":{"resourceType":"Encounter","id":"68849481-bff9-45d4-b199-ef65d9c5c2ff","status":"finished","class":{"system":"http://terminology.hl7.org/CodeSystem/v3-ActCode","code":"IMP","display":"inpatient encounter"},"type":[{"coding":[{"system":"http://terminology.hl7.org/CodeSystem/encounter-type","code":"BD/BM-clin"}]}],"subject":{"reference":"Patient/159bfb54-a5e4-454a-83d1-2fb8a18651d5"},"period":{"start":"2022-01-03T00:00:00+00:00","end":"2022-01-05T00:00:00+00:00"}},"request":{"method":"POST","url":"Encounter"}},{"fullUrl":"Encounter/9593f4e4-4457-4fe5-b789-6340a13ccb1f","resource":{"resourceType":"Encounter","id":"9593f4e4-4457-4fe5-b789-6340a13ccb1f","status":"finished","class":{"system":"http://terminology.hl7.org/CodeSystem/v3-ActCode","code":"IMP","display":"inpatient encounter"},"type":[{"coding":[{"system":"http://terminology.hl7.org/CodeSystem/encounter-type","code":"CCS60"}]}],"subject":{"reference":"Patient/159bfb54-a5e4-454a-83d1-2fb8a18651d5"},"period":{"start":"2022-07-24T00:00:00+00:00","end":"2022-07-28T00:00:00+00:00"}},"request":{"method":"POST","url":"Encounter"}},{"fullUrl":"Encounter/12b0a7c3-b809-4128-8754-a0aa737fcb07","resource":{"resourceType":"Encounter","id":"12b0a7c3-b809-4128-8754-a0aa737fcb07","status":"finished","class":{"system":"http://terminology.hl7.org/CodeSystem/v3-ActCode","code":"HH","display":"home health"},"type":[{"coding":[{"system":"http://terminology.hl7.org/CodeSystem/encounter-type","code":"OKI"}]}],"subject":{"reference":"Patient/159bfb54-a5e4-454a-83d1-2fb8a18651d5"},"period":{"start":"2022-11-01T00:00:00+00:00","end":"2022-11-02T00:00:00+00:00"}},"request":{"method":"POST","url":"Encounter"}},{"fullUrl":"Encounter/17e947cf-c6d4-4a53-acd8-4d1508981a6a","resource":{"resourceType":"Encounter","id":"17e947cf-c6d4-4a53-acd8-4d1508981a6a","status":"finished","class":{"system":"http://terminology.hl7.org/CodeSystem/v3-ActCode","code":"EMER","display":"emergency"},"type":[{"coding":[{"system":"http://terminology.hl7.org/CodeSystem/encounter-type","code":"ADMS"}]}],"subject":{"reference":"Patient/159bfb54-a5e4-454a-83d1-2fb8a18651d5"},"period":{"start":"2022-12-05T00:00:00+00:00","end":"2022-12-09T00:00:00+00:00"}},"request":{"method":"POST","url":"Encounter"}},{"fullUrl":"Encounter/77902260-24d6-4f59-bfd7-e6feed818e51","resource":{"resourceType":"Encounter","id":"77902260-24d6-4f59-bfd7-e6feed818e51","status":"finished","class":{"system":"http://terminology.hl7.org/CodeSystem/v3-ActCode","code":"SS","display":"short-stay"},"type":[{"coding":[{"system":"http://terminology.hl7.org/CodeSystem/encounter-type","code":"OKI"}]}],"subject":{"reference":"Patient/159bfb54-a5e4-454a-83d1-2fb8a18651d5"},"period":{"start":"2022-03-05T00:00:00+00:00","end":"2022-03-05T00:00:00+00:00"}},"request":{"method":"POST","url":"Encounter"}},{"fullUrl":"Patient/ed3278ce-8791-4a8b-a78a-f2c1b13b0b96","resource":{"resourceType":"Patient","id":"ed3278ce-8791-4a8b-a78a-f2c1b13b0b96","identifier":[{"type":{"coding":[{"system":"http://terminology.hl7.org/CodeSystem/v2-0203","code":"MR"}]},"system":"urn:fhirgen:mrn","value":"642-58-5242"}],"name":[{"use":"official","family":"Jimenez","given":["Alan"]},{"use":"maiden","family":"Mack"}],"telecom":[{"system":"phone","value":"+1-102-371-6349x0891","use":"work"},{"system":"email","value":"miguelparker@hotmail.com","use":"home"}],"gender":"male","birthDate":"1994-06-28","address":[{"use":"home","line":["19471 Elizabeth Row Suite 250"],"city":"Lake Nicole","state":"LA","postalCode":"03565"},{"use":"old","line":["1656 Rosario Route Apt. 453"],"city":"North Christophershire","state":"NM","postalCode":"25895"}]},"request":{"method":"POST","url":"Patient"}},{"fullUrl":"Observation/5ffcc347-31d9-44f9-b88c-e6162640ac6c","resource":{"resourceType":"Observation","id":"5ffcc347-31d9-44f9-b88c-e6162640ac6c","status":"final","code":{"coding":[{"system":"http://loinc.org","code":"31146-4"}]},"subject":{"reference":"Patient/ed3278ce-8791-4a8b-a78a-f2c1b13b0b96"},"effectiveDateTime":"2022-06-18T00:00:00+00:00","valueRatio":{"numerator":{"value":1},"denominator":{"value":32}}},"request":{"method":"POST","url":"Observation"}},{"fullUrl":"Observation/e24b74b9-8964-4ce7-bff0-14dab4d8cd58","resource":{"resourceType":"Observation","id":"e24b74b9-8964-4ce7-bff0-14dab4d8cd58","status":"final","code":{"coding":[{"system":"http://loinc.org","code":"31147-2"}]},"subject":{"reference":"Patient/ed3278ce-8791-4a8b-a78a-f2c1b13b0b96"},"effectiveDateTime":"2022-11-01T00:00:00+00:00","valueRatio":{"numerator":{"value":1},"denominator":{"value":32}}},"request":{"method":"POST","url":"Observation"}},{"fullUrl":"Observation/a1433703-0a97-46ff-a67e-4013d45cd54d","resource":{"resourceType":"Observation","id":"a1433703-0a97-46ff-a67e-4013d45cd54d","status":"final","code":{"coding":[{"system":"http://loinc.org","code":"87925-4"}]},"subject":{"reference":"Patient/ed3278ce-8791-4a8b-a78a-f2c1b13b0b96"},"effectiveDateTime":"2022-11-21T00:00:00+00:00","valueRatio":{"numerator":{"value":1},"denominator":{"value":4}}},"request":{"method":"POST","url":"Observation"}},{"fullUrl":"Condition/4d0d281b-3df5-407e-8858-e9a946d805eb","resource":{"resourceType":"Condition","id":"4d0d281b-3df5-407e-8858-e9a946d805eb","code":{"coding":[{"system":"http://snomed.info/sct","code":"21522001"}]},"subject":{"reference":"Patient/ed3278ce-8791-4a8b-a78a-f2c1b13b0b96"},"onsetDateTime":"2022-07-27T00:00:00+00:00"},"request":{"method":"POST","url":"Condition"}},{"fullUrl":"Condition/3dd48189-35eb-4ffb-86b6-b1f7b4ffd01b","resource":{"resourceType":"Condition","id":"3dd48189-35eb-4ffb-86b6-b1f7b4ffd01b","code":{"coding":[{"system":"http://snomed.info/sct","code":"709977002"}]},"subject":{"reference":"Patient/ed3278ce-8791-4a8b-a78a-f2c1b13b0b96"},"onsetDateTime":"2022-01-30T00:00:00+00:00"},"request":{"method":"POST","url":"Condition"}},{"fullUrl":"Condition/e230bc37-e75d-418f-a8ae-e38c77febc93","resource":{"resourceType":"Condition","id":"e230bc37-e75d-418f-a8ae-e38c77febc93","code":{"coding":[{"system":"http://snomed.info/sct","code":"198199009"}]},"subject":{"reference":"Patient/ed3278ce-8791-4a8b-a78a-f2c1b13b0b96"},"onsetDateTime":"2022-11-27T00:00:00+00:00"},"request":{"method":"POST","url":"Condition"}},{"fullUrl":"Condition/cdc0a66d-3466-474b-b04a-56ccf2337007","resource":{"resourceType":"Condition","id":"cdc0a66d-3466-474b-b04a-56ccf2337007","code":{"coding":[{"system":"http://snomed.info/sct","code":"405737000"}]},"subject":{"reference":"Patient/ed3278ce-8791-4a8b-a78a-f2c1b13b0b96"},"onsetDateTime":"2022-09-17T00:00:00+00:00"},"request":{"method":"POST","url":"Condition"}},{"fullUrl":"Observation/ddf8a46f-aff7-479e-a702-dba69ba8a241","resource":{"resourceType":"Observation","id":"ddf8a46f-aff7-479e-a702-dba69ba8a241","status":"final","code":{"coding":[{"system":"http://loinc.org","code":"26464-8"}]},"subject":{"reference":"Patient/ed3278ce-8791-4a8b-a78a-f2c1b13b0b96"},"effectiveDateTime":"2022-01-19T00:00:00+00:00","valueQuantity":{"value":6.8}},"request":{"method":"POST","url":"Observation"}},{"fullUrl":"Observation/2808166b-00bb-43fd-8213-0731dce5402e","resource":{"resourceType":"Observation","id":"2808166b-00bb-43fd-8213-0731dce5402e","status":"final","code":{"coding":[{"system":"http://loinc.org","code":"6690-2"}]},"subject":{"reference":"Patient/ed3278ce-8791-4a8b-a78a-f2c1b13b0b96"},"effectiveDateTime":"2022-05-21T00:00:00+00:00","valueQuantity":{"value":4.2}},"request":{"method":"POST","url":"Observation"}},{"fullUrl":"Observation/2138ff0b-0f4a-4a5f-a2c1-f4ef7831ef12","resource":{"resourceType":"Observation","id":"2138ff0b-0f4a-4a5f-a2c1-f4ef7831ef12","status":"final","code":{"coding":[{"system":"http://loinc.org","code":"49498-9"}]},"subject":{"reference":"Patient/ed3278ce-8791-4a8b-a78a-f2c1b13b0b96"},"effectiveDateTime":"2022-05-26T00:00:00+00:00"},"request":{"method":"POST","url":"Observation"}},{"fullUrl":"Observation/89e8b9e4-fb0d-4a98-b8f7-b75d539754cd","resource":{"resourceType":"Observation","id":"89e8b9e4-fb0d-4a98-b8f7-b75d539754cd","status":"final","code":{"coding":[{"system":"http://loinc.org","code":"49498-9"}]},"subject":{"reference":"Patient/ed3278ce-8791-4a8b-a78a-f2c1b13b0b96"},"effectiveDateTime":"2022-07-17T00:00:00+00:00"},"request":{"method":"POST","url":"Observation"}},{"fullUrl":"Observation/21ce7a3b-4d21-4178-bc41-bef605def957","resource":{"resourceType":"Observation","id":"21ce7a3b-4d21-4178-bc41-bef605def957","status":"final","code":{"coding":[{"system":"http://loinc.org","code":"49498-9"}]},"subject":{"reference":"Patient/ed3278ce-8791-4a8b-a78a-f2c1b13b0b96"},"effectiveDateTime":"2022-10-12T00:00:00+00:00"},"request":{"method":"POST","url":"Observation"}},{"fullUrl":"Procedure/c9abb6d7-7962-40c1-bfd8-ba1526f9ba7e","resource":{"resourceType":"Procedure","id":"c9abb6d7-7962-40c1-bfd8-ba1526f9ba7e","status":"completed","code":{"coding":[{"system":"http://snomed.info/sct","code":"189009"}]},"subject":{"reference":"Patient/ed3278ce-8791-4a8b-a78a-f2c1b13b0b96"},"performedDateTime":"2022-12-01T00:00:00+00:00"},"request":{"method":"POST","url":"Procedure"}},{"fullUrl":"Procedure/ee8c76cd-8159-4b36-8039-6f0d9cfc472c","resource":{"resourceType":"Procedure","id":"ee8c76cd-8159-4b36-8039-6f0d9cfc472c","status":"completed","code":{"coding":[{"system":"http://snomed.info/sct","code":"189009"}]},"subject":{"reference":"Patient/ed3278ce-8791-4a8b-a78a-f2c1b13b0b96"},"performedDateTime":"2022-12-22T00:00:00+00:00"},"request":{"method":"POST","url":"Procedure"}},{"fullUrl":"Procedure/beaee920-56bf-4fbe-b94c-c3295c0d9261","resource":{"resourceType":"Procedure","id":"beaee920-56bf-4fbe-b94c-c3295c0d9261","status":"completed","code":{"coding":[{"system":"http://snomed.info/sct","code":"647000"}]},"subject":{"reference":"Patient/ed3278ce-8791-4a8b-a78a-f2c1b13b0b96"},"performedDateTime":"2022-05-18T00:00:00+00:00"},"request":{"method":"POST","url":"Procedure"}},{"fullUrl":"MedicationStatement/7097cf0a-8712-4fe2-98f5-faa63b00f05b","resource":{"resourceType":"MedicationStatement","id":"7097cf0a-8712-4fe2-98f5-faa63b00f05b","status":"completed","medicationCodeableConcept":{"coding":[{"system":"http://www.nlm.nih.gov/research/umls/rxnorm","code":"2193"}]},"subject":{"reference":"Patient/ed3278ce-8791-4a8b-a78a-f2c1b13b0b96"},"effectiveDateTime":"2022-09-13T00:00:00+00:00","dosage":[{"doseAndRate":[{"doseQuantity":{"value":1,"unit":"TAB","system":"http://terminology.hl7.org/CodeSystem/v3-orderableDrugForm","code":"TAB"}}]}]},"request":{"method":"POST","url":"MedicationStatement"}},{"fullUrl":"MedicationStatement/42d9e803-4b1e-4ae4-89ac-60fcfe9bc514","resource":{"resourceType":"MedicationStatement","id":"42d9e803-4b1e-4ae4-89ac-60fcfe9bc514","status":"completed","medicationCodeableConcept":{"coding":[{"system":"http://www.nlm.nih.gov/research/umls/rxnorm","code":"8698"}]},"subject":{"reference":"Patient/ed3278ce-8791-4a8b-a78a-f2c1b13b0b96"},"effectiveDateTime":"2022-10-11T00:00:00+00:00","dosage":[{"doseAndRate":[{"doseQuantity":{"value":2,"unit":"TAB","system":"http://terminology.hl7.org/CodeSystem/v3-orderableDrugForm","code":"TAB"}}]}]},"request":{"method":"POST","url":"MedicationStatement"}},{"fullUrl":"MedicationStatement/46db76cb-348c-40ad-a148-3f02ac3eecab","resource":{"resourceType":"MedicationStatement","id":"46db76cb-348c-40ad-a148-3f02ac3eecab","status":"completed","medicationCodeableConcept":{"coding":[{"system":"http://www.nlm.nih.gov/research/umls/rxnorm","code":"10395"}]},"subject":{"reference":"Patient/ed3278ce-8791-4a8b-a78a-f2c1b13b0b96"},"effectiveDateTime":"2022-09-27T00:00:00+00:00","dosage":[{"doseAndRate":[{"doseQuantity":{"value":1,"unit":"TAB","system":"http://terminology.hl7.org/CodeSystem/v3-orderableDrugForm","code":"TAB"}}]}]},"request":{"method":"POST","url":"MedicationStatement"}},{"fullUrl":"MedicationStatement/12479b6a-8801-4072-9823-0f2b813e9c2c","resource":{"resourceType":"MedicationStatement","id":"12479b6a-8801-4072-9823-0f2b813e9c2c","status":"completed","medicationCodeableConcept":{"coding":[{"system":"http://www.nlm.nih.gov/research/umls/rxnorm","code":"10395"}]},"subject":{"reference":"Patient/ed3278ce-8791-4a8b-a78a-f2c1b13b0b96"},"effectiveDateTime":"2022-06-24T00:00:00+00:00","dosage":[{"doseAndRate":[{"doseQuantity":{"value":1,"unit":"TAB","system":"http://terminology.hl7.org/CodeSystem/v3-orderableDrugForm","code":"TAB"}}]}]},"request":{"method":"POST","url":"MedicationStatement"}},{"fullUrl":"MedicationStatement/a8e60a6d-522d-48cc-b993-713c76ac3457","resource":{"resourceType":"MedicationStatement","id":"a8e60a6d-522d-48cc-b993-713c76ac3457","status":"completed","medicationCodeableConcept":{"coding":[{"system":"http://www.nlm.nih.gov/research/umls/rxnorm","code":"7980"}]},"subject":{"reference":"Patient/ed3278ce-8791-4a8b-a78a-f2c1b13b0b96"},"effectiveDateTime":"2022-07-06T00:00:00+00:00","dosage":[{"doseAndRate":[{"doseQuantity":{"value":2,"unit":"TAB","system":"http://terminology.hl7.org/CodeSystem/v3-orderableDrugForm","code":"TAB"}}]}]},"request":{"method":"POST","url":"MedicationStatement"}},{"fullUrl":"MedicationStatement/1d400547-a965-49d6-a7d2-cc64fc9bd63b","resource":{"resourceType":"MedicationStatement","id":"1d400547-a965-49d6-a7d2-cc64fc9bd63b","status":"completed","medicationCodeableConcept":{"coding":[{"system":"http://www.nlm.nih.gov/research/umls/rxnorm","code":"2193"}]},"subject":{"reference":"Patient/ed3278ce-8791-4a8b-a78a-f2c1b13b0b96"},"effectiveDateTime":"2022-12-18T00:00:00+00:00","dosage":[{"doseAndRate":[{"doseQuantity":{"value":2,"unit":"TAB","system":"http://terminology.hl7.org/CodeSystem/v3-orderableDrugForm","code":"TAB"}}]}]},"request":{"method":"POST","url":"MedicationStatement"}},{"fullUrl":"MedicationStatement/c20ba83f-ef1d-4613-9a12-c617a8cdc6f9","resource":{"resourceType":"MedicationStatement","id":"c20ba83f-ef1d-4613-9a12-c617a8cdc6f9","status":"completed","medicationCodeableConcept":{"coding":[{"system":"http://www.nlm.nih.gov/research/umls/rxnorm","code":"18631"}]},"subject":{"reference":"Patient/ed3278ce-8791-4a8b-a78a-f2c1b13b0b96"},"effectiveDateTime":"2022-12-10T00:00:00+00:00","dosage":[{"doseAndRate":[{"doseQuantity":{"value":2,"unit":"TAB","system":"http://terminology.hl7.org/CodeSystem/v3-orderableDrugForm","code":"TAB"}}]}]},"request":{"method":"POST","url":"MedicationStatement"}},{"fullUrl":"MedicationStatement/6d3d39ec-8657-44f5-9cf4-a376861fb0de","resource":{"resourceType":"MedicationStatement","id":"6d3d39ec-8657-44f5-9cf4-a376861fb0de","status":"completed","medicationCodeableConcept":{"coding":[{"system":"http://www.nlm.nih.gov/research/umls/rxnorm","code":"18631"}]},"subject":{"reference":"Patient/ed3278ce-8791-4a8b-a78a-f2c1b13b0b96"},"effectiveDateTime":"2022-11-15T00:00:00+00:00","dosage":[{"doseAndRate":[{"doseQuantity":{"value":1,"unit":"TAB","system":"http://terminology.hl7.org/CodeSystem/v3-orderableDrugForm","code":"TAB"}}]}]},"request":{"method":"POST","url":"MedicationStatement"}},{"fullUrl":"MedicationStatement/eafe0a4a-a51f-4a89-9e3f-89943e29e2e7","resource":{"resourceType":"MedicationStatement","id":"eafe0a4a-a51f-4a89-9e3f-89943e29e2e7","status":"completed","medicationCodeableConcept":{"coding":[{"system":"http://www.nlm.nih.gov/research/umls/rxnorm","code":"2193"}]},"subject":{"reference":"Patient/ed3278ce-8791-4a8b-a78a-f2c1b13b0b96"},"effectiveDateTime":"2022-02-09T00:00:00+00:00","dosage":[{"doseAndRate":[{"doseQuantity":{"value":4.2,"unit":"TAB","system":"http://terminology.hl7.org/CodeSystem/v3-orderableDrugForm","code":"TAB"}}]}]},"request":{"method":"POST","url":"MedicationStatement"}},{"fullUrl":"MedicationStatement/8ad803b1-46a0-4c20-8b65-c1156b10e7b6","resource":{"resourceType":"MedicationStatement","id":"8ad803b1-46a0-4c20-8b65-c1156b10e7b6","status":"completed","medicationCodeableConcept":{"coding":[{"system":"http://www.nlm.nih.gov/research/umls/rxnorm","code":"18631"}]},"subject":{"reference":"Patient/ed3278ce-8791-4a8b-a78a-f2c1b13b0b96"},"effectiveDateTime":"2022-09-26T00:00:00+00:00","dosage":[{"doseAndRate":[{"doseQuantity":{"value":4.9,"unit":"TAB","system":"http://terminology.hl7.org/CodeSystem/v3-orderableDrugForm","code":"TAB"}}]}]},"request":{"method":"POST","url":"MedicationStatement"}},{"fullUrl":"MedicationStatement/979a5e5d-fb2c-430d-92d6-caa51a01134f","resource":{"resourceType":"MedicationStatement","id":"979a5e5d-fb2c-430d-92d6-caa51a01134f","status":"completed","medicationCodeableConcept":{"coding":[{"system":"http://www.nlm.nih.gov/research/umls/rxnorm","code":"3640"}]},"subject":{"reference":"Patient/ed3278ce-8791-4a8b-a78a-f2c1b13b0b96"},"effectiveDateTime":"2022-08-27T00:00:00+00:00","dosage":[{"doseAndRate":[{"doseQuantity":{"value":4.3,"unit":"TAB","system":"http://terminology.hl7.org/CodeSystem/v3-orderableDrugForm","code":"TAB"}}]}]},"request":{"method":"POST","url":"MedicationStatement"}},{"fullUrl":"MedicationStatement/9362ea63-0a22-480a-9a21-00edbba0a933","resource":{"resourceType":"MedicationStatement","id":"9362ea63-0a22-480a-9a21-00edbba0a933","status":"completed","medicationCodeableConcept":{"coding":[{"system":"http://www.nlm.nih.gov/research/umls/rxnorm","code":"3640"}]},"subject":{"reference":"Patient/ed3278ce-8791-4a8b-a78a-f2c1b13b0b96"},"effectiveDateTime":"2022-10-03T00:00:00+00:00","dosage":[{"doseAndRate":[{"doseQuantity":{"value":3.8,"unit":"TAB","system":"http://terminology.hl7.org/CodeSystem/v3-orderableDrugForm","code":"TAB"}}]}]},"request":{"method":"POST","url":"MedicationStatement"}},{"fullUrl":"MedicationStatement/c3532e38-8751-43c7-9a03-230864b09bb0","resource":{"resourceType":"MedicationStatement","id":"c3532e38-8751-43c7-9a03-230864b09bb0","status":"completed","medicationCodeableConcept":{"coding":[{"system":"http://www.nlm.nih.gov/research/umls/rxnorm","code":"2193"}]},"subject":{"reference":"Patient/ed3278ce-8791-4a8b-a78a-f2c1b13b0b96"},"effectiveDateTime":"2022-02-11T00:00:00+00:00","dosage":[{"doseAndRate":[{"doseQuantity":{"value":3.6,"unit":"TAB","system":"http://terminology.hl7.org/CodeSystem/v3-orderableDrugForm","code":"TAB"}}]}]},"request":{"method":"POST","url":"MedicationStatement"}},{"fullUrl":"MedicationStatement/de05baa8-f3c1-4e82-a688-92d8307774dd","resource":{"resourceType":"MedicationStatement","id":"de05baa8-f3c1-4e82-a688-92d8307774dd","status":"completed","medicationCodeableConcept":{"coding":[{"system":"http://www.nlm.nih.gov/research/umls/rxnorm","code":"3640"}]},"subject":{"reference":"Patient/ed3278ce-8791-4a8b-a78a-f2c1b13b0b96"},"effectiveDateTime":"2022-12-07T00:00:00+00:00","dosage":[{"doseAndRate":[{"doseQuantity":{"value":4.6,"unit":"TAB","system":"http://terminology.hl7.org/CodeSystem/v3-orderableDrugForm","code":"TAB"}}]}]},"request":{"method":"POST","url":"MedicationStatement"}},{"fullUrl":"MedicationStatement/ff1e4dbf-395d-4fcf-84bc-23e3d30e8d15","resource":{"resourceType":"MedicationStatement","id":"ff1e4dbf-395d-4fcf-84bc-23e3d30e8d15","status":"completed","medicationCodeableConcept":{"coding":[{"system":"http://www.nlm.nih.gov/research/umls/rxnorm","code":"8698"}]},"subject":{"reference":"Patient/ed3278ce-8791-4a8b-a78a-f2c1b13b0b96"},"effectiveDateTime":"2022-01-22T00:00:00+00:00","dosage":[{"doseAndRate":[{"doseQuantity":{"value":5.3,"unit":"TAB","system":"http://terminology.hl7.org/CodeSystem/v3-orderableDrugForm","code":"TAB"}}]}]},"request":{"method":"POST","url":"MedicationStatement"}},{"fullUrl":"Encounter/da81b13a-42be-48c3-9842-c9822fe5af22","resource":{"resourceType":"Encounter","id":"da81b13a-42be-48c3-9842-c9822fe5af22","status":"finished","class":{"system":"http://terminology.hl7.org/CodeSystem/v3-ActCode","code":"IMP","display":"inpatient encounter"},"type":[{"coding":[{"system":"http://terminology.hl7.org/CodeSystem/encounter-type","code":"OKI"}]}],"subject":{"reference":"Patient/ed3278ce-8791-4a8b-a78a-f2c1b13b0b96"},"period":{"start":"2022-01-03T00:00:00+00:00","end":"2022-01-10T00:00:00+00:00"}},"request":{"method":"POST","url":"Encounter"}},{"fullUrl":"Encounter/3bfccf83-0ce1-4b30-80ad-d5a7b34c38e3","resource":{"resourceType":"Encounter","id":"3bfccf83-0ce1-4b30-80ad-d5a7b34c38e3","status":"finished","class":{"system":"http://terminology.hl7.org/CodeSystem/v3-ActCode","code":"IMP","display":"inpatient encounter"},"type":[{"coding":[{"system":"http://terminology.hl7.org/CodeSystem/encounter-type","code":"ADMS"}]}],"subject":{"reference":"Patient/ed3278ce-8791-4a8b-a78a-f2c1b13b0b96"},"period":{"start":"2022-06-12T00:00:00+00:00","end":"2022-06-16T00:00:00+00:00"}},"request":{"method":"POST","url":"Encounter"}},{"fullUrl":"Encounter/4edc32e3-1731-451f-82f5-90b94fbbf278","resource":{"resourceType":"Encounter","id":"4edc32e3-1731-451f-82f5-90b94fbbf278","status":"finished","class":{"system":"http://terminology.hl7.org/CodeSystem/v3-ActCode","code":"IMP","display":"inpatient encounter"},"type":[{"coding":[{"system":"http://terminology.hl7.org/CodeSystem/encounter-type","code":"BD/BM-clin"}]}],"subject":{"reference":"Patient/ed3278ce-8791-4a8b-a78a-f2c1b13b0b96"},"period":{"start":"2022-10-02T00:00:00+00:00","end":"2022-10-03T00:00:00+00:00"}},"request":{"method":"POST","url":"Encounter"}},{"fullUrl":"Encounter/ae6b5e1b-6d6a-4ee0-8f1a-9c684947d467","resource":{"resourceType":"Encounter","id":"ae6b5e1b-6d6a-4ee0-8f1a-9c684947d467","status":"finished","class":{"system":"http://terminology.hl7.org/CodeSystem/v3-ActCode","code":"PRENC","display":"pre-admission"},"type":[{"coding":[{"system":"http://terminology.hl7.org/CodeSystem/encounter-type","code":"ADMS"}]}],"subject":{"reference":"Patient/ed3278ce-8791-4a8b-a78a-f2c1b13b0b96"},"period":{"start":"2022-12-17T00:00:00+00:00","end":"2022-12-19T00:00:00+00:00"}},"request":{"method":"POST","url":"Encounter"}},{"fullUrl":"Encounter/7c79a2bd-030c-4016-8bbe-b1f059341764","resource":{"resourceType":"Encounter","id":"7c79a2bd-030c-4016-8bbe-b1f059341764","status":"finished","class":{"system":"http://terminology.hl7.org/CodeSystem/v3-ActCode","code":"ACUTE","display":"inpatient acute"},"type":[{"coding":[{"system":"http://terminology.hl7.org/CodeSystem/encounter-type","code":"OKI"}]}],"subject":{"reference":"Patient/ed3278ce-8791-4a8b-a78a-f2c1b13b0b96"},"period":{"start":"2022-02-05T00:00:00+00:00","end":"2022-02-07T00:00:00+00:00"}},"request":{"method":"POST","url":"Encounter"}},{"fullUrl":"Patient/de5b54a5-daea-4586-84b5-9de3bceb8235","resource":{"resourceType":"Patient","id":"de5b54a5-daea-4586-84b5-9de3bceb8235","identifier":[{"type":{"coding":[{"system":"http://terminology.hl7.org/CodeSystem/v2-0203","code":"MR"}]},"system":"urn:fhirgen:mrn","value":"655-85-1233"}],"name":[{"use":"official","family":"Wilson","given":["Amanda"]},{"use":"maiden","family":"Stevens"}],"telecom":[{"system":"phone","value":"836-023-6688x666","use":"home"},{"system":"email","value":"victorianixon@yahoo.com","use":"home"}],"gender":"female","birthDate":"1972-08-03","address":[{"use":"home","line":["588 Johnson Haven Suite 704"],"city":"East Robert","state":"OK","postalCode":"22354"},{"use":"old","line":["661 Bryan Extensions Suite 376"],"city":"Hardinmouth","state":"ID","postalCode":"79105"}]},"request":{"method":"POST","url":"Patient"}},{"fullUrl":"Observation/389f1db8-72c2-43ef-8074-4694bcd306dc","resource":{"resourceType":"Observation","id":"389f1db8-72c2-43ef-8074-4694bcd306dc","status":"final","code":{"coding":[{"system":"http://loinc.org","code":"87925-4"}]},"subject":{"reference":"Patient/de5b54a5-daea-4586-84b5-9de3bceb8235"},"effectiveDateTime":"2022-09-20T00:00:00+00:00","valueRatio":{"numerator":{"value":1},"denominator":{"value":4}}},"request":{"method":"POST","url":"Observation"}},{"fullUrl":"Observation/dbb16239-3f48-447b-af4b-c333f3b21c69","resource":{"resourceType":"Observation","id":"dbb16239-3f48-447b-af4b-c333f3b21c69","status":"final","code":{"coding":[{"system":"http://loinc.org","code":"11084-1"}]},"subject":{"reference":"Patient/de5b54a5-daea-4586-84b5-9de3bceb8235"},"effectiveDateTime":"2022-12-28T00:00:00+00:00","valueRatio":{"numerator":{"value":1},"denominator":{"value":4}}},"request":{"method":"POST","url":"Observation"}},{"fullUrl":"Condition/53b18962-d9d5-47bd-b451-3cf86f804644","resource":{"resourceType":"Condition","id":"53b18962-d9d5-47bd-b451-3cf86f804644","code":{"coding":[{"system":"http://snomed.info/sct","code":"418290006"}]},"subject":{"reference":"Patient/de5b54a5-daea-4586-84b5-9de3bceb8235"},"onsetDateTime":"2022-03-16T00:00:00+00:00"},"request":{"method":"POST","url":"Condition"}},{"fullUrl":"Condition/d95166c0-c952-4447-97d6-311cd610de29","resource":{"resourceType":"Condition","id":"d95166c0-c952-4447-97d6-311cd610de29","code":{"coding":[{"system":"http://snomed.info/sct","code":"198199009"}]},"subject":{"reference":"Patient/de5b54a5-daea-4586-84b5-9de3bceb8235"},"onsetDateTime":"2022-12-07T00:00:00+00:00"},"request":{"method":"POST","url":"Condition"}},{"fullUrl":"Condition/4ab8ac06-e446-4e9f-91a4-050fb395b4d3","resource":{"resourceType":"Condition","id":"4ab8ac06-e446-4e9f-91a4-050fb395b4d3","code":{"coding":[{"system":"http://snomed.info/sct","code":"271807003"}]},"subject":{"reference":"Patient/de5b54a5-daea-4586-84b5-9de3bceb8235"},"onsetDateTime":"2022-01-22T00:00:00+00:00"},"request":{"method":"POST","url":"Condition"}},{"fullUrl":"Condition/e3e9918f-f5c0-4d3e-9122-dd49a9b4ad4d","resource":{"resourceType":"Condition","id":"e3e9918f-f5c0-4d3e-9122-dd49a9b4ad4d","code":{"coding":[{"system":"http://snomed.info/sct","code":"30746006"}]},"subject":{"reference":"Patient/de5b54a5-daea-4586-84b5-9de3bceb8235"},"onsetDateTime":"2022-05-23T00:00:00+00:00"},"request":{"method":"POST","url":"Condition"}},{"fullUrl":"Condition/5b66f426-ef99-4bf2-9068-65aeb60f45ba","resource":{"resourceType":"Condition","id":"5b66f426-ef99-4bf2-9068-65aeb60f45ba","code":{"coding":[{"system":"http://snomed.info/sct","code":"248980004"}]},"subject":{"reference":"Patient/de5b54a5-daea-4586-84b5-9de3bceb8235"},"onsetDateTime":"2022-06-03T00:00:00+00:00"},"request":{"method":"POST","url":"Condition"}},{"fullUrl":"Condition/cc28a9c5-69f8-4ac0-abbf-e8e77dbedb50","resource":{"resourceType":"Condition","id":"cc28a9c5-69f8-4ac0-abbf-e8e77dbedb50","code":{"coding":[{"system":"http://snomed.info/sct","code":"271807003"}]},"subject":{"reference":"Patient/de5b54a5-daea-4586-84b5-9de3bceb8235"},"onsetDateTime":"2022-09-11T00:00:00+00:00"},"request":{"method":"POST","url":"Condition"}},{"fullUrl":"Observation/8d59f2d9-b35b-4e35-b736-7774ee0441a3","resource":{"resourceType":"Observation","id":"8d59f2d9-b35b-4e35-b736-7774ee0441a3","status":"final","code":{"coding":[{"system":"http://loinc.org","code":"49498-9"}]},"subject":{"reference":"Patient/de5b54a5-daea-4586-84b5-9de3bceb8235"},"effectiveDateTime":"2022-12-26T00:00:00+00:00","valueQuantity":{"value":10.5}},"request":{"method":"POST","url":"Observation"}},{"fullUrl":"Observation/a1f5d1f0-0793-4cb0-9ea2-2fe5e10daa97","resource":{"resourceType":"Observation","id":"a1f5d1f0-0793-4cb0-9ea2-2fe5e10daa97","status":"final","code":{"coding":[{"system":"http://www.ama-assn.org/go/cpt","code":"85048"}]},"subject":{"reference":"Patient/de5b54a5-daea-4586-84b5-9de3bceb8235"},"effectiveDateTime":"2022-11-05T00:00:00+00:00","valueQuantity":{"value":6.3}},"request":{"method":"POST","url":"Observation"}},{"fullUrl":"Observation/a378f2b7-318e-4d2f-9604-78275ddcc913","resource":{"resourceType":"Observation","id":"a378f2b7-318e-4d2f-9604-78275ddcc913","status":"final","code":{"coding":[{"system":"http://loinc.org","code":"804-5"}]},"subject":{"reference":"Patient/de5b54a5-daea-4586-84b5-9de3bceb8235"},"effectiveDateTime":"2022-04-13T00:00:00+00:00","valueQuantity":{"value":4.5}},"request":{"method":"POST","url":"Observation"}},{"fullUrl":"Observation/8db46be3-fc60-42da-9d89-e7d3828227b1","resource":{"resourceType":"Observation","id":"8db46be3-fc60-42da-9d89-e7d3828227b1","status":"final","code":{"coding":[{"system":"http://loinc.org","code":"49498-9"}]},"subject":{"reference":"Patient/de5b54a5-daea-4586-84b5-9de3bceb8235"},"effectiveDateTime":"2022-09-07T00:00:00+00:00"},"request":{"method":"POST","url":"Observation"}},{"fullUrl":"Observation/1f800258-3f41-4d00-b54b-15b659b6f2ef","resource":{"resourceType":"Observation","id":"1f800258-3f41-4d00-b54b-15b659b6f2ef","status":"final","code":{"coding":[{"system":"http://loinc.org","code":"49498-9"}]},"subject":{"reference":"Patient/de5b54a5-daea-4586-84b5-9de3bceb8235"},"effectiveDateTime":"2022-06-12T00:00:00+00:00"},"request":{"method":"POST","url":"Observation"}},{"fullUrl":"Observation/bd804813-efb0-49b7-853e-43a066103a83","resource":{"resourceType":"Observation","id":"bd804813-efb0-49b7-853e-43a066103a83","status":"final","code":{"coding":[{"system":"http://loinc.org","code":"49498-9"}]},"subject":{"reference":"Patient/de5b54a5-daea-4586-84b5-9de3bceb8235"},"effectiveDateTime":"2022-01-02T00:00:00+00:00"},"request":{"method":"POST","url":"Observation"}},{"fullUrl":"Procedure/146fcd0f-a529-44f7-80c6-ebd5bf388c1e","resource":{"resourceType":"Procedure","id":"146fcd0f-a529-44f7-80c6-ebd5bf388c1e","status":"completed","code":{"coding":[{"system":"http://snomed.info/sct","code":"647000"}]},"subject":{"reference":"Patient/de5b54a5-daea-4586-84b5-9de3bceb8235"},"performedDateTime":"2022-10-19T00:00:00+00:00"},"request":{"method":"POST","url":"Procedure"}},{"fullUrl":"Procedure/2a5aa1fc-2cbb-4186-b8ce-6db1b730799c","resource":{"resourceType":"Procedure","id":"2a5aa1fc-2cbb-4186-b8ce-6db1b730799c","status":"completed","code":{"coding":[{"system":"http://snomed.info/sct","code":"104001"}]},"subject":{"reference":"Patient/de5b54a5-daea-4586-84b5-9de3bceb8235"},"performedDateTime":"2022-12-09T00:00:00+00:00"},"request":{"method":"POST","url":"Procedure"}},{"fullUrl":"Procedure/ca618587-236b-4304-80ee-78be1d6ce09a","resource":{"resourceType":"Procedure","id":"ca618587-236b-4304-80ee-78be1d6ce09a","status":"completed","code":{"coding":[{"system":"http://snomed.info/sct","code":"146005"}]},"subject":{"reference":"Patient/de5b54a5-daea-4586-84b5-9de3bceb8235"},"performedDateTime":"2022-05-03T00:00:00+00:00"},"request":{"method":"POST","url":"Procedure"}},{"fullUrl":"MedicationStatement/1768b2d9-4305-4882-9a95-46d1b21e42b2","resource":{"resourceType":"MedicationStatement","id":"1768b2d9-4305-4882-9a95-46d1b21e42b2","status":"completed","medicationCodeableConcept":{"coding":[{"system":"http://www.nlm.nih.gov/research/umls/rxnorm","code":"8698"}]},"subject":{"reference":"Patient/de5b54a5-daea-4586-84b5-9de3bceb8235"},"effectiveDateTime":"2022-09-12T00:00:00+00:00","dosage":[{"doseAndRate":[{"doseQuantity":{"value":1,"unit":"TAB","system":"http://terminology.hl7.org/CodeSystem/v3-orderableDrugForm","code":"TAB"}}]}]},"request":{"method":"POST","url":"MedicationStatement"}},{"fullUrl":"MedicationStatement/93b27c05-09d3-447c-a704-0934e0ac99a5","resource":{"resourceType":"MedicationStatement","id":"93b27c05-09d3-447c-a704-0934e0ac99a5","status":"completed","medicationCodeableConcept":{"coding":[{"system":"http://www.nlm.nih.gov/research/umls/rxnorm","code":"10395"}]},"subject":{"reference":"Patient/de5b54a5-daea-4586-84b5-9de3bceb8235"},"effectiveDateTime":"2022-07-24T00:00:00+00:00","dosage":[{"doseAndRate":[{"doseQuantity":{"value":1,"unit":"TAB","system":"http://terminology.hl7.org/CodeSystem/v3-orderableDrugForm","code":"TAB"}}]}]},"request":{"method":"POST","url":"MedicationStatement"}},{"fullUrl":"MedicationStatement/f4f35c2a-762f-407a-b9de-6366c06ed05c","resource":{"resourceType":"MedicationStatement","id":"f4f35c2a-762f-407a-b9de-6366c06ed05c","status":"completed","medicationCodeableConcept":{"coding":[{"system":"http://www.nlm.nih.gov/research/umls/rxnorm","code":"7980"}]},"subject":{"reference":"Patient/de5b54a5-daea-4586-84b5-9de3bceb8235"},"effectiveDateTime":"2022-01-13T00:00:00+00:00","dosage":[{"doseAndRate":[{"doseQuantity":{"value":2,"unit":"TAB","system":"http://terminology.hl7.org/CodeSystem/v3-orderableDrugForm","code":"TAB"}}]}]},"request":{"method":"POST","url":"MedicationStatement"}},{"fullUrl":"MedicationStatement/f6bcddf9-5a89-47b9-b6cb-be8cb58f0ecd","resource":{"resourceType":"MedicationStatement","id":"f6bcddf9-5a89-47b9-b6cb-be8cb58f0ecd","status":"completed","medicationCodeableConcept":{"coding":[{"system":"http://www.nlm.nih.gov/research/umls/rxnorm","code":"7980"}]},"subject":{"reference":"Patient/de5b54a5-daea-4586-84b5-9de3bceb8235"},"effectiveDateTime":"2022-12-02T00:00:00+00:00","dosage":[{"doseAndRate":[{"doseQuantity":{"value":2,"unit":"TAB","system":"http://terminology.hl7.org/CodeSystem/v3-orderableDrugForm","code":"TAB"}}]}]},"request":{"method":"POST","url":"MedicationStatement"}},{"fullUrl":"MedicationStatement/802d6d1f-5a1a-473e-83fc-1471573e0ee8","resource":{"resourceType":"MedicationStatement","id":"802d6d1f-5a1a-473e-83fc-1471573e0ee8","status":"completed","medicationCodeableConcept":{"coding":[{"system":"http://www.nlm.nih.gov/research/umls/rxnorm","code":"7984"}]},"subject":{"reference":"Patient/de5b54a5-daea-4586-84b5-9de3bceb8235"},"effectiveDateTime":"2022-02-08T00:00:00+00:00","dosage":[{"doseAndRate":[{"doseQuantity":{"value":3.2,"unit":"TAB","system":"http://terminology.hl7.org/CodeSystem/v3-orderableDrugForm","code":"TAB"}}]}]},"request":{"method":"POST","url":"MedicationStatement"}},{"fullUrl":"MedicationStatement/d4276a7b-6272-4782-ba8b-5ce8c8e2a3d1","resource":{"resourceType":"MedicationStatement","id":"d4276a7b-6272-4782-ba8b-5ce8c8e2a3d1","status":"completed","medicationCodeableConcept":{"coding":[{"system":"http://www.nlm.nih.gov/research/umls/rxnorm","code":"10395"}]},"subject":{"reference":"Patient/de5b54a5-daea-4586-84b5-9de3bceb8235"},"effectiveDateTime":"2022-04-21T00:00:00+00:00","dosage":[{"doseAndRate":[{"doseQuantity":{"value":5.4,"unit":"TAB","system":"http://terminology.hl7.org/CodeSystem/v3-orderableDrugForm","code":"TAB"}}]}]},"request":{"method":"POST","url":"MedicationStatement"}},{"fullUrl":"MedicationStatement/5f2430e5-de5e-4210-9f44-24b49d7047da","resource":{"resourceType":"MedicationStatement","id":"5f2430e5-de5e-4210-9f44-24b49d7047da","status":"completed","medicationCodeableConcept":{"coding":[{"system":"http://www.nlm.nih.gov/research/umls/rxnorm","code":"3640"}]},"subject":{"reference":"Patient/de5b54a5-daea-4586-84b5-9de3bceb8235"},"effectiveDateTime":"2022-06-23T00:00:00+00:00","dosage":[{"doseAndRate":[{"doseQuantity":{"value":6.2,"unit":"TAB","system":"http://terminology.hl7.org/CodeSystem/v3-orderableDrugForm","code":"TAB"}}]}]},"request":{"method":"POST","url":"MedicationStatement"}},{"fullUrl":"MedicationStatement/ff2f8c58-acde-40c6-8725-cfae16a85b0c","resource":{"resourceType":"MedicationStatement","id":"ff2f8c58-acde-40c6-8725-cfae16a85b0c","status":"completed","medicationCodeableConcept":{"coding":[{"system":"http://www.nlm.nih.gov/research/umls/rxnorm","code":"3640"}]},"subject":{"reference":"Patient/de5b54a5-daea-4586-84b5-9de3bceb8235"},"effectiveDateTime":"2022-12-22T00:00:00+00:00","dosage":[{"doseAndRate":[{"doseQuantity":{"value":7,"unit":"TAB","system":"http://terminology.hl7.org/CodeSystem/v3-orderableDrugForm","code":"TAB"}}]}]},"request":{"method":"POST","url":"MedicationStatement"}},{"fullUrl":"Encounter/02108049-77ef-46dd-a178-67312b5a1b40","resource":{"resourceType":"Encounter","id":"02108049-77ef-46dd-a178-67312b5a1b40","status":"finished","class":{"system":"http://terminology.hl7.org/CodeSystem/v3-ActCode","code":"IMP","display":"inpatient encounter"},"type":[{"coding":[{"system":"http://terminology.hl7.org/CodeSystem/encounter-type","code":"ADMS"}]}],"subject":{"reference":"Patient/de5b54a5-daea-4586-84b5-9de3bceb8235"},"period":{"start":"2022-12-02T00:00:00+00:00","end":"2022-12-09T00:00:00+00:00"}},"request":{"method":"POST","url":"Encounter"}},{"fullUrl":"Encounter/c6d9c7e3-b549-459f-9537-88a68bfa4301","resource":{"resourceType":"Encounter","id":"c6d9c7e3-b549-459f-9537-88a68bfa4301","status":"finished","class":{"system":"http://terminology.hl7.org/CodeSystem/v3-ActCode","code":"IMP","display":"inpatient encounter"},"type":[{"coding":[{"system":"http://terminology.hl7.org/CodeSystem/encounter-type","code":"CCS60"}]}],"subject":{"reference":"Patient/de5b54a5-daea-4586-84b5-9de3bceb8235"},"period":{"start":"2022-01-25T00:00:00+00:00","end":"2022-01-27T00:00:00+00:00"}},"request":{"method":"POST","url":"Encounter"}},{"fullUrl":"Encounter/1ee587c0-0035-4e1b-bc1b-be3085cc5be0","resource":{"resourceType":"Encounter","id":"1ee587c0-0035-4e1b-bc1b-be3085cc5be0","status":"finished","class":{"system":"http://terminology.hl7.org/CodeSystem/v3-ActCode","code":"IMP","display":"inpatient encounter"},"type":[{"coding":[{"system":"http://terminology.hl7.org/CodeSystem/encounter-type","code":"BD/BM-clin"}]}],"subject":{"reference":"Patient/de5b54a5-daea-4586-84b5-9de3bceb8235"},"period":{"start":"2022-09-10T00:00:00+00:00","end":"2022-09-17T00:00:00+00:00"}},"request":{"method":"POST","url":"Encounter"}},{"fullUrl":"Encounter/0acec813-8b7d-4f3d-9209-e7f411afa95c","resource":{"resourceType":"Encounter","id":"0acec813-8b7d-4f3d-9209-e7f411afa95c","status":"finished","class":{"system":"http://terminology.hl7.org/CodeSystem/v3-ActCode","code":"IMP","display":"inpatient encounter"},"type":[{"coding":[{"system":"http://terminology.hl7.org/CodeSystem/encounter-type","code":"OKI"}]}],"subject":{"reference":"Patient/de5b54a5-daea-4586-84b5-9de3bceb8235"},"period":{"start":"2022-07-15T00:00:00+00:00","end":"2022-07-19T00:00:00+00:00"}},"request":{"method":"POST","url":"Encounter"}},{"fullUrl":"Encounter/743871eb-42f3-4e4e-98e0-c025d027c652","resource":{"resourceType":"Encounter","id":"743871eb-42f3-4e4e-98e0-c025d027c652","status":"finished","class":{"system":"http://terminology.hl7.org/CodeSystem/v3-ActCode","code":"FLD","display":"field"},"type":[{"coding":[{"system":"http://terminology.hl7.org/CodeSystem/encounter-type","code":"BD/BM-clin"}]}],"subject":{"reference":"Patient/de5b54a5-daea-4586-84b5-9de3bceb8235"},"period":{"start":"2022-02-23T00:00:00+00:00","end":"2022-02-26T00:00:00+00:00"}},"request":{"method":"POST","url":"Encounter"}},{"fullUrl":"Patient/526138ad-1d67-4049-ad00-41f077af3a5e","resource":{"resourceType":"Patient","id":"526138ad-1d67-4049-ad00-41f077af3a5e","identifier":[{"type":{"coding":[{"system":"http://terminology.hl7.org/CodeSystem/v2-0203","code":"MR"}]},"system":"urn:fhirgen:mrn","value":"240-28-8366"}],"name":[{"use":"official","family":"Christian","given":["Cynthia"]},{"use":"maiden","family":"Smith"}],"telecom":[{"system":"phone","value":"+1-628-123-9659","use":"mobile"},{"system":"email","value":"williamsjulia@yahoo.com","use":"work"}],"gender":"female","birthDate":"1982-08-24","address":[{"use":"home","line":["16439 Torres Lodge"],"city":"Curtisshire","state":"UT","postalCode":"58913"},{"use":"old","line":["68421 Dominguez Well Apt. 052"],"city":"Alvarezburgh","state":"PA","postalCode":"82945"}]},"request":{"method":"POST","url":"Patient"}},{"fullUrl":"Observation/3172e7ca-58c0-4c2d-a89b-b4712962400b","resource":{"resourceType":"Observation","id":"3172e7ca-58c0-4c2d-a89b-b4712962400b","status":"final","code":{"coding":[{"system":"http://loinc.org","code":"47235-7"}]},"subject":{"reference":"Patient/526138ad-1d67-4049-ad00-41f077af3a5e"},"effectiveDateTime":"2022-07-30T00:00:00+00:00","valueRatio":{"numerator":{"value":1},"denominator":{"value":4}}},"request":{"method":"POST","url":"Observation"}},{"fullUrl":"Observation/fbad760f-332b-4144-b571-e3f4be6d2736","resource":{"resourceType":"Observation","id":"fbad760f-332b-4144-b571-e3f4be6d2736","status":"final","code":{"coding":[{"system":"http://loinc.org","code":"50695-6"}]},"subject":{"reference":"Patient/526138ad-1d67-4049-ad00-41f077af3a5e"},"effectiveDateTime":"2022-05-21T00:00:00+00:00","valueRatio":{"numerator":{"value":1},"denominator":{"value":4}}},"request":{"method":"POST","url":"Observation"}},{"fullUrl":"Condition/dceae9b1-afa9-409b-b666-9d5c2106df50","resource":{"resourceType":"Condition","id":"dceae9b1-afa9-409b-b666-9d5c2106df50","code":{"coding":[{"system":"http://snomed.info/sct","code":"271807003"}]},"subject":{"reference":"Patient/526138ad-1d67-4049-ad00-41f077af3a5e"},"onsetDateTime":"2022-09-10T00:00:00+00:00"},"request":{"method":"POST","url":"Condition"}},{"fullUrl":"Condition/19d6ebec-1c2c-452d-90c2-f15488f55511","resource":{"resourceType":"Condition","id":"19d6ebec-1c2c-452d-90c2-f15488f55511","code":{"coding":[{"system":"http://snomed.info/sct","code":"198199009"}]},"subject":{"reference":"Patient/526138ad-1d67-4049-ad00-41f077af3a5e"},"onsetDateTime":"2022-04-12T00:00:00+00:00"},"request":{"method":"POST","url":"Condition"}},{"fullUrl":"Condition/c5efc9a1-98dc-4bef-8fa9-5de83eabfcb4","resource":{"resourceType":"Condition","id":"c5efc9a1-98dc-4bef-8fa9-5de83eabfcb4","code":{"coding":[{"system":"http://snomed.info/sct","code":"21522001"}]},"subject":{"reference":"Patient/526138ad-1d67-4049-ad00-41f077af3a5e"},"onsetDateTime":"2022-02-04T00:00:00+00:00"},"request":{"method":"POST","url":"Condition"}},{"fullUrl":"Observation/ef61a658-f609-432a-a69d-7cbd885b70a8","resource":{"resourceType":"Observation","id":"ef61a658-f609-432a-a69d-7cbd885b70a8","status":"final","code":{"coding":[{"system":"http://loinc.org","code":"6690-2"}]},"subject":{"reference":"Patient/526138ad-1d67-4049-ad00-41f077af3a5e"},"effectiveDateTime":"2022-04-03T00:00:00+00:00","valueQuantity":{"value":6.5}},"request":{"method":"POST","url":"Observation"}},{"fullUrl":"Observation/f3e9648f-e44b-482c-ac4d-fa391d5edbc7","resource":{"resourceType":"Observation","id":"f3e9648f-e44b-482c-ac4d-fa391d5edbc7","status":"final","code":{"coding":[{"system":"http://loinc.org","code":"49498-9"}]},"subject":{"reference":"Patient/526138ad-1d67-4049-ad00-41f077af3a5e"},"effectiveDateTime":"2022-12-30T00:00:00+00:00","valueQuantity":{"value":7.6}},"request":{"method":"POST","url":"Observation"}},{"fullUrl":"Observation/e5e60300-3abc-47b1-be3e-761619f3b52f","resource":{"resourceType":"Observation","id":"e5e60300-3abc-47b1-be3e-761619f3b52f","status":"final","code":{"coding":[{"system":"http://www.ama-assn.org/go/cpt","code":"85048"}]},"subject":{"reference":"Patient/526138ad-1d67-4049-ad00-41f077af3a5e"},"effectiveDateTime":"2022-04-12T00:00:00+00:00","valueQuantity":{"value":9}},"request":{"method":"POST","url":"Observation"}},{"fullUrl":"Observation/4a6ae832-6f56-4238-932b-ca72c6823216","resource":{"resourceType":"Observation","id":"4a6ae832-6f56-4238-932b-ca72c6823216","status":"final","code":{"coding":[{"system":"http://loinc.org","code":"49498-9"}]},"subject":{"reference":"Patient/526138ad-1d67-4049-ad00-41f077af3a5e"},"effectiveDateTime":"2022-06-10T00:00:00+00:00"},"request":{"method":"POST","url":"Observation"}},{"fullUrl":"Observation/00daf7e1-bf03-4a1f-9274-28f458ac53e6","resource":{"resourceType":"Observation","id":"00daf7e1-bf03-4a1f-9274-28f458ac53e6","status":"final","code":{"coding":[{"system":"http://loinc.org","code":"49498-9"}]},"subject":{"reference":"Patient/526138ad-1d67-4049-ad00-41f077af3a5e"},"effectiveDateTime":"2022-07-06T00:00:00+00:00"},"request":{"method":"POST","url":"Observation"}},{"fullUrl":"Procedure/208a3756-46f6-42a0-a12a-cd527c54bc34","resource":{"resourceType":"Procedure","id":"208a3756-46f6-42a0-a12a-cd527c54bc34","status":"completed","code":{"coding":[{"system":"http://snomed.info/sct","code":"189009"}]},"subject":{"reference":"Patient/526138ad-1d67-4049-ad00-41f077af3a5e"},"performedDateTime":"2022-04-16T00:00:00+00:00"},"request":{"method":"POST","url":"Procedure"}},{"fullUrl":"Procedure/0574f2d1-a8d0-4d98-aa4a-865ef23e9384","resource":{"resourceType":"Procedure","id":"0574f2d1-a8d0-4d98-aa4a-865ef23e9384","status":"completed","code":{"coding":[{"system":"http://snomed.info/sct","code":"115006"}]},"subject":{"reference":"Patient/526138ad-1d67-4049-ad00-41f077af3a5e"},"performedDateTime":"2022-08-04T00:00:00+00:00"},"request":{"method":"POST","url":"Procedure"}},{"fullUrl":"Procedure/5a6ece4c-9c7f-4b06-9c93-1c62fd8c20f7","resource":{"resourceType":"Procedure","id":"5a6ece4c-9c7f-4b06-9c93-1c62fd8c20f7","status":"completed","code":{"coding":[{"system":"http://snomed.info/sct","code":"115006"}]},"subject":{"reference":"Patient/526138ad-1d67-4049-ad00-41f077af3a5e"},"performedDateTime":"2022-10-26T00:00:00+00:00"},"request":{"method":"POST","url":"Procedure"}},{"fullUrl":"MedicationStatement/38076eef-2c27-47cc-9d5a-e38c676a9da7","resource":{"resourceType":"MedicationStatement","id":"38076eef-2c27-47cc-9d5a-e38c676a9da7","status":"completed","medicationCodeableConcept":{"coding":[{"system":"http://www.nlm.nih.gov/research/umls/rxnorm","code":"18631"}]},"subject":{"reference":"Patient/526138ad-1d67-4049-ad00-41f077af3a5e"},"effectiveDateTime":"2022-09-02T00:00:00+00:00","dosage":[{"doseAndRate":[{"doseQuantity":{"value":2,"unit":"TAB","system":"http://terminology.hl7.org/CodeSystem/v3-orderableDrugForm","code":"TAB"}}]}]},"request":{"method":"POST","url":"MedicationStatement"}},{"fullUrl":"MedicationStatement/897d4792-2dc8-496d-a46c-56593ba55de5","resource":{"resourceType":"MedicationStatement","id":"897d4792-2dc8-496d-a46c-56593ba55de5","status":"completed","medicationCodeableConcept":{"coding":[{"system":"http://www.nlm.nih.gov/research/umls/rxnorm","code":"8698"}]},"subject":{"reference":"Patient/526138ad-1d67-4049-ad00-41f077af3a5e"},"effectiveDateTime":"2022-01-06T00:00:00+00:00","dosage":[{"doseAndRate":[{"doseQuantity":{"value":2,"unit":"TAB","system":"http://terminology.hl7.org/CodeSystem/v3-orderableDrugForm","code":"TAB"}}]}]},"request":{"method":"POST","url":"MedicationStatement"}},{"fullUrl":"MedicationStatement/ab8d6dd5-5795-4c39-a168-e79ebcbed615","resource":{"resourceType":"MedicationStatement","id":"ab8d6dd5-5795-4c39-a168-e79ebcbed615","status":"completed","medicationCodeableConcept":{"coding":[{"system":"http://www.nlm.nih.gov/research/umls/rxnorm","code":"8698"}]},"subject":{"reference":"Patient/526138ad-1d67-4049-ad00-41f077af3a5e"},"effectiveDateTime":"2022-04-14T00:00:00+00:00","dosage":[{"doseAndRate":[{"doseQuantity":{"value":1,"unit":"TAB","system":"http://terminology.hl7.org/CodeSystem/v3-orderableDrugForm","code":"TAB"}}]}]},"request":{"method":"POST","url":"MedicationStatement"}},{"fullUrl":"MedicationStatement/fb731ccf-dfb4-48bf-83d4-759869254056","resource":{"resourceType":"MedicationStatement","id":"fb731ccf-dfb4-48bf-83d4-759869254056","status":"completed","medicationCodeableConcept":{"coding":[{"system":"http://www.nlm.nih.gov/research/umls/rxnorm","code":"3640"}]},"subject":{"reference":"Patient/526138ad-1d67-4049-ad00-41f077af3a5e"},"effectiveDateTime":"2022-07-03T00:00:00+00:00","dosage":[{"doseAndRate":[{"doseQuantity":{"value":1,"unit":"TAB","system":"http://terminology.hl7.org/CodeSystem/v3-orderableDrugForm","code":"TAB"}}]}]},"request":{"method":"POST","url":"MedicationStatement"}},{"fullUrl":"MedicationStatement/dc5a73c1-a3ed-4e6e-840f-3c396a6e7487","resource":{"resourceType":"MedicationStatement","id":"dc5a73c1-a3ed-4e6e-840f-3c396a6e7487","status":"completed","medicationCodeableConcept":{"coding":[{"system":"http://www.nlm.nih.gov/research/umls/rxnorm","code":"18631"}]},"subject":{"reference":"Patient/526138ad-1d67-4049-ad00-41f077af3a5e"},"effectiveDateTime":"2022-01-24T00:00:00+00:00","dosage":[{"doseAndRate":[{"doseQuantity":{"value":1,"unit":"TAB","system":"http://terminology.hl7.org/CodeSystem/v3-orderableDrugForm","code":"TAB"}}]}]},"request":{"method":"POST","url":"MedicationStatement"}},{"fullUrl":"MedicationStatement/5224076c-dcf9-4833-a224-e27234269dfd","resource":{"resourceType":"MedicationStatement","id":"5224076c-dcf9-4833-a224-e27234269dfd","status":"completed","medicationCodeableConcept":{"coding":[{"system":"http://www.nlm.nih.gov/research/umls/rxnorm","code":"7980"}]},"subject":{"reference":"Patient/526138ad-1d67-4049-ad00-41f077af3a5e"},"effectiveDateTime":"2022-05-05T00:00:00+00:00","dosage":[{"doseAndRate":[{"doseQuantity":{"value":2,"unit":"TAB","system":"http://terminology.hl7.org/CodeSystem/v3-orderableDrugForm","code":"TAB"}}]}]},"request":{"method":"POST","url":"MedicationStatement"}},{"fullUrl":"MedicationStatement/d3f16ad5-725f-4469-b1f6-70b80522dcb9","resource":{"resourceType":"MedicationStatement","id":"d3f16ad5-725f-4469-b1f6-70b80522dcb9","status":"completed","medicationCodeableConcept":{"coding":[{"system":"http://www.nlm.nih.gov/research/umls/rxnorm","code":"2193"}]},"subject":{"reference":"Patient/526138ad-1d67-4049-ad00-41f077af3a5e"},"effectiveDateTime":"2022-12-18T00:00:00+00:00","dosage":[{"doseAndRate":[{"doseQuantity":{"value":4.8,"unit":"TAB","system":"http://terminology.hl7.org/CodeSystem/v3-orderableDrugForm","code":"TAB"}}]}]},"request":{"method":"POST","url":"MedicationStatement"}},{"fullUrl":"Encounter/c462ffa6-7a91-49b2-bc7c-aeaedd23b869","resource":{"resourceType":"Encounter","id":"c462ffa6-7a91-49b2-bc7c-aeaedd23b869","status":"finished","class":{"system":"http://terminology.hl7.org/CodeSystem/v3-ActCode","code":"IMP","display":"inpatient encounter"},"type":[{"coding":[{"system":"http://terminology.hl7.org/CodeSystem/encounter-type","code":"CCS60"}]}],"subject":{"reference":"Patient/526138ad-1d67-4049-ad00-41f077af3a5e"},"period":{"start":"2022-01-21T00:00:00+00:00","end":"2022-01-29T00:00:00+00:00"}},"request":{"method":"POST","url":"Encounter"}},{"fullUrl":"Encounter/a8f83a11-f834-4348-aed7-15da9e97d8e8","resource":{"resourceType":"Encounter","id":"a8f83a11-f834-4348-aed7-15da9e97d8e8","status":"finished","class":{"system":"http://terminology.hl7.org/CodeSystem/v3-ActCode","code":"IMP","display":"inpatient encounter"},"type":[{"coding":[{"system":"http://terminology.hl7.org/CodeSystem/encounter-type","code":"CCS60"}]}],"subject":{"reference":"Patient/526138ad-1d67-4049-ad00-41f077af3a5e"},"period":{"start":"2022-12-12T00:00:00+00:00","end":"2022-12-15T00:00:00+00:00"}},"request":{"method":"POST","url":"Encounter"}},{"fullUrl":"Encounter/73004475-8ce8-46f1-97c7-9fb1457c2caa","resource":{"resourceType":"Encounter","id":"73004475-8ce8-46f1-97c7-9fb1457c2caa","status":"finished","class":{"system":"http://terminology.hl7.org/CodeSystem/v3-ActCode","code":"FLD","display":"field"},"type":[{"coding":[{"system":"http://terminology.hl7.org/CodeSystem/encounter-type","code":"OKI"}]}],"subject":{"reference":"Patient/526138ad-1d67-4049-ad00-41f077af3a5e"},"period":{"start":"2022-10-25T00:00:00+00:00","end":"2022-10-31T00:00:00+00:00"}},"request":{"method":"POST","url":"Encounter"}},{"fullUrl":"Encounter/ea4fce37-836c-46ff-94df-eda181fd7cb2","resource":{"resourceType":"Encounter","id":"ea4fce37-836c-46ff-94df-eda181fd7cb2","status":"finished","class":{"system":"http://terminology.hl7.org/CodeSystem/v3-ActCode","code":"FLD","display":"field"},"type":[{"coding":[{"system":"http://terminology.hl7.org/CodeSystem/encounter-type","code":"ADMS"}]}],"subject":{"reference":"Patient/526138ad-1d67-4049-ad00-41f077af3a5e"},"period":{"start":"2022-10-31T00:00:00+00:00","end":"2022-11-02T00:00:00+00:00"}},"request":{"method":"POST","url":"Encounter"}},{"fullUrl":"Patient/c9690c8d-513d-4266-96d6-1a5b4c08097e","resource":{"resourceType":"Patient","id":"c9690c8d-513d-4266-96d6-1a5b4c08097e","identifier":[{"type":{"coding":[{"system":"http://terminology.hl7.org/CodeSystem/v2-0203","code":"MR"}]},"system":"urn:fhirgen:mrn","value":"739-37-2406"}],"name":[{"use":"official","family":"Montoya","given":["Jessica"]},{"use":"maiden","family":"Escobar"}],"telecom":[{"system":"phone","value":"(199)523-8251x7972","use":"work"},{"system":"email","value":"robertbrown@gmail.com","use":"home"}],"gender":"other","birthDate":"1992-05-07","address":[{"use":"home","line":["036 Elizabeth Causeway"],"city":"Brownborough","state":"MD","postalCode":"42712"},{"use":"old","line":["23368 Watson Court Suite 157"],"city":"Weavermouth","state":"NV","postalCode":"83837"}]},"request":{"method":"POST","url":"Patient"}},{"fullUrl":"Observation/58a69d67-ba3f-41d5-846b-7e4903a25bdd","resource":{"resourceType":"Observation","id":"58a69d67-ba3f-41d5-846b-7e4903a25bdd","status":"final","code":{"coding":[{"system":"http://loinc.org","code":"50695-6"}]},"subject":{"reference":"Patient/c9690c8d-513d-4266-96d6-1a5b4c08097e"},"effectiveDateTime":"2022-08-14T00:00:00+00:00","valueRatio":{"numerator":{"value":1},"denominator":{"value":64}}},"request":{"method":"POST","url":"Observation"}},{"fullUrl":"Observation/69202dac-b1aa-492d-a593-c86a56098cd8","resource":{"resourceType":"Observation","id":"69202dac-b1aa-492d-a593-c86a56098cd8","status":"final","code":{"coding":[{"system":"http://loinc.org","code":"11084-1"}]},"subject":{"reference":"Patient/c9690c8d-513d-4266-96d6-1a5b4c08097e"},"effectiveDateTime":"2022-07-01T00:00:00+00:00","valueRatio":{"numerator":{"value":1},"denominator":{"value":32}}},"request":{"method":"POST","url":"Observation"}},{"fullUrl":"Condition/fab77d8d-adfb-4fe2-9102-96e158052b9e","resource":{"resourceType":"Condition","id":"fab77d8d-adfb-4fe2-9102-96e158052b9e","code":{"coding":[{"system":"http://snomed.info/sct","code":"271807003"}]},"subject":{"reference":"Patient/c9690c8d-513d-4266-96d6-1a5b4c08097e"},"onsetDateTime":"2022-10-18T00:00:00+00:00"},"request":{"method":"POST","url":"Condition"}},{"fullUrl":"Condition/8dedf8f1-867e-4f01-a56d-c9e96a588524","resource":{"resourceType":"Condition","id":"8dedf8f1-867e-4f01-a56d-c9e96a588524","code":{"coding":[{"system":"http://snomed.info/sct","code":"709977002"}]},"subject":{"reference":"Patient/c9690c8d-513d-4266-96d6-1a5b4c08097e"},"onsetDateTime":"2022-10-22T00:00:00+00:00"},"request":{"method":"POST","url":"Condition"}},{"fullUrl":"Condition/443ff218-114d-4fd8-8be7-db9133b4d423","resource":{"resourceType":"Condition","id":"443ff218-114d-4fd8-8be7-db9133b4d423","code":{"coding":[{"system":"http://snomed.info/sct","code":"297123002"}]},"subject":{"reference":"Patient/c9690c8d-513d-4266-96d6-1a5b4c08097e"},"onsetDateTime":"2022-10-23T00:00:00+00:00"},"request":{"method":"POST","url":"Condition"}},{"fullUrl":"Condition/1684f3a3-278c-4788-84c4-4a754b6eff21","resource":{"resourceType":"Condition","id":"1684f3a3-278c-4788-84c4-4a754b6eff21","code":{"coding":[{"system":"http://snomed.info/sct","code":"198199009"}]},"subject":{"reference":"Patient/c9690c8d-513d-4266-96d6-1a5b4c08097e"},"onsetDateTime":"2022-07-13T00:00:00+00:00"},"request":{"method":"POST","url":"Condition"}},{"fullUrl":"Condition/192b6f10-783d-4b7c-b7ba-e549711b14ef","resource":{"resourceType":"Condition","id":"192b6f10-783d-4b7c-b7ba-e549711b14ef","code":{"coding":[{"system":"http://snomed.info/sct","code":"91554004"}]},"subject":{"reference":"Patient/c9690c8d-513d-4266-96d6-1a5b4c08097e"},"onsetDateTime":"2022-06-17T00:00:00+00:00"},"request":{"method":"POST","url":"Condition"}},{"fullUrl":"Condition/51118d71-1d4c-4766-9467-6edab6bff7e5","resource":{"resourceType":"Condition","id":"51118d71-1d4c-4766-9467-6edab6bff7e5","code":{"coding":[{"system":"http://snomed.info/sct","code":"709977002"}]},"subject":{"reference":"Patient/c9690c8d-513d-4266-96d6-1a5b4c08097e"},"onsetDateTime":"2022-04-14T00:00:00+00:00"},"request":{"method":"POST","url":"Condition"}},{"fullUrl":"Condition/7d089758-68f1-45e6-b49d-15e85e4ec506","resource":{"resourceType":"Condition","id":"7d089758-68f1-45e6-b49d-15e85e4ec506","code":{"coding":[{"system":"http://snomed.info/sct","code":"709977002"}]},"subject":{"reference":"Patient/c9690c8d-513d-4266-96d6-1a5b4c08097e"},"onsetDateTime":"2022-08-03T00:00:00+00:00"},"request":{"method":"POST","url":"Condition"}},{"fullUrl":"Condition/143408bb-ec8e-488f-ad95-c1c4d268a19f","resource":{"resourceType":"Condition","id":"143408bb-ec8e-488f-ad95-c1c4d268a19f","code":{"coding":[{"system":"http://snomed.info/sct","code":"198199009"}]},"subject":{"reference":"Patient/c9690c8d-513d-4266-96d6-1a5b4c08097e"},"onsetDateTime":"2022-10-10T00:00:00+00:00"},"request":{"method":"POST","url":"Condition"}},{"fullUrl":"Observation/973ebbc1-d5c3-4749-97d0-2995afd6945f","resource":{"resourceType":"Observation","id":"973ebbc1-d5c3-4749-97d0-2995afd6945f","status":"final","code":{"coding":[{"system":"http://loinc.org","code":"6690-2"}]},"subject":{"reference":"Patient/c9690c8d-513d-4266-96d6-1a5b4c08097e"},"effectiveDateTime":"2022-12-24T00:00:00+00:00","valueQuantity":{"value":4.8}},"request":{"method":"POST","url":"Observation"}},{"fullUrl":"Observation/5449c31a-4a11-4a47-b0a5-7894f6e72307","resource":{"resourceType":"Observation","id":"5449c31a-4a11-4a47-b0a5-7894f6e72307","status":"final","code":{"coding":[{"system":"http://loinc.org","code":"26464-8"}]},"subject":{"reference":"Patient/c9690c8d-513d-4266-96d6-1a5b4c08097e"},"effectiveDateTime":"2022-08-15T00:00:00+00:00","valueQuantity":{"value":9.3}},"request":{"method":"POST","url":"Observation"}},{"fullUrl":"Observation/dee55ed3-6f8e-4d88-9bcb-cfeafede36d0","resource":{"resourceType":"Observation","id":"dee55ed3-6f8e-4d88-9bcb-cfeafede36d0","status":"final","code":{"coding":[{"system":"http://loinc.org","code":"26464-8"}]},"subject":{"reference":"Patient/c9690c8d-513d-4266-96d6-1a5b4c08097e"},"effectiveDateTime":"2022-01-10T00:00:00+00:00","valueQuantity":{"value":4.2}},"request":{"method":"POST","url":"Observation"}},{"fullUrl":"Observation/44ccb638-6a4b-416f-8f51-42ee71450e1a","resource":{"resourceType":"Observation","id":"44ccb638-6a4b-416f-8f51-42ee71450e1a","status":"final","code":{"coding":[{"system":"http://loinc.org","code":"49498-9"}]},"subject":{"reference":"Patient/c9690c8d-513d-4266-96d6-1a5b4c08097e"},"effectiveDateTime":"2022-07-11T00:00:00+00:00"},"request":{"method":"POST","url":"Observation"}},{"fullUrl":"Observation/534c707b-2d8e-47c5-8722-148bd6aba742","resource":{"resourceType":"Observation","id":"534c707b-2d8e-47c5-8722-148bd6aba742","status":"final","code":{"coding":[{"system":"http://loinc.org","code":"49498-9"}]},"subject":{"reference":"Patient/c9690c8d-513d-4266-96d6-1a5b4c08097e"},"effectiveDateTime":"2022-07-21T00:00:00+00:00"},"request":{"method":"POST","url":"Observation"}},{"fullUrl":"Observation/0e3eb5f1-10d1-4894-a2cf-e455a9c9e8e0","resource":{"resourceType":"Observation","id":"0e3eb5f1-10d1-4894-a2cf-e455a9c9e8e0","status":"final","code":{"coding":[{"system":"http://loinc.org","code":"49498-9"}]},"subject":{"reference":"Patient/c9690c8d-513d-4266-96d6-1a5b4c08097e"},"effectiveDateTime":"2022-09-06T00:00:00+00:00"},"request":{"method":"POST","url":"Observation"}},{"fullUrl":"Procedure/4f9c11ef-2250-4b08-ac4d-cd3b2fae55db","resource":{"resourceType":"Procedure","id":"4f9c11ef-2250-4b08-ac4d-cd3b2fae55db","status":"completed","code":{"coding":[{"system":"http://snomed.info/sct","code":"146005"}]},"subject":{"reference":"Patient/c9690c8d-513d-4266-96d6-1a5b4c08097e"},"performedDateTime":"2022-08-21T00:00:00+00:00"},"request":{"method":"POST","url":"Procedure"}},{"fullUrl":"Procedure/8c2c8f28-c50a-43a3-aa8e-af2d2856b2e4","resource":{"resourceType":"Procedure","id":"8c2c8f28-c50a-43a3-aa8e-af2d2856b2e4","status":"completed","code":{"coding":[{"system":"http://snomed.info/sct","code":"146005"}]},"subject":{"reference":"Patient/c9690c8d-513d-4266-96d6-1a5b4c08097e"},"performedDateTime":"2022-08-02T00:00:00+00:00"},"request":{"method":"POST","url":"Procedure"}},{"fullUrl":"Procedure/4e4dd328-6fdd-4fcd-9ec0-f0ebdd24b7ec","resource":{"resourceType":"Procedure","id":"4e4dd328-6fdd-4fcd-9ec0-f0ebdd24b7ec","status":"completed","code":{"coding":[{"system":"http://snomed.info/sct","code":"647000"}]},"subject":{"reference":"Patient/c9690c8d-513d-4266-96d6-1a5b4c08097e"},"performedDateTime":"2022-02-13T00:00:00+00:00"},"request":{"method":"POST","url":"Procedure"}},{"fullUrl":"MedicationStatement/5e3ca748-747b-4869-aeeb-12c7f15aa436","resource":{"resourceType":"MedicationStatement","id":"5e3ca748-747b-4869-aeeb-12c7f15aa436","status":"completed","medicationCodeableConcept":{"coding":[{"system":"http://www.nlm.nih.gov/research/umls/rxnorm","code":"8698"}]},"subject":{"reference":"Patient/c9690c8d-513d-4266-96d6-1a5b4c08097e"},"effectiveDateTime":"2022-01-08T00:00:00+00:00","dosage":[{"doseAndRate":[{"doseQuantity":{"value":1,"unit":"TAB","system":"http://terminology.hl7.org/CodeSystem/v3-orderableDrugForm","code":"TAB"}}]}]},"request":{"method":"POST","url":"MedicationStatement"}},{"fullUrl":"MedicationStatement/fd8bb051-e8e3-4d42-a863-d94684a3c233","resource":{"resourceType":"MedicationStatement","id":"fd8bb051-e8e3-4d42-a863-d94684a3c233","status":"completed","medicationCodeableConcept":{"coding":[{"system":"http://www.nlm.nih.gov/research/umls/rxnorm","code":"7980"}]},"subject":{"reference":"Patient/c9690c8d-513d-4266-96d6-1a5b4c08097e"},"effectiveDateTime":"2022-11-30T00:00:00+00:00","dosage":[{"doseAndRate":[{"doseQuantity":{"value":1,"unit":"TAB","system":"http://terminology.hl7.org/CodeSystem/v3-orderableDrugForm","code":"TAB"}}]}]},"request":{"method":"POST","url":"MedicationStatement"}},{"fullUrl":"MedicationStatement/7316d5e8-2561-49a4-a388-6539bb37ad30","resource":{"resourceType":"MedicationStatement","id":"7316d5e8-2561-49a4-a388-6539bb37ad30","status":"completed","medicationCodeableConcept":{"coding":[{"system":"http://www.nlm.nih.gov/research/umls/rxnorm","code":"10395"}]},"subject":{"reference":"Patient/c9690c8d-513d-4266-96d6-1a5b4c08097e"},"effectiveDateTime":"2022-05-25T00:00:00+00:00","dosage":[{"doseAndRate":[{"doseQuantity":{"value":1,"unit":"TAB","system":"http://terminology.hl7.org/CodeSystem/v3-orderableDrugForm","code":"TAB"}}]}]},"request":{"method":"POST","url":"MedicationStatement"}},{"fullUrl":"MedicationStatement/6f23c66d-569f-4bbb-ad45-3b57ed29884c","resource":{"resourceType":"MedicationStatement","id":"6f23c66d-569f-4bbb-ad45-3b57ed29884c","status":"completed","medicationCodeableConcept":{"coding":[{"system":"http://www.nlm.nih.gov/research/umls/rxnorm","code":"18631"}]},"subject":{"reference":"Patient/c9690c8d-513d-4266-96d6-1a5b4c08097e"},"effectiveDateTime":"2022-05-09T00:00:00+00:00","dosage":[{"doseAndRate":[{"doseQuantity":{"value":1,"unit":"TAB","system":"http://terminology.hl7.org/CodeSystem/v3-orderableDrugForm","code":"TAB"}}]}]},"request":{"method":"POST","url":"MedicationStatement"}},{"fullUrl":"MedicationStatement/8065a91f-3fd4-4bfc-b393-2a09b2fbe87d","resource":{"resourceType":"MedicationStatement","id":"8065a91f-3fd4-4bfc-b393-2a09b2fbe87d","status":"completed","medicationCodeableConcept":{"coding":[{"system":"http://www.nlm.nih.gov/research/umls/rxnorm","code":"7980"}]},"subject":{"reference":"Patient/c9690c8d-513d-4266-96d6-1a5b4c08097e"},"effectiveDateTime":"2022-12-27T00:00:00+00:00","dosage":[{"doseAndRate":[{"doseQuantity":{"value":2,"unit":"TAB","system":"http://terminology.hl7.org/CodeSystem/v3-orderableDrugForm","code":"TAB"}}]}]},"request":{"method":"POST","url":"MedicationStatement"}},{"fullUrl":"MedicationStatement/276e22b2-c963-47ad-97eb-e71697a4bb0f","resource":{"resourceType":"MedicationStatement","id":"276e22b2-c963-47ad-97eb-e71697a4bb0f","status":"completed","medicationCodeableConcept":{"coding":[{"system":"http://www.nlm.nih.gov/research/umls/rxnorm","code":"2193"}]},"subject":{"reference":"Patient/c9690c8d-513d-4266-96d6-1a5b4c08097e"},"effectiveDateTime":"2022-11-03T00:00:00+00:00","dosage":[{"doseAndRate":[{"doseQuantity":{"value":1,"unit":"TAB","system":"http://terminology.hl7.org/CodeSystem/v3-orderableDrugForm","code":"TAB"}}]}]},"request":{"method":"POST","url":"MedicationStatement"}},{"fullUrl":"MedicationStatement/9a86d3ec-ed75-4b35-b331-585e739f46e6","resource":{"resourceType":"MedicationStatement","id":"9a86d3ec-ed75-4b35-b331-585e739f46e6","status":"completed","medicationCodeableConcept":{"coding":[{"system":"http://www.nlm.nih.gov/research/umls/rxnorm","code":"7980"}]},"subject":{"reference":"Patient/c9690c8d-513d-4266-96d6-1a5b4c08097e"},"effectiveDateTime":"2022-05-21T00:00:00+00:00","dosage":[{"doseAndRate":[{"doseQuantity":{"value":2,"unit":"TAB","system":"http://terminology.hl7.org/CodeSystem/v3-orderableDrugForm","code":"TAB"}}]}]},"request":{"method":"POST","url":"MedicationStatement"}},{"fullUrl":"MedicationStatement/4d9f8ebd-6c4f-4207-adfe-d57cc9f327d2","resource":{"resourceType":"MedicationStatement","id":"4d9f8ebd-6c4f-4207-adfe-d57cc9f327d2","status":"completed","medicationCodeableConcept":{"coding":[{"system":"http://www.nlm.nih.gov/research/umls/rxnorm","code":"2193"}]},"subject":{"reference":"Patient/c9690c8d-513d-4266-96d6-1a5b4c08097e"},"effectiveDateTime":"2022-12-04T00:00:00+00:00","dosage":[{"doseAndRate":[{"doseQuantity":{"value":2,"unit":"TAB","system":"http://terminology.hl7.org/CodeSystem/v3-orderableDrugForm","code":"TAB"}}]}]},"request":{"method":"POST","url":"MedicationStatement"}},{"fullUrl":"MedicationStatement/72d5b12f-3281-4c6c-8561-856f85dd6f09","resource":{"resourceType":"MedicationStatement","id":"72d5b12f-3281-4c6c-8561-856f85dd6f09","status":"completed","medicationCodeableConcept":{"coding":[{"system":"http://www.nlm.nih.gov/research/umls/rxnorm","code":"2193"}]},"subject":{"reference":"Patient/c9690c8d-513d-4266-96d6-1a5b4c08097e"},"effectiveDateTime":"2022-07-21T00:00:00+00:00","dosage":[{"doseAndRate":[{"doseQuantity":{"value":6.9,"unit":"TAB","system":"http://terminology.hl7.org/CodeSystem/v3-orderableDrugForm","code":"TAB"}}]}]},"request":{"method":"POST","url":"MedicationStatement"}},{"fullUrl":"MedicationStatement/e601e3e3-fd48-429d-bb19-9d87235253f8","resource":{"resourceType":"MedicationStatement","id":"e601e3e3-fd48-429d-bb19-9d87235253f8","status":"completed","medicationCodeableConcept":{"coding":[{"system":"http://www.nlm.nih.gov/research/umls/rxnorm","code":"2193"}]},"subject":{"reference":"Patient/c9690c8d-513d-4266-96d6-1a5b4c08097e"},"effectiveDateTime":"2022-08-31T00:00:00+00:00","dosage":[{"doseAndRate":[{"doseQuantity":{"value":6.1,"unit":"TAB","system":"http://terminology.hl7.org/CodeSystem/v3-orderableDrugForm","code":"TAB"}}]}]},"request":{"method":"POST","url":"MedicationStatement"}},{"fullUrl":"Encounter/8e9806b6-178a-469b-8d8b-da6254ca8eb3","resource":{"resourceType":"Encounter","id":"8e9806b6-178a-469b-8d8b-da6254ca8eb3","status":"finished","class":{"system":"http://terminology.hl7.org/CodeSystem/v3-ActCode","code":"IMP","display":"inpatient encounter"},"type":[{"coding":[{"system":"http://terminology.hl7.org/CodeSystem/encounter-type","code":"OKI"}]}],"subject":{"reference":"Patient/c9690c8d-513d-4266-96d6-1a5b4c08097e"},"period":{"start":"2022-07-09T00:00:00+00:00","end":"2022-07-13T00:00:00+00:00"}},"request":{"method":"POST","url":"Encounter"}},{"fullUrl":"Encounter/b6539fb5-b4a0-40c6-ba3b-0d49deeb2bb7","resource":{"resourceType":"Encounter","id":"b6539fb5-b4a0-40c6-ba3b-0d49deeb2bb7","status":"finished","class":{"system":"http://terminology.hl7.org/CodeSystem/v3-ActCode","code":"IMP","display":"inpatient encounter"},"type":[{"coding":[{"system":"http://terminology.hl7.org/CodeSystem/encounter-type","code":"BD/BM-clin"}]}],"subject":{"reference":"Patient/c9690c8d-513d-4266-96d6-1a5b4c08097e"},"period":{"start":"2022-10-19T00:00:00+00:00","end":"2022-10-23T00:00:00+00:00"}},"request":{"method":"POST","url":"Encounter"}},{"fullUrl":"Encounter/4883670c-40bb-483d-9d48-7d728c25e4b7","resource":{"resourceType":"Encounter","id":"4883670c-40bb-483d-9d48-7d728c25e4b7","status":"finished","class":{"system":"http://terminology.hl7.org/CodeSystem/v3-ActCode","code":"SS","display":"short-stay"},"type":[{"coding":[{"system":"http://terminology.hl7.org/CodeSystem/encounter-type","code":"CCS60"}]}],"subject":{"reference":"Patient/c9690c8d-513d-4266-96d6-1a5b4c08097e"},"period":{"start":"2022-11-30T00:00:00+00:00","end":"2022-12-08T00:00:00+00:00"}},"request":{"method":"POST","url":"Encounter"}},{"fullUrl":"Encounter/feef8111-3df2-41df-8e43-8f6d891a2e3f","resource":{"resourceType":"Encounter","id":"feef8111-3df2-41df-8e43-8f6d891a2e3f","status":"finished","class":{"system":"http://terminology.hl7.org/CodeSystem/v3-ActCode","code":"AMB","display":"ambulatory"},"type":[{"coding":[{"system":"http://terminology.hl7.org/CodeSystem/encounter-type","code":"BD/BM-clin"}]}],"subject":{"reference":"Patient/c9690c8d-513d-4266-96d6-1a5b4c08097e"},"period":{"start":"2022-08-31T00:00:00+00:00","end":"2022-08-31T00:00:00+00:00"}},"request":{"method":"POST","url":"Encounter"}}]}