{"resourceType":"Bundle","id":"97be8a4e-83a6-4151-8f83-a181a1818b4f","type":"transaction","entry":[{"fullUrl":"Patient/72b0ec9d-0ff8-4ac4-80de-47e611224b75","resource":{"resourceType":"Patient","id":"72b0ec9d-0ff8-4ac4-80de-47e611224b75","identifier":[{"type":{"coding":[{"system":"http://terminology.hl7.org/CodeSystem/v2-0203","code":"MR"}]},"system":"urn:fhirgen:mrn","value":"453-04-9113"},{"system":"http://hl7.org/fhir/sid/us-ssn","value":"376-17-0051"}],"name":[{"use":"official","family":"Torres","given":["Ryan"]},{"use":"maiden","family":"White"}],"telecom":[{"system":"phone","value":"001-768-620-0394x291","use":"home"},{"system":"email","value":"susanreed@gmail.com","use":"home"}],"gender":"male","birthDate":"1982-02-04","address":[{"use":"home","line":["50625 Nelson Mission Suite 463"],"city":"Kennethburgh","state":"HI","postalCode":"92855"},{"use":"old","line":["47069 Pitts Tunnel Apt. 252"],"city":"Melissaview","state":"AZ","postalCode":"26687"}],"maritalStatus":{"coding":[{"system":"http://terminology.hl7.org/CodeSystem/v3-MaritalStatus","code":"W","display":"Widowed"}]}},"request":{"method":"POST","url":"Patient"}},{"fullUrl":"Observation/10075878-2c5b-4918-834c-725cb34a8da0","resource":{"resourceType":"Observation","id":"10075878-2c5b-4918-834c-725cb34a8da0","status":"final","code":{"coding":[{"system":"http://loinc.org","code":"50690-7"}]},"subject":{"reference":"Patient/72b0ec9d-0ff8-4ac4-80de-47e611224b75"},"effectiveDateTime":"2022-12-06T00:00:00+00:00","valueRatio":{"numerator":{"value":1},"denominator":{"value":32}}},"request":{"method":"POST","url":"Observation"}},{"fullUrl":"Observation/793c90eb-f697-4ab5-a54b-12e75f1fa236","resource":{"resourceType":"Observation","id":"793c90eb-f697-4ab5-a54b-12e75f1fa236","status":"final","code":{"coding":[{"system":"http://loinc.org","code":"31146-4"}]},"subject":{"reference":"Patient/72b0ec9d-0ff8-4ac4-80de-47e611224b75"},"effectiveDateTime":"2022-10-31T00:00:00+00:00","valueRatio":{"numerator":{"value":1},"denominator":{"value":4}}},"request":{"method":"POST","url":"Observation"}},{"fullUrl":"Condition/b9420ce3-8979-4936-a4ce-d151c4b3096b","resource":{"resourceType":"Condition","id":"b9420ce3-8979-4936-a4ce-d151c4b3096b","code":{"coding":[{"system":"http://snomed.info/sct","code":"297123002"}]},"subject":{"reference":"Patient/72b0ec9d-0ff8-4ac4-80de-47e611224b75"},"onsetDateTime":"2022-11-05T00:00:00+00:00"},"request":{"method":"POST","url":"Condition"}},{"fullUrl":"Condition/d8b32859-7a82-4601-973f-68300ec55a0c","resource":{"resourceType":"Condition","id":"d8b32859-7a82-4601-973f-68300ec55a0c","code":{"coding":[{"system":"http://snomed.info/sct","code":"71315007"}]},"subject":{"reference":"Patient/72b0ec9d-0ff8-4ac4-80de-47e611224b75"},"onsetDateTime":"2022-12-01T00:00:00+00:00"},"request":{"method":"POST","url":"Condition"}},{"fullUrl":"Condition/b8b57b5d-56ba-46d4-903d-a16c67b130a2","resource":{"resourceType":"Condition","id":"b8b57b5d-56ba-46d4-903d-a16c67b130a2","code":{"coding":[{"system":"http://snomed.info/sct","code":"271807003"}]},"subject":{"reference":"Patient/72b0ec9d-0ff8-4ac4-80de-47e611224b75"},"onsetDateTime":"2022-04-21T00:00:00+00:00"},"request":{"method":"POST","url":"Condition"}},{"fullUrl":"Observation/ce043935-00fe-4625-b68d-79231b5efc27","resource":{"resourceType":"Observation","id":"ce043935-00fe-4625-b68d-79231b5efc27","status":"final","code":{"coding":[{"system":"http://www.ama-assn.org/go/cpt","code":"85048"}]},"subject":{"reference":"Patient/72b0ec9d-0ff8-4ac4-80de-47e611224b75"},"effectiveDateTime":"2022-04-26T00:00:00+00:00","valueQuantity":{"value":9.7}},"request":{"method":"POST","url":"Observation"}},{"fullUrl":"Observation/d1be00d7-2874-4ed4-bfa5-9635acdd3fa9","resource":{"resourceType":"Observation","id":"d1be00d7-2874-4ed4-bfa5-9635acdd3fa9","status":"final","code":{"coding":[{"system":"http://loinc.org","code":"49498-9"}]},"subject":{"reference":"Patient/72b0ec9d-0ff8-4ac4-80de-47e611224b75"},"effectiveDateTime":"2022-04-19T00:00:00+00:00","valueQuantity":{"value":9}},"request":{"method":"POST","url":"Observation"}},{"fullUrl":"Observation/9a6ff438-9d78-48f5-95a3-a8751f584b31","resource":{"resourceType":"Observation","id":"9a6ff438-9d78-48f5-95a3-a8751f584b31","status":"final","code":{"coding":[{"system":"http://loinc.org","code":"26464-8"}]},"subject":{"reference":"Patient/72b0ec9d-0ff8-4ac4-80de-47e611224b75"},"effectiveDateTime":"2022-06-12T00:00:00+00:00","valueQuantity":{"value":10.2}},"request":{"method":"POST","url":"Observation"}},{"fullUrl":"Observation/ff28fbbb-039e-4e53-be27-280043c85730","resource":{"resourceType":"Observation","id":"ff28fbbb-039e-4e53-be27-280043c85730","status":"final","code":{"coding":[{"system":"http://www.ama-assn.org/go/cpt","code":"85048"}]},"subject":{"reference":"Patient/72b0ec9d-0ff8-4ac4-80de-47e611224b75"},"effectiveDateTime":"2022-09-25T00:00:00+00:00","valueCodeableConcept":{"coding":[{"system":"snomed","code":"123456","display":"fake snomed"}]}},"request":{"method":"POST","url":"Observation"}},{"fullUrl":"Observation/0bc27527-61fd-400f-8c96-58a63a24ad68","resource":{"resourceType":"Observation","id":"0bc27527-61fd-400f-8c96-58a63a24ad68","status":"final","code":{"coding":[{"system":"http://www.ama-assn.org/go/cpt","code":"85048"}]},"subject":{"reference":"Patient/72b0ec9d-0ff8-4ac4-80de-47e611224b75"},"effectiveDateTime":"2022-11-08T00:00:00+00:00","valueCodeableConcept":{"coding":[{"system":"snomed","code":"123456","display":"fake snomed"}]}},"request":{"method":"POST","url":"Observation"}},{"fullUrl":"Observation/e93fabc6-f60d-4159-a56f-dffd38f0cfe6","resource":{"resourceType":"Observation","id":"e93fabc6-f60d-4159-a56f-dffd38f0cfe6","status":"final","code":{"coding":[{"system":"http://loinc.org","code":"6690-2"}]},"subject":{"reference":"Patient/72b0ec9d-0ff8-4ac4-80de-47e611224b75"},"effectiveDateTime":"2022-11-27T00:00:00+00:00","valueCodeableConcept":{"coding":[{"system":"snomed","code":"123456","display":"fake snomed"}]}},"request":{"method":"POST","url":"Observation"}},{"fullUrl":"Observation/a1ee5a1f-fe90-4149-bd02-18675fcea2a5","resource":{"resourceType":"Observation","id":"a1ee5a1f-fe90-4149-bd02-18675fcea2a5","status":"final","code":{"coding":[{"system":"http://loinc.org","code":"49498-9"}]},"subject":{"reference":"Patient/72b0ec9d-0ff8-4ac4-80de-47e611224b75"},"effectiveDateTime":"2022-06-23T00:00:00+00:00"},"request":{"method":"POST","url":"Observation"}},{"fullUrl":"Observation/b9aa8874-b4f6-49ae-a8ee-04cf80603233","resource":{"resourceType":"Observation","id":"b9aa8874-b4f6-49ae-a8ee-04cf80603233","status":"final","code":{"coding":[{"system":"http://loinc.org","code":"49498-9"}]},"subject":{"reference":"Patient/72b0ec9d-0ff8-4ac4-80de-47e611224b75"},"effectiveDateTime":"2022-07-30T00:00:00+00:00"},"request":{"method":"POST","url":"Observation"}},{"fullUrl":"Procedure/c540f287-8631-43c9-9f03-62b4df8953b9","resource":{"resourceType":"Procedure","id":"c540f287-8631-43c9-9f03-62b4df8953b9","status":"completed","code":{"coding":[{"system":"http://snomed.info/sct","code":"647000"}]},"subject":{"reference":"Patient/72b0ec9d-0ff8-4ac4-80de-47e611224b75"},"performedDateTime":"2022-03-07T00:00:00+00:00"},"request":{"method":"POST","url":"Procedure"}},{"fullUrl":"Procedure/75336f9c-a437-48ca-ae29-2ff983cf4f08","resource":{"resourceType":"Procedure","id":"75336f9c-a437-48ca-ae29-2ff983cf4f08","status":"completed","code":{"coding":[{"system":"http://snomed.info/sct","code":"647000"}]},"subject":{"reference":"Patient/72b0ec9d-0ff8-4ac4-80de-47e611224b75"},"performedDateTime":"2022-06-14T00:00:00+00:00"},"request":{"method":"POST","url":"Procedure"}},{"fullUrl":"Procedure/ccc71e7b-a752-44a8-8786-764dc3811570","resource":{"resourceType":"Procedure","id":"ccc71e7b-a752-44a8-8786-764dc3811570","status":"completed","code":{"coding":[{"system":"http://snomed.info/sct","code":"189009"}]},"subject":{"reference":"Patient/72b0ec9d-0ff8-4ac4-80de-47e611224b75"},"performedDateTime":"2022-07-09T00:00:00+00:00"},"request":{"method":"POST","url":"Procedure"}},{"fullUrl":"MedicationStatement/d85d71ec-9fec-48be-a4be-e318a1ecf92b","resource":{"resourceType":"MedicationStatement","id":"d85d71ec-9fec-48be-a4be-e318a1ecf92b","status":"completed","medicationCodeableConcept":{"coding":[{"system":"http://www.nlm.nih.gov/research/umls/rxnorm","code":"7980"}]},"subject":{"reference":"Patient/72b0ec9d-0ff8-4ac4-80de-47e611224b75"},"effectiveDateTime":"2022-11-03T00:00:00+00:00","dosage":[{"doseAndRate":[{"doseQuantity":{"value":2,"unit":"TAB","system":"http://terminology.hl7.org/CodeSystem/v3-orderableDrugForm","code":"TAB"}}]}]},"request":{"method":"POST","url":"MedicationStatement"}},{"fullUrl":"MedicationStatement/ccb010c4-5cb4-4d16-b54e-1dcc2db3b819","resource":{"resourceType":"MedicationStatement","id":"ccb010c4-5cb4-4d16-b54e-1dcc2db3b819","status":"completed","medicationCodeableConcept":{"coding":[{"system":"http://www.nlm.nih.gov/research/umls/rxnorm","code":"2193"}]},"subject":{"reference":"Patient/72b0ec9d-0ff8-4ac4-80de-47e611224b75"},"effectiveDateTime":"2022-09-05T00:00:00+00:00","dosage":[{"doseAndRate":[{"doseQuantity":{"value":2,"unit":"TAB","system":"http://terminology.hl7.org/CodeSystem/v3-orderableDrugForm","code":"TAB"}}]}]},"request":{"method":"POST","url":"MedicationStatement"}},{"fullUrl":"MedicationStatement/fc3fee11-4646-44db-91ac-397236b9ac4a","resource":{"resourceType":"MedicationStatement","id":"fc3fee11-4646-44db-91ac-397236b9ac4a","status":"completed","medicationCodeableConcept":{"coding":[{"system":"http://www.nlm.nih.gov/research/umls/rxnorm","code":"7980"}]},"subject":{"reference":"Patient/72b0ec9d-0ff8-4ac4-80de-47e611224b75"},"effectiveDateTime":"2022-01-29T00:00:00+00:00","dosage":[{"doseAndRate":[{"doseQuantity":{"value":1,"unit":"TAB","system":"http://terminology.hl7.org/CodeSystem/v3-orderableDrugForm","code":"TAB"}}]}]},"request":{"method":"POST","url":"MedicationStatement"}},{"fullUrl":"MedicationStatement/1b462b39-72d0-488b-a498-f51a079f3106","resource":{"resourceType":"MedicationStatement","id":"1b462b39-72d0-488b-a498-f51a079f3106","status":"completed","medicationCodeableConcept":{"coding":[{"system":"http://www.nlm.nih.gov/research/umls/rxnorm","code":"18631"}]},"subject":{"reference":"Patient/72b0ec9d-0ff8-4ac4-80de-47e611224b75"},"effectiveDateTime":"2022-06-07T00:00:00+00:00","dosage":[{"doseAndRate":[{"doseQuantity":{"value":1,"unit":"TAB","system":"http://terminology.hl7.org/CodeSystem/v3-orderableDrugForm","code":"TAB"}}]}]},"request":{"method":"POST","url":"MedicationStatement"}},{"fullUrl":"MedicationStatement/ce9e75c6-4d9c-4184-912b-823d78a0e0b6","resource":{"resourceType":"MedicationStatement","id":"ce9e75c6-4d9c-4184-912b-823d78a0e0b6","status":"completed","medicationCodeableConcept":{"coding":[{"system":"http://www.nlm.nih.gov/research/umls/rxnorm","code":"18631"}]},"subject":{"reference":"Patient/72b0ec9d-0ff8-4ac4-80de-47e611224b75"},"effectiveDateTime":"2022-11-13T00:00:00+00:00","dosage":[{"doseAndRate":[{"doseQuantity":{"value":2,"unit":"TAB","system":"http://terminology.hl7.org/CodeSystem/v3-orderableDrugForm","code":"TAB"}}]}]},"request":{"method":"POST","url":"MedicationStatement"}},{"fullUrl":"MedicationStatement/df68d1d6-0f6d-4244-93cc-b184b5a2f87d","resource":{"resourceType":"MedicationStatement","id":"df68d1d6-0f6d-4244-93cc-b184b5a2f87d","status":"completed","medicationCodeableConcept":{"coding":[{"system":"http://www.nlm.nih.gov/research/umls/rxnorm","code":"10395"}]},"subject":{"reference":"Patient/72b0ec9d-0ff8-4ac4-80de-47e611224b75"},"effectiveDateTime":"2022-10-17T00:00:00+00:00","dosage":[{"doseAndRate":[{"doseQuantity":{"value":5.4,"unit":"TAB","system":"http://terminology.hl7.org/CodeSystem/v3-orderableDrugForm","code":"TAB"}}]}]},"request":{"method":"POST","url":"MedicationStatement"}},{"fullUrl":"MedicationStatement/5497010a-ff20-4964-970e-2483c6d0eb81","resource":{"resourceType":"MedicationStatement","id":"5497010a-ff20-4964-970e-2483c6d0eb81","status":"completed","medicationCodeableConcept":{"coding":[{"system":"http://www.nlm.nih.gov/research/umls/rxnorm","code":"3640"}]},"subject":{"reference":"Patient/72b0ec9d-0ff8-4ac4-80de-47e611224b75"},"effectiveDateTime":"2022-11-13T00:00:00+00:00","dosage":[{"doseAndRate":[{"doseQuantity":{"value":3.2,"unit":"TAB","system":"http://terminology.hl7.org/CodeSystem/v3-orderableDrugForm","code":"TAB"}}]}]},"request":{"method":"POST","url":"MedicationStatement"}},{"fullUrl":"MedicationStatement/1a52e96d-ddbf-4484-b8ea-bf5da0bc684f","resource":{"resourceType":"MedicationStatement","id":"1a52e96d-ddbf-4484-b8ea-bf5da0bc684f","status":"completed","medicationCodeableConcept":{"coding":[{"system":"http://www.nlm.nih.gov/research/umls/rxnorm","code":"3640"}]},"subject":{"reference":"Patient/72b0ec9d-0ff8-4ac4-80de-47e611224b75"},"effectiveDateTime":"2022-09-04T00:00:00+00:00","dosage":[{"doseAndRate":[{"doseQuantity":{"value":5.3,"unit":"TAB","system":"http://terminology.hl7.org/CodeSystem/v3-orderableDrugForm","code":"TAB"}}]}]},"request":{"method":"POST","url":"MedicationStatement"}},{"fullUrl":"MedicationStatement/70525602-6a9e-4d6d-8d7b-7e9b6f76fdf0","resource":{"resourceType":"MedicationStatement","id":"70525602-6a9e-4d6d-8d7b-7e9b6f76fdf0","status":"completed","medicationCodeableConcept":{"coding":[{"system":"http://www.nlm.nih.gov/research/umls/rxnorm","code":"18631"}]},"subject":{"reference":"Patient/72b0ec9d-0ff8-4ac4-80de-47e611224b75"},"effectiveDateTime":"2022-05-01T00:00:00+00:00","dosage":[{"doseAndRate":[{"doseQuantity":{"value":4.8,"unit":"TAB","system":"http://terminology.hl7.org/CodeSystem/v3-orderableDrugForm","code":"TAB"}}]}]},"request":{"method":"POST","url":"MedicationStatement"}},{"fullUrl":"MedicationStatement/ba01993f-b978-4ad8-a717-504bf28d0360","resource":{"resourceType":"MedicationStatement","id":"ba01993f-b978-4ad8-a717-504bf28d0360","status":"completed","medicationCodeableConcept":{"coding":[{"system":"http://www.nlm.nih.gov/research/umls/rxnorm","code":"7984"}]},"subject":{"reference":"Patient/72b0ec9d-0ff8-4ac4-80de-47e611224b75"},"effectiveDateTime":"2022-04-22T00:00:00+00:00","dosage":[{"doseAndRate":[{"doseQuantity":{"value":4.8,"unit":"TAB","system":"http://terminology.hl7.org/CodeSystem/v3-orderableDrugForm","code":"TAB"}}]}]},"request":{"method":"POST","url":"MedicationStatement"}},{"fullUrl":"MedicationStatement/ed610928-c242-4263-b671-3801080647dc","resource":{"resourceType":"MedicationStatement","id":"ed610928-c242-4263-b671-3801080647dc","status":"completed","medicationCodeableConcept":{"coding":[{"system":"http://www.nlm.nih.gov/research/umls/rxnorm","code":"10395"}]},"subject":{"reference":"Patient/72b0ec9d-0ff8-4ac4-80de-47e611224b75"},"effectiveDateTime":"2022-08-06T00:00:00+00:00","dosage":[{"doseAndRate":[{"doseQuantity":{"value":4.8,"unit":"TAB","system":"http://terminology.hl7.org/CodeSystem/v3-orderableDrugForm","code":"TAB"}}]}]},"request":{"method":"POST","url":"MedicationStatement"}},{"fullUrl":"MedicationStatement/00fba8e1-10d4-4746-afb3-ab4878101df4","resource":{"resourceType":"MedicationStatement","id":"00fba8e1-10d4-4746-afb3-ab4878101df4","status":"completed","medicationCodeableConcept":{"coding":[{"system":"http://www.nlm.nih.gov/research/umls/rxnorm","code":"2193"}]},"subject":{"reference":"Patient/72b0ec9d-0ff8-4ac4-80de-47e611224b75"},"effectiveDateTime":"2022-09-27T00:00:00+00:00","dosage":[{"doseAndRate":[{"doseQuantity":{"value":6.7,"unit":"TAB","system":"http://terminology.hl7.org/CodeSystem/v3-orderableDrugForm","code":"TAB"}}]}]},"request":{"method":"POST","url":"MedicationStatement"}},{"fullUrl":"MedicationStatement/d6896edc-d94c-4873-9dee-eb536a6e3f50","resource":{"resourceType":"MedicationStatement","id":"d6896edc-d94c-4873-9dee-eb536a6e3f50","status":"completed","medicationCodeableConcept":{"coding":[{"system":"http://www.nlm.nih.gov/research/umls/rxnorm","code":"7980"}]},"subject":{"reference":"Patient/72b0ec9d-0ff8-4ac4-80de-47e611224b75"},"effectiveDateTime":"2022-01-09T00:00:00+00:00","dosage":[{"doseAndRate":[{"doseQuantity":{"value":5.4,"unit":"TAB","system":"http://terminology.hl7.org/CodeSystem/v3-orderableDrugForm","code":"TAB"}}]}]},"request":{"method":"POST","url":"MedicationStatement"}},{"fullUrl":"Encounter/5bf1d886-d735-43e3-a5b7-2ce5732168d1","resource":{"resourceType":"Encounter","id":"5bf1d886-d735-43e3-a5b7-2ce5732168d1","status":"finished","class":{"system":"http://terminology.hl7.org/CodeSystem/v3-ActCode","code":"IMP","display":"inpatient encounter"},"type":[{"coding":[{"system":"http://terminology.hl7.org/CodeSystem/encounter-type","code":"BD/BM-clin"}]}],"subject":{"reference":"Patient/72b0ec9d-0ff8-4ac4-80de-47e611224b75"},"period":{"start":"2022-10-26T00:00:00+00:00","end":"2022-10-31T00:00:00+00:00"}},"request":{"method":"POST","url":"Encounter"}},{"fullUrl":"Encounter/754fafa8-0fe6-489a-aa4b-5d64747d8a75","resource":{"resourceType":"Encounter","id":"754fafa8-0fe6-489a-aa4b-5d64747d8a75","status":"finished","class":{"system":"http://terminology.hl7.org/CodeSystem/v3-ActCode","code":"IMP","display":"inpatient encounter"},"type":[{"coding":[{"system":"http://terminology.hl7.org/CodeSystem/encounter-type","code":"CCS60"}]}],"subject":{"reference":"Patient/72b0ec9d-0ff8-4ac4-80de-47e611224b75"},"period":{"start":"2022-09-28T00:00:00+00:00","end":"2022-10-02T00:00:00+00:00"}},"request":{"method":"POST","url":"Encounter"}},{"fullUrl":"Encounter/2aa1c39f-e8eb-4ece-a88d-25c66d4b21d9","resource":{"resourceType":"Encounter","id":"2aa1c39f-e8eb-4ece-a88d-25c66d4b21d9","status":"finished","class":{"system":"http://terminology.hl7.org/CodeSystem/v3-ActCode","code":"IMP","display":"inpatient encounter"},"type":[{"coding":[{"system":"http://terminology.hl7.org/CodeSystem/encounter-type","code":"CCS60"}]}],"subject":{"reference":"Patient/72b0ec9d-0ff8-4ac4-80de-47e611224b75"},"period":{"start":"2022-11-07T00:00:00+00:00","end":"2022-11-10T00:00:00+00:00"}},"request":{"method":"POST","url":"Encounter"}},{"fullUrl":"Encounter/ff7dcc9e-4684-49ea-9ad1-7f66978240f0","resource":{"resourceType":"Encounter","id":"ff7dcc9e-4684-49ea-9ad1-7f66978240f0","status":"finished","class":{"system":"http://terminology.hl7.org/CodeSystem/v3-ActCode","code":"EMER","display":"emergency"},"type":[{"coding":[{"system":"http://terminology.hl7.org/CodeSystem/encounter-type","code":"BD/BM-clin"}]}],"subject":{"reference":"Patient/72b0ec9d-0ff8-4ac4-80de-47e611224b75"},"period":{"start":"2022-01-03T00:00:00+00:00","end":"2022-01-10T00:00:00+00:00"}},"request":{"method":"POST","url":"Encounter"}},{"fullUrl":"Encounter/6e0dfb23-7351-4cf9-bdd0-f44722083f8b","resource":{"resourceType":"Encounter","id":"6e0dfb23-7351-4cf9-bdd0-f44722083f8b","status":"finished","class":{"system":"http://terminology.hl7.org/CodeSystem/v3-ActCode","code":"PRENC","display":"pre-admission"},"type":[{"coding":[{"system":"http://terminology.hl7.org/CodeSystem/encounter-type","code":"CCS60"}]}],"subject":{"reference":"Patient/72b0ec9d-0ff8-4ac4-80de-47e611224b75"},"period":{"start":"2022-03-28T00:00:00+00:00","end":"2022-04-01T00:00:00+00:00"}},"request":{"method":"POST","url":"Encounter"}},{"fullUrl":"Location/4c127a93-c778-45bd-920d-cf442124f3f6","resource":{"resourceType":"Location","id":"4c127a93-c778-45bd-920d-cf442124f3f6","status":"active","name":"Dickerson, Rodgers and Kim","telecom":[{"system":"phone","value":"(119)196-5972x45451","use":"work"}],"address":{"use":"work","line":["577 John Ville"],"city":"Lake Joshuaborough","state":"MS","postalCode":"15443"}},"request":{"method":"POST","url":"Location"}},{"fullUrl":"Observation/668a7cfb-7c73-4b1a-98a9-68d8a368bebc","resource":{"resourceType":"Observation","id":"668a7cfb-7c73-4b1a-98a9-68d8a368bebc","status":"final","code":{"coding":[{"system":"http://loinc.org","code":"81956-5"}]},"subject":{"reference":"Patient/72b0ec9d-0ff8-4ac4-80de-47e611224b75"},"effectiveDateTime":"2022-06-18T00:00:00+00:00","valueDateTime":"2022-05-30T00:00:00+00:00"},"request":{"method":"POST","url":"Observation"}},{"fullUrl":"Patient/b295612b-f47e-4b84-957b-ac9fd4b9e0a6","resource":{"resourceType":"Patient","id":"b295612b-f47e-4b84-957b-ac9fd4b9e0a6","identifier":[{"type":{"coding":[{"system":"http://terminology.hl7.org/CodeSystem/v2-0203","code":"MR"}]},"system":"urn:fhirgen:mrn","value":"520-19-1467"},{"system":"http://hl7.org/fhir/sid/us-ssn","value":"280-45-8353"}],"name":[{"use":"official","family":"Adams","given":["Derrick"]},{"use":"maiden","family":"Taylor"}],"telecom":[{"system":"phone","value":"735.006.1018x620","use":"work"},{"system":"email","value":"hsmith@yahoo.com","use":"home"}],"gender":"male","birthDate":"1978-11-17","address":[{"use":"home","line":["572 Marsh Crossing"],"city":"Williamsfurt","state":"NC","postalCode":"29613"},{"use":"old","line":["64177 Daniel Manors"],"city":"Port Larryfurt","state":"TX","postalCode":"22176"}],"maritalStatus":{"coding":[{"system":"http://terminology.hl7.org/CodeSystem/v3-MaritalStatus","code":"S","display":"Never Married"}]}},"request":{"method":"POST","url":"Patient"}},{"fullUrl":"Observation/39941ce5-4ec8-4739-afd4-72378349ff69","resource":{"resourceType":"Observation","id":"39941ce5-4ec8-4739-afd4-72378349ff69","status":"final","code":{"coding":[{"system":"http://loinc.org","code":"26009-1"}]},"subject":{"reference":"Patient/b295612b-f47e-4b84-957b-ac9fd4b9e0a6"},"effectiveDateTime":"2022-02-16T00:00:00+00:00","valueRatio":{"numerator":{"value":1},"denominator":{"value":64}}},"request":{"method":"POST","url":"Observation"}},{"fullUrl":"Observation/90d06d7b-8520-42d7-b24a-82c10f5857be","resource":{"resourceType":"Observation","id":"90d06d7b-8520-42d7-b24a-82c10f5857be","status":"final","code":{"coding":[{"system":"http://loinc.org","code":"26009-1"}]},"subject":{"reference":"Patient/b295612b-f47e-4b84-957b-ac9fd4b9e0a6"},"effectiveDateTime":"2022-02-19T00:00:00+00:00","valueRatio":{"numerator":{"value":1},"denominator":{"value":64}}},"request":{"method":"POST","url":"Observation"}},{"fullUrl":"Condition/811adb80-6da2-4bbd-9c3f-b2c728ea6d1c","resource":{"resourceType":"Condition","id":"811adb80-6da2-4bbd-9c3f-b2c728ea6d1c","code":{"coding":[{"system":"http://snomed.info/sct","code":"79342006"}]},"subject":{"reference":"Patient/b295612b-f47e-4b84-957b-ac9fd4b9e0a6"},"onsetDateTime":"2022-07-22T00:00:00+00:00"},"request":{"method":"POST","url":"Condition"}},{"fullUrl":"Condition/c1427ffc-9ced-4c98-a1b6-d418c6d32d0e","resource":{"resourceType":"Condition","id":"c1427ffc-9ced-4c98-a1b6-d418c6d32d0e","code":{"coding":[{"system":"http://snomed.info/sct","code":"56317004"}]},"subject":{"reference":"Patient/b295612b-f47e-4b84-957b-ac9fd4b9e0a6"},"onsetDateTime":"2022-09-04T00:00:00+00:00"},"request":{"method":"POST","url":"Condition"}},{"fullUrl":"Condition/ae1aa8e3-9e30-4915-85a5-e8ef82225b45","resource":{"resourceType":"Condition","id":"ae1aa8e3-9e30-4915-85a5-e8ef82225b45","code":{"coding":[{"system":"http://snomed.info/sct","code":"56317004"}]},"subject":{"reference":"Patient/b295612b-f47e-4b84-957b-ac9fd4b9e0a6"},"onsetDateTime":"2022-11-02T00:00:00+00:00"},"request":{"method":"POST","url":"Condition"}},{"fullUrl":"Observation/90ee3731-5506-4e03-b667-7bcdc55a453f","resource":{"resourceType":"Observation","id":"90ee3731-5506-4e03-b667-7bcdc55a453f","status":"final","code":{"coding":[{"system":"http://loinc.org","code":"26464-8"}]},"subject":{"reference":"Patient/b295612b-f47e-4b84-957b-ac9fd4b9e0a6"},"effectiveDateTime":"2022-11-07T00:00:00+00:00","valueQuantity":{"value":6.2}},"request":{"method":"POST","url":"Observation"}},{"fullUrl":"Observation/548ba7df-dbb8-4710-9f2f-eb4516ecbb7f","resource":{"resourceType":"Observation","id":"548ba7df-dbb8-4710-9f2f-eb4516ecbb7f","status":"final","code":{"coding":[{"system":"http://loinc.org","code":"6690-2"}]},"subject":{"reference":"Patient/b295612b-f47e-4b84-957b-ac9fd4b9e0a6"},"effectiveDateTime":"2022-03-08T00:00:00+00:00","valueQuantity":{"value":10.7}},"request":{"method":"POST","url":"Observation"}},{"fullUrl":"Observation/8d5547f0-bd87-413c-b806-301335a2045a","resource":{"resourceType":"Observation","id":"8d5547f0-bd87-413c-b806-301335a2045a","status":"final","code":{"coding":[{"system":"http://loinc.org","code":"804-5"}]},"subject":{"reference":"Patient/b295612b-f47e-4b84-957b-ac9fd4b9e0a6"},"effectiveDateTime":"2022-10-07T00:00:00+00:00","valueCodeableConcept":{"coding":[{"system":"snomed","code":"123456","display":"fake snomed"}]}},"request":{"method":"POST","url":"Observation"}},{"fullUrl":"Observation/6fbae535-45a5-4ec8-bbfb-6789218be1c3","resource":{"resourceType":"Observation","id":"6fbae535-45a5-4ec8-bbfb-6789218be1c3","status":"final","code":{"coding":[{"system":"http://loinc.org","code":"26464-8"}]},"subject":{"reference":"Patient/b295612b-f47e-4b84-957b-ac9fd4b9e0a6"},"effectiveDateTime":"2022-05-22T00:00:00+00:00","valueCodeableConcept":{"coding":[{"system":"snomed","code":"123456","display":"fake snomed"}]}},"request":{"method":"POST","url":"Observation"}},{"fullUrl":"Observation/d49f450a-c8aa-449a-b573-850983e9dff6","resource":{"resourceType":"Observation","id":"d49f450a-c8aa-449a-b573-850983e9dff6","status":"final","code":{"coding":[{"system":"http://loinc.org","code":"6690-2"}]},"subject":{"reference":"Patient/b295612b-f47e-4b84-957b-ac9fd4b9e0a6"},"effectiveDateTime":"2022-03-07T00:00:00+00:00","valueCodeableConcept":{"coding":[{"system":"snomed","code":"123456","display":"fake snomed"}]}},"request":{"method":"POST","url":"Observation"}},{"fullUrl":"Observation/cd5a9c2e-c550-4844-9384-49b4e1c806a0","resource":{"resourceType":"Observation","id":"cd5a9c2e-c550-4844-9384-49b4e1c806a0","status":"final","code":{"coding":[{"system":"http://loinc.org","code":"49498-9"}]},"subject":{"reference":"Patient/b295612b-f47e-4b84-957b-ac9fd4b9e0a6"},"effectiveDateTime":"2022-03-06T00:00:00+00:00"},"request":{"method":"POST","url":"Observation"}},{"fullUrl":"Observation/ba6fa163-1a67-4c3f-8553-a0f782cf24a5","resource":{"resourceType":"Observation","id":"ba6fa163-1a67-4c3f-8553-a0f782cf24a5","status":"final","code":{"coding":[{"system":"http://loinc.org","code":"49498-9"}]},"subject":{"reference":"Patient/b295612b-f47e-4b84-957b-ac9fd4b9e0a6"},"effectiveDateTime":"2022-06-21T00:00:00+00:00"},"request":{"method":"POST","url":"Observation"}},{"fullUrl":"Procedure/caf9fddd-f650-45c6-aa8d-47a107e19cf7","resource":{"resourceType":"Procedure","id":"caf9fddd-f650-45c6-aa8d-47a107e19cf7","status":"completed","code":{"coding":[{"system":"http://snomed.info/sct","code":"189009"}]},"subject":{"reference":"Patient/b295612b-f47e-4b84-957b-ac9fd4b9e0a6"},"performedDateTime":"2022-11-28T00:00:00+00:00"},"request":{"method":"POST","url":"Procedure"}},{"fullUrl":"Procedure/c8b27428-cacd-41ef-8275-f03846cf3169","resource":{"resourceType":"Procedure","id":"c8b27428-cacd-41ef-8275-f03846cf3169","status":"completed","code":{"coding":[{"system":"http://snomed.info/sct","code":"647000"}]},"subject":{"reference":"Patient/b295612b-f47e-4b84-957b-ac9fd4b9e0a6"},"performedDateTime":"2022-07-15T00:00:00+00:00"},"request":{"method":"POST","url":"Procedure"}},{"fullUrl":"Procedure/624f4b65-7aee-4564-b5cc-daed6b1a2eb8","resource":{"resourceType":"Procedure","id":"624f4b65-7aee-4564-b5cc-daed6b1a2eb8","status":"completed","code":{"coding":[{"system":"http://snomed.info/sct","code":"189009"}]},"subject":{"reference":"Patient/b295612b-f47e-4b84-957b-ac9fd4b9e0a6"},"performedDateTime":"2022-10-09T00:00:00+00:00"},"request":{"method":"POST","url":"Procedure"}},{"fullUrl":"MedicationStatement/0b66bf98-6ca5-4e99-8407-91cfe493354d","resource":{"resourceType":"MedicationStatement","id":"0b66bf98-6ca5-4e99-8407-91cfe493354d","status":"completed","medicationCodeableConcept":{"coding":[{"system":"http://www.nlm.nih.gov/research/umls/rxnorm","code":"7980"}]},"subject":{"reference":"Patient/b295612b-f47e-4b84-957b-ac9fd4b9e0a6"},"effectiveDateTime":"2022-09-10T00:00:00+00:00","dosage":[{"doseAndRate":[{"doseQuantity":{"value":1,"unit":"TAB","system":"http://terminology.hl7.org/CodeSystem/v3-orderableDrugForm","code":"TAB"}}]}]},"request":{"method":"POST","url":"MedicationStatement"}},{"fullUrl":"MedicationStatement/98be9782-cf42-4333-894c-eb860aeda344","resource":{"resourceType":"MedicationStatement","id":"98be9782-cf42-4333-894c-eb860aeda344","status":"completed","medicationCodeableConcept":{"coding":[{"system":"http://www.nlm.nih.gov/research/umls/rxnorm","code":"8698"}]},"subject":{"reference":"Patient/b295612b-f47e-4b84-957b-ac9fd4b9e0a6"},"effectiveDateTime":"2022-07-09T00:00:00+00:00","dosage":[{"doseAndRate":[{"doseQuantity":{"value":2,"unit":"TAB","system":"http://terminology.hl7.org/CodeSystem/v3-orderableDrugForm","code":"TAB"}}]}]},"request":{"method":"POST","url":"MedicationStatement"}},{"fullUrl":"MedicationStatement/c139dbb9-43af-40ba-adb4-98e4732c3b10","resource":{"resourceType":"MedicationStatement","id":"c139dbb9-43af-40ba-adb4-98e4732c3b10","status":"completed","medicationCodeableConcept":{"coding":[{"system":"http://www.nlm.nih.gov/research/umls/rxnorm","code":"18631"}]},"subject":{"reference":"Patient/b295612b-f47e-4b84-957b-ac9fd4b9e0a6"},"effectiveDateTime":"2022-09-25T00:00:00+00:00","dosage":[{"doseAndRate":[{"doseQuantity":{"value":2,"unit":"TAB","system":"http://terminology.hl7.org/CodeSystem/v3-orderableDrugForm","code":"TAB"}}]}]},"request":{"method":"POST","url":"MedicationStatement"}},{"fullUrl":"MedicationStatement/b3e83645-4349-4258-81b7-a4cb3b970425","resource":{"resourceType":"MedicationStatement","id":"b3e83645-4349-4258-81b7-a4cb3b970425","status":"completed","medicationCodeableConcept":{"coding":[{"system":"http://www.nlm.nih.gov/research/umls/rxnorm","code":"7980"}]},"subject":{"reference":"Patient/b295612b-f47e-4b84-957b-ac9fd4b9e0a6"},"effectiveDateTime":"2022-11-07T00:00:00+00:00","dosage":[{"doseAndRate":[{"doseQuantity":{"value":5.1,"unit":"TAB","system":"http://terminology.hl7.org/CodeSystem/v3-orderableDrugForm","code":"TAB"}}]}]},"request":{"method":"POST","url":"MedicationStatement"}},{"fullUrl":"MedicationStatement/92dfff68-b81b-41d0-9ed4-c3632d36f769","resource":{"resourceType":"MedicationStatement","id":"92dfff68-b81b-41d0-9ed4-c3632d36f769","status":"completed","medicationCodeableConcept":{"coding":[{"system":"http://www.nlm.nih.gov/research/umls/rxnorm","code":"7984"}]},"subject":{"reference":"Patient/b295612b-f47e-4b84-957b-ac9fd4b9e0a6"},"effectiveDateTime":"2022-05-24T00:00:00+00:00","dosage":[{"doseAndRate":[{"doseQuantity":{"value":6.5,"unit":"TAB","system":"http://terminology.hl7.org/CodeSystem/v3-orderableDrugForm","code":"TAB"}}]}]},"request":{"method":"POST","url":"MedicationStatement"}},{"fullUrl":"MedicationStatement/158cd1e6-8be7-4933-8be0-84b10fb34171","resource":{"resourceType":"MedicationStatement","id":"158cd1e6-8be7-4933-8be0-84b10fb34171","status":"completed","medicationCodeableConcept":{"coding":[{"system":"http://www.nlm.nih.gov/research/umls/rxnorm","code":"18631"}]},"subject":{"reference":"Patient/b295612b-f47e-4b84-957b-ac9fd4b9e0a6"},"effectiveDateTime":"2022-11-17T00:00:00+00:00","dosage":[{"doseAndRate":[{"doseQuantity":{"value":4.9,"unit":"TAB","system":"http://terminology.hl7.org/CodeSystem/v3-orderableDrugForm","code":"TAB"}}]}]},"request":{"method":"POST","url":"MedicationStatement"}},{"fullUrl":"Encounter/e5497070-d011-426e-81a9-7686dbdb10af","resource":{"resourceType":"Encounter","id":"e5497070-d011-426e-81a9-7686dbdb10af","status":"finished","class":{"system":"http://terminology.hl7.org/CodeSystem/v3-ActCode","code":"IMP","display":"inpatient encounter"},"type":[{"coding":[{"system":"http://terminology.hl7.org/CodeSystem/encounter-type","code":"CCS60"}]}],"subject":{"reference":"Patient/b295612b-f47e-4b84-957b-ac9fd4b9e0a6"},"period":{"start":"2022-07-18T00:00:00+00:00","end":"2022-07-21T00:00:00+00:00"}},"request":{"method":"POST","url":"Encounter"}},{"fullUrl":"Encounter/d019c47c-25ca-42e1-a530-c16c924cb7da","resource":{"resourceType":"Encounter","id":"d019c47c-25ca-42e1-a530-c16c924cb7da","status":"finished","class":{"system":"http://terminology.hl7.org/CodeSystem/v3-ActCode","code":"IMP","display":"inpatient encounter"},"type":[{"coding":[{"system":"http://terminology.hl7.org/CodeSystem/encounter-type","code":"ADMS"}]}],"subject":{"reference":"Patient/b295612b-f47e-4b84-957b-ac9fd4b9e0a6"},"period":{"start":"2022-02-05T00:00:00+00:00","end":"2022-02-14T00:00:00+00:00"}},"request":{"method":"POST","url":"Encounter"}},{"fullUrl":"Encounter/ee53aeb9-57dc-4e6d-8f3d-9219fcab1f10","resource":{"resourceType":"Encounter","id":"ee53aeb9-57dc-4e6d-8f3d-9219fcab1f10","status":"finished","class":{"system":"http://terminology.hl7.org/CodeSystem/v3-ActCode","code":"VR","display":"virtual"},"type":[{"coding":[{"system":"http://terminology.hl7.org/CodeSystem/encounter-type","code":"ADMS"}]}],"subject":{"reference":"Patient/b295612b-f47e-4b84-957b-ac9fd4b9e0a6"},"period":{"start":"2022-12-29T00:00:00+00:00","end":"2022-12-31T00:00:00+00:00"}},"request":{"method":"POST","url":"Encounter"}},{"fullUrl":"Encounter/3ef51354-6e63-4f7c-8931-f4bd39e64893","resource":{"resourceType":"Encounter","id":"3ef51354-6e63-4f7c-8931-f4bd39e64893","status":"finished","class":{"system":"http://terminology.hl7.org/CodeSystem/v3-ActCode","code":"HH","display":"home health"},"type":[{"coding":[{"system":"http://terminology.hl7.org/CodeSystem/encounter-type","code":"ADMS"}]}],"subject":{"reference":"Patient/b295612b-f47e-4b84-957b-ac9fd4b9e0a6"},"period":{"start":"2022-07-22T00:00:00+00:00","end":"2022-07-29T00:00:00+00:00"}},"request":{"method":"POST","url":"Encounter"}},{"fullUrl":"Location/a9d244c1-5e64-438d-93ca-b5829a4baf99","resource":{"resourceType":"Location","id":"a9d244c1-5e64-438d-93ca-b5829a4baf99","status":"active","name":"Horton-Bell","telecom":[{"system":"phone","value":"+1-304-409-5288","use":"mobile"}],"address":{"use":"work","line":["608 Wagner Extensions Apt. 631"],"city":"Port Karaburgh","state":"TX","postalCode":"32431"}},"request":{"method":"POST","url":"Location"}},{"fullUrl":"Observation/ef092a15-7d4b-48b8-b50a-40f6323b4f01","resource":{"resourceType":"Observation","id":"ef092a15-7d4b-48b8-b50a-40f6323b4f01","status":"final","code":{"coding":[{"system":"http://loinc.org","code":"81956-5"}]},"subject":{"reference":"Patient/b295612b-f47e-4b84-957b-ac9fd4b9e0a6"},"effectiveDateTime":"2022-04-16T00:00:00+00:00","valueDateTime":"2022-02-03T00:00:00+00:00"},"request":{"method":"POST","url":"Observation"}},{"fullUrl":"Patient/773229d4-4341-4efe-8e2c-4246765d2393","resource":{"resourceType":"Patient","id":"773229d4-4341-4efe-8e2c-4246765d2393","identifier":[{"type":{"coding":[{"system":"http://terminology.hl7.org/CodeSystem/v2-0203","code":"MR"}]},"system":"urn:fhirgen:mrn","value":"436-07-7544"},{"system":"http://hl7.org/fhir/sid/us-ssn","value":"355-34-3727"}],"name":[{"use":"official","family":"Cruz","given":["Jessica"]},{"use":"maiden","family":"Russell"}],"telecom":[{"system":"phone","value":"711.307.5388","use":"work"},{"system":"email","value":"justingonzalez@hotmail.com","use":"mobile"}],"gender":"female","birthDate":"2002-06-28","address":[{"use":"home","line":["39183 Perry Ridge"],"city":"Lake Samantha","state":"SD","postalCode":"77741"},{"use":"old","line":["36553 Jerry Stravenue"],"city":"Mollyland","state":"MN","postalCode":"99459"}],"maritalStatus":{"coding":[{"system":"http://terminology.hl7.org/CodeSystem/v3-MaritalStatus","code":"S","display":"Never Married"}]}},"request":{"method":"POST","url":"Patient"}},{"fullUrl":"Observation/eef6ea88-4a0d-4964-8884-978c9df56b1a","resource":{"resourceType":"Observation","id":"eef6ea88-4a0d-4964-8884-978c9df56b1a","status":"final","code":{"coding":[{"system":"http://loinc.org","code":"26009-1"}]},"subject":{"reference":"Patient/773229d4-4341-4efe-8e2c-4246765d2393"},"effectiveDateTime":"2022-08-30T00:00:00+00:00","valueRatio":{"numerator":{"value":1},"denominator":{"value":32}}},"request":{"method":"POST","url":"Observation"}},{"fullUrl":"Observation/87bde86b-2970-46b3-9e7a-affa292c924a","resource":{"resourceType":"Observation","id":"87bde86b-2970-46b3-9e7a-affa292c924a","status":"final","code":{"coding":[{"system":"http://loinc.org","code":"50695-6"}]},"subject":{"reference":"Patient/773229d4-4341-4efe-8e2c-4246765d2393"},"effectiveDateTime":"2022-03-18T00:00:00+00:00","valueRatio":{"numerator":{"value":1},"denominator":{"value":4}}},"request":{"method":"POST","url":"Observation"}},{"fullUrl":"Condition/55ac252e-1382-4eba-985a-a018968d2f46","resource":{"resourceType":"Condition","id":"55ac252e-1382-4eba-985a-a018968d2f46","code":{"coding":[{"system":"http://snomed.info/sct","code":"71315007"}]},"subject":{"reference":"Patient/773229d4-4341-4efe-8e2c-4246765d2393"},"onsetDateTime":"2022-06-13T00:00:00+00:00"},"request":{"method":"POST","url":"Condition"}},{"fullUrl":"Condition/0fe727e4-9c14-4c70-ae17-99e879024368","resource":{"resourceType":"Condition","id":"0fe727e4-9c14-4c70-ae17-99e879024368","code":{"coding":[{"system":"http://snomed.info/sct","code":"297123002"}]},"subject":{"reference":"Patient/773229d4-4341-4efe-8e2c-4246765d2393"},"onsetDateTime":"2022-10-28T00:00:00+00:00"},"request":{"method":"POST","url":"Condition"}},{"fullUrl":"Condition/69268f7c-c7eb-41a8-ac02-0dbe1b270b27","resource":{"resourceType":"Condition","id":"69268f7c-c7eb-41a8-ac02-0dbe1b270b27","code":{"coding":[{"system":"http://snomed.info/sct","code":"3951002"}]},"subject":{"reference":"Patient/773229d4-4341-4efe-8e2c-4246765d2393"},"onsetDateTime":"2022-01-06T00:00:00+00:00"},"request":{"method":"POST","url":"Condition"}},{"fullUrl":"Condition/bb7896db-7eec-41e7-b485-6810c5b9cc20","resource":{"resourceType":"Condition","id":"bb7896db-7eec-41e7-b485-6810c5b9cc20","code":{"coding":[{"system":"http://snomed.info/sct","code":"56317004"}]},"subject":{"reference":"Patient/773229d4-4341-4efe-8e2c-4246765d2393"},"onsetDateTime":"2022-10-18T00:00:00+00:00"},"request":{"method":"POST","url":"Condition"}},{"fullUrl":"Condition/230533f1-e5de-4193-8416-ef0e8edd422f","resource":{"resourceType":"Condition","id":"230533f1-e5de-4193-8416-ef0e8edd422f","code":{"coding":[{"system":"http://snomed.info/sct","code":"71315007"}]},"subject":{"reference":"Patient/773229d4-4341-4efe-8e2c-4246765d2393"},"onsetDateTime":"2022-01-20T00:00:00+00:00"},"request":{"method":"POST","url":"Condition"}},{"fullUrl":"Condition/32b6fd6b-0097-48bb-9e46-a65a61e90514","resource":{"resourceType":"Condition","id":"32b6fd6b-0097-48bb-9e46-a65a61e90514","code":{"coding":[{"system":"http://snomed.info/sct","code":"79342006"}]},"subject":{"reference":"Patient/773229d4-4341-4efe-8e2c-4246765d2393"},"onsetDateTime":"2022-05-08T00:00:00+00:00"},"request":{"method":"POST","url":"Condition"}},{"fullUrl":"Condition/0c2e7e5c-6f51-4f2f-acf4-39c25ae2a874","resource":{"resourceType":"Condition","id":"0c2e7e5c-6f51-4f2f-acf4-39c25ae2a874","code":{"coding":[{"system":"http://snomed.info/sct","code":"386661006"}]},"subject":{"reference":"Patient/773229d4-4341-4efe-8e2c-4246765d2393"},"onsetDateTime":"2022-07-17T00:00:00+00:00"},"request":{"method":"POST","url":"Condition"}},{"fullUrl":"Condition/fe254dfc-d5eb-491b-9f79-24a7dc9f9911","resource":{"resourceType":"Condition","id":"fe254dfc-d5eb-491b-9f79-24a7dc9f9911","code":{"coding":[{"system":"http://snomed.info/sct","code":"405737000"}]},"subject":{"reference":"Patient/773229d4-4341-4efe-8e2c-4246765d2393"},"onsetDateTime":"2022-02-06T00:00:00+00:00"},"request":{"method":"POST","url":"Condition"}},{"fullUrl":"Observation/52bc5209-33a9-48f7-bab0-1dc481d089e0","resource":{"resourceType":"Observation","id":"52bc5209-33a9-48f7-bab0-1dc481d089e0","status":"final","code":{"coding":[{"system":"http://loinc.org","code":"6690-2"}]},"subject":{"reference":"Patient/773229d4-4341-4efe-8e2c-4246765d2393"},"effectiveDateTime":"2022-03-31T00:00:00+00:00","valueQuantity":{"value":6}},"request":{"method":"POST","url":"Observation"}},{"fullUrl":"Observation/20cfb3ff-6d58-44ca-bbee-f6e1dbb34cc0","resource":{"resourceType":"Observation","id":"20cfb3ff-6d58-44ca-bbee-f6e1dbb34cc0","status":"final","code":{"coding":[{"system":"http://www.ama-assn.org/go/cpt","code":"85048"}]},"subject":{"reference":"Patient/773229d4-4341-4efe-8e2c-4246765d2393"},"effectiveDateTime":"2022-05-22T00:00:00+00:00","valueQuantity":{"value":5.5}},"request":{"method":"POST","url":"Observation"}},{"fullUrl":"Observation/515e3c9e-f918-4871-9819-a607aa2187c1","resource":{"resourceType":"Observation","id":"515e3c9e-f918-4871-9819-a607aa2187c1","status":"final","code":{"coding":[{"system":"http://loinc.org","code":"26464-8"}]},"subject":{"reference":"Patient/773229d4-4341-4efe-8e2c-4246765d2393"},"effectiveDateTime":"2022-04-05T00:00:00+00:00","valueQuantity":{"value":10.9}},"request":{"method":"POST","url":"Observation"}},{"fullUrl":"Observation/0c589987-f428-4a34-b667-1986c999a163","resource":{"resourceType":"Observation","id":"0c589987-f428-4a34-b667-1986c999a163","status":"final","code":{"coding":[{"system":"http://loinc.org","code":"26464-8"}]},"subject":{"reference":"Patient/773229d4-4341-4efe-8e2c-4246765d2393"},"effectiveDateTime":"2022-04-12T00:00:00+00:00","valueCodeableConcept":{"coding":[{"system":"snomed","code":"123456","display":"fake snomed"}]}},"request":{"method":"POST","url":"Observation"}},{"fullUrl":"Observation/8b119fca-9cfc-4dbf-9a0a-043552f98684","resource":{"resourceType":"Observation","id":"8b119fca-9cfc-4dbf-9a0a-043552f98684","status":"final","code":{"coding":[{"system":"http://loinc.org","code":"804-5"}]},"subject":{"reference":"Patient/773229d4-4341-4efe-8e2c-4246765d2393"},"effectiveDateTime":"2022-06-13T00:00:00+00:00","valueCodeableConcept":{"coding":[{"system":"snomed","code":"123456","display":"fake snomed"}]}},"request":{"method":"POST","url":"Observation"}},{"fullUrl":"Observation/91704716-7592-4625-9d79-671171d28f50","resource":{"resourceType":"Observation","id":"91704716-7592-4625-9d79-671171d28f50","status":"final","code":{"coding":[{"system":"http://loinc.org","code":"49498-9"}]},"subject":{"reference":"Patient/773229d4-4341-4efe-8e2c-4246765d2393"},"effectiveDateTime":"2022-09-09T00:00:00+00:00"},"request":{"method":"POST","url":"Observation"}},{"fullUrl":"Observation/a16c6275-2f44-4418-836e-691e4812485b","resource":{"resourceType":"Observation","id":"a16c6275-2f44-4418-836e-691e4812485b","status":"final","code":{"coding":[{"system":"http://loinc.org","code":"49498-9"}]},"subject":{"reference":"Patient/773229d4-4341-4efe-8e2c-4246765d2393"},"effectiveDateTime":"2022-09-24T00:00:00+00:00"},"request":{"method":"POST","url":"Observation"}},{"fullUrl":"Observation/e56e1093-1671-4bb4-a670-6e21e03e16b5","resource":{"resourceType":"Observation","id":"e56e1093-1671-4bb4-a670-6e21e03e16b5","status":"final","code":{"coding":[{"system":"http://loinc.org","code":"49498-9"}]},"subject":{"reference":"Patient/773229d4-4341-4efe-8e2c-4246765d2393"},"effectiveDateTime":"2022-11-23T00:00:00+00:00"},"request":{"method":"POST","url":"Observation"}},{"fullUrl":"Procedure/a08c067a-21c8-4711-a932-8466cbfc7518","resource":{"resourceType":"Procedure","id":"a08c067a-21c8-4711-a932-8466cbfc7518","status":"completed","code":{"coding":[{"system":"http://snomed.info/sct","code":"115006"}]},"subject":{"reference":"Patient/773229d4-4341-4efe-8e2c-4246765d2393"},"performedDateTime":"2022-04-01T00:00:00+00:00"},"request":{"method":"POST","url":"Procedure"}},{"fullUrl":"Procedure/7b477a5c-8f2f-4444-837c-2322de0b4b5f","resource":{"resourceType":"Procedure","id":"7b477a5c-8f2f-4444-837c-2322de0b4b5f","status":"completed","code":{"coding":[{"system":"http://snomed.info/sct","code":"647000"}]},"subject":{"reference":"Patient/773229d4-4341-4efe-8e2c-4246765d2393"},"performedDateTime":"2022-04-14T00:00:00+00:00"},"request":{"method":"POST","url":"Procedure"}},{"fullUrl":"Procedure/4ba2de2c-be90-4649-8640-86a67f9a770f","resource":{"resourceType":"Procedure","id":"4ba2de2c-be90-4649-8640-86a67f9a770f","status":"completed","code":{"coding":[{"system":"http://snomed.info/sct","code":"104001"}]},"subject":{"reference":"Patient/773229d4-4341-4efe-8e2c-4246765d2393"},"performedDateTime":"2022-05-04T00:00:00+00:00"},"request":{"method":"POST","url":"Procedure"}},{"fullUrl":"MedicationStatement/5ba51c67-5e83-4937-89c1-21d9dedb8abd","resource":{"resourceType":"MedicationStatement","id":"5ba51c67-5e83-4937-89c1-21d9dedb8abd","status":"completed","medicationCodeableConcept":{"coding":[{"system":"http://www.nlm.nih.gov/research/umls/rxnorm","code":"7984"}]},"subject":{"reference":"Patient/773229d4-4341-4efe-8e2c-4246765d2393"},"effectiveDateTime":"2022-03-22T00:00:00+00:00","dosage":[{"doseAndRate":[{"doseQuantity":{"value":1,"unit":"TAB","system":"http://terminology.hl7.org/CodeSystem/v3-orderableDrugForm","code":"TAB"}}]}]},"request":{"method":"POST","url":"MedicationStatement"}},{"fullUrl":"MedicationStatement/523b5b52-7796-42a1-8603-ca3095e5b1ad","resource":{"resourceType":"MedicationStatement","id":"523b5b52-7796-42a1-8603-ca3095e5b1ad","status":"completed","medicationCodeableConcept":{"coding":[{"system":"http://www.nlm.nih.gov/research/umls/rxnorm","code":"7984"}]},"subject":{"reference":"Patient/773229d4-4341-4efe-8e2c-4246765d2393"},"effectiveDateTime":"2022-02-01T00:00:00+00:00","dosage":[{"doseAndRate":[{"doseQuantity":{"value":1,"unit":"TAB","system":"http://terminology.hl7.org/CodeSystem/v3-orderableDrugForm","code":"TAB"}}]}]},"request":{"method":"POST","url":"MedicationStatement"}},{"fullUrl":"MedicationStatement/f43ec389-422c-4fe9-a72c-1aeb1d515e2a","resource":{"resourceType":"MedicationStatement","id":"f43ec389-422c-4fe9-a72c-1aeb1d515e2a","status":"completed","medicationCodeableConcept":{"coding":[{"system":"http://www.nlm.nih.gov/research/umls/rxnorm","code":"18631"}]},"subject":{"reference":"Patient/773229d4-4341-4efe-8e2c-4246765d2393"},"effectiveDateTime":"2022-07-10T00:00:00+00:00","dosage":[{"doseAndRate":[{"doseQuantity":{"value":2,"unit":"TAB","system":"http://terminology.hl7.org/CodeSystem/v3-orderableDrugForm","code":"TAB"}}]}]},"request":{"method":"POST","url":"MedicationStatement"}},{"fullUrl":"MedicationStatement/733b5254-6b53-4866-954f-d4025b5de24c","resource":{"resourceType":"MedicationStatement","id":"733b5254-6b53-4866-954f-d4025b5de24c","status":"completed","medicationCodeableConcept":{"coding":[{"system":"http://www.nlm.nih.gov/research/umls/rxnorm","code":"10395"}]},"subject":{"reference":"Patient/773229d4-4341-4efe-8e2c-4246765d2393"},"effectiveDateTime":"2022-01-20T00:00:00+00:00","dosage":[{"doseAndRate":[{"doseQuantity":{"value":1,"unit":"TAB","system":"http://terminology.hl7.org/CodeSystem/v3-orderableDrugForm","code":"TAB"}}]}]},"request":{"method":"POST","url":"MedicationStatement"}},{"fullUrl":"MedicationStatement/2dd1d894-8bac-41c3-9a9b-d86f1afa1dcd","resource":{"resourceType":"MedicationStatement","id":"2dd1d894-8bac-41c3-9a9b-d86f1afa1dcd","status":"completed","medicationCodeableConcept":{"coding":[{"system":"http://www.nlm.nih.gov/research/umls/rxnorm","code":"18631"}]},"subject":{"reference":"Patient/773229d4-4341-4efe-8e2c-4246765d2393"},"effectiveDateTime":"2022-07-15T00:00:00+00:00","dosage":[{"doseAndRate":[{"doseQuantity":{"value":2,"unit":"TAB","system":"http://terminology.hl7.org/CodeSystem/v3-orderableDrugForm","code":"TAB"}}]}]},"request":{"method":"POST","url":"MedicationStatement"}},{"fullUrl":"MedicationStatement/97ea407e-5aa6-457e-bcdd-bdc5c3c5f23e","resource":{"resourceType":"MedicationStatement","id":"97ea407e-5aa6-457e-bcdd-bdc5c3c5f23e","status":"completed","medicationCodeableConcept":{"coding":[{"system":"http://www.nlm.nih.gov/research/umls/rxnorm","code":"7984"}]},"subject":{"reference":"Patient/773229d4-4341-4efe-8e2c-4246765d2393"},"effectiveDateTime":"2022-02-08T00:00:00+00:00","dosage":[{"doseAndRate":[{"doseQuantity":{"value":1,"unit":"TAB","system":"http://terminology.hl7.org/CodeSystem/v3-orderableDrugForm","code":"TAB"}}]}]},"request":{"method":"POST","url":"MedicationStatement"}},{"fullUrl":"MedicationStatement/aeebd548-6610-4ef2-90c7-14ba7b0198b8","resource":{"resourceType":"MedicationStatement","id":"aeebd548-6610-4ef2-90c7-14ba7b0198b8","status":"completed","medicationCodeableConcept":{"coding":[{"system":"http://www.nlm.nih.gov/research/umls/rxnorm","code":"8698"}]},"subject":{"reference":"Patient/773229d4-4341-4efe-8e2c-4246765d2393"},"effectiveDateTime":"2022-01-21T00:00:00+00:00","dosage":[{"doseAndRate":[{"doseQuantity":{"value":1,"unit":"TAB","system":"http://terminology.hl7.org/CodeSystem/v3-orderableDrugForm","code":"TAB"}}]}]},"request":{"method":"POST","url":"MedicationStatement"}},{"fullUrl":"MedicationStatement/e92b870e-9c50-431e-b730-5fc94c624524","resource":{"resourceType":"MedicationStatement","id":"e92b870e-9c50-431e-b730-5fc94c624524","status":"completed","medicationCodeableConcept":{"coding":[{"system":"http://www.nlm.nih.gov/research/umls/rxnorm","code":"18631"}]},"subject":{"reference":"Patient/773229d4-4341-4efe-8e2c-4246765d2393"},"effectiveDateTime":"2022-05-08T00:00:00+00:00","dosage":[{"doseAndRate":[{"doseQuantity":{"value":2,"unit":"TAB","system":"http://terminology.hl7.org/CodeSystem/v3-orderableDrugForm","code":"TAB"}}]}]},"request":{"method":"POST","url":"MedicationStatement"}},{"fullUrl":"MedicationStatement/18116fdc-808f-4f27-be54-bf3681998c3e","resource":{"resourceType":"MedicationStatement","id":"18116fdc-808f-4f27-be54-bf3681998c3e","status":"completed","medicationCodeableConcept":{"coding":[{"system":"http://www.nlm.nih.gov/research/umls/rxnorm","code":"18631"}]},"subject":{"reference":"Patient/773229d4-4341-4efe-8e2c-4246765d2393"},"effectiveDateTime":"2022-10-31T00:00:00+00:00","dosage":[{"doseAndRate":[{"doseQuantity":{"value":4.6,"unit":"TAB","system":"http://terminology.hl7.org/CodeSystem/v3-orderableDrugForm","code":"TAB"}}]}]},"request":{"method":"POST","url":"MedicationStatement"}},{"fullUrl":"MedicationStatement/7c7b52aa-ed9e-44bf-9339-488923209512","resource":{"resourceType":"MedicationStatement","id":"7c7b52aa-ed9e-44bf-9339-488923209512","status":"completed","medicationCodeableConcept":{"coding":[{"system":"http://www.nlm.nih.gov/research/umls/rxnorm","code":"2193"}]},"subject":{"reference":"Patient/773229d4-4341-4efe-8e2c-4246765d2393"},"effectiveDateTime":"2022-05-31T00:00:00+00:00","dosage":[{"doseAndRate":[{"doseQuantity":{"value":3.5,"unit":"TAB","system":"http://terminology.hl7.org/CodeSystem/v3-orderableDrugForm","code":"TAB"}}]}]},"request":{"method":"POST","url":"MedicationStatement"}},{"fullUrl":"Encounter/7e417b11-e324-444d-949d-94aa7375bb86","resource":{"resourceType":"Encounter","id":"7e417b11-e324-444d-949d-94aa7375bb86","status":"finished","class":{"system":"http://terminology.hl7.org/CodeSystem/v3-ActCode","code":"IMP","display":"inpatient encounter"},"type":[{"coding":[{"system":"http://terminology.hl7.org/CodeSystem/encounter-type","code":"ADMS"}]}],"subject":{"reference":"Patient/773229d4-4341-4efe-8e2c-4246765d2393"},"period":{"start":"2022-10-30T00:00:00+00:00","end":"2022-11-07T00:00:00+00:00"}},"request":{"method":"POST","url":"Encounter"}},{"fullUrl":"Encounter/65734f28-f513-4a15-ac00-5367f06156a8","resource":{"resourceType":"Encounter","id":"65734f28-f513-4a15-ac00-5367f06156a8","status":"finished","class":{"system":"http://terminology.hl7.org/CodeSystem/v3-ActCode","code":"IMP","display":"inpatient encounter"},"type":[{"coding":[{"system":"http://terminology.hl7.org/CodeSystem/encounter-type","code":"OKI"}]}],"subject":{"reference":"Patient/773229d4-4341-4efe-8e2c-4246765d2393"},"period":{"start":"2022-11-01T00:00:00+00:00","end":"2022-11-01T00:00:00+00:00"}},"request":{"method":"POST","url":"Encounter"}},{"fullUrl":"Encounter/1e5b32b7-da0d-4524-aae2-5bb099bd8b23","resource":{"resourceType":"Encounter","id":"1e5b32b7-da0d-4524-aae2-5bb099bd8b23","status":"finished","class":{"system":"http://terminology.hl7.org/CodeSystem/v3-ActCode","code":"IMP","display":"inpatient encounter"},"type":[{"coding":[{"system":"http://terminology.hl7.org/CodeSystem/encounter-type","code":"CCS60"}]}],"subject":{"reference":"Patient/773229d4-4341-4efe-8e2c-4246765d2393"},"period":{"start":"2022-07-21T00:00:00+00:00","end":"2022-07-24T00:00:00+00:00"}},"request":{"method":"POST","url":"Encounter"}},{"fullUrl":"Encounter/008f482c-cdb5-461e-ae4d-62236b487374","resource":{"resourceType":"Encounter","id":"008f482c-cdb5-461e-ae4d-62236b487374","status":"finished","class":{"system":"http://terminology.hl7.org/CodeSystem/v3-ActCode","code":"PRENC","display":"pre-admission"},"type":[{"coding":[{"system":"http://terminology.hl7.org/CodeSystem/encounter-type","code":"ADMS"}]}],"subject":{"reference":"Patient/773229d4-4341-4efe-8e2c-4246765d2393"},"period":{"start":"2022-02-04T00:00:00+00:00","end":"2022-02-13T00:00:00+00:00"}},"request":{"method":"POST","url":"Encounter"}},{"fullUrl":"Encounter/7686f70a-732b-4c20-b629-7c164012bcdc","resource":{"resourceType":"Encounter","id":"7686f70a-732b-4c20-b629-7c164012bcdc","status":"finished","class":{"system":"http://terminology.hl7.org/CodeSystem/v3-ActCode","code":"AMB","display":"ambulatory"},"type":[{"coding":[{"system":"http://terminology.hl7.org/CodeSystem/encounter-type","code":"ADMS"}]}],"subject":{"reference":"Patient/773229d4-4341-4efe-8e2c-4246765d2393"},"period":{"start":"2022-12-15T00:00:00+00:00","end":"2022-12-19T00:00:00+00:00"}},"request":{"method":"POST","url":"Encounter"}},{"fullUrl":"Encounter/770737a6-ba8b-4f31-8348-0b52c62709a4","resource":{"resourceType":"Encounter","id":"770737a6-ba8b-4f31-8348-0b52c62709a4","status":"finished","class":{"system":"http://terminology.hl7.org/CodeSystem/v3-ActCode","code":"SS","display":"short-stay"},"type":[{"coding":[{"system":"http://terminology.hl7.org/CodeSystem/encounter-type","code":"BD/BM-clin"}]}],"subject":{"reference":"Patient/773229d4-4341-4efe-8e2c-4246765d2393"},"period":{"start":"2022-11-13T00:00:00+00:00","end":"2022-11-22T00:00:00+00:00"}},"request":{"method":"POST","url":"Encounter"}},{"fullUrl":"Location/132400ee-43a0-45f4-9118-c0064ecee930","resource":{"resourceType":"Location","id":"132400ee-43a0-45f4-9118-c0064ecee930","status":"active","name":"Watkins, Wade and White","telecom":[{"system":"phone","value":"+1-699-153-4222x4745","use":"work"}],"address":{"use":"work","line":["757 Alexander Extensions"],"city":"Byrdstad","state":"IN","postalCode":"03843"}},"request":{"method":"POST","url":"Location"}},{"fullUrl":"Observation/4d1bbe49-01ea-4ffd-92af-6ed8d81d31ab","resource":{"resourceType":"Observation","id":"4d1bbe49-01ea-4ffd-92af-6ed8d81d31ab","status":"final","code":{"coding":[{"system":"http://loinc.org","code":"81956-5"}]},"subject":{"reference":"Patient/773229d4-4341-4efe-8e2c-4246765d2393"},"effectiveDateTime":"2022-08-18T00:00:00+00:00","valueDateTime":"2022-07-02T00:00:00+00:00"},"request":{"method":"POST","url":"Observation"}},{"fullUrl":"Patient/d777fc36-49b1-4d5c-b316-625cc918ce18","resource":{"resourceType":"Patient","id":"d777fc36-49b1-4d5c-b316-625cc918ce18","identifier":[{"type":{"coding":[{"system":"http://terminology.hl7.org/CodeSystem/v2-0203","code":"MR"}]},"system":"urn:fhirgen:mrn","value":"199-96-3183"},{"system":"http://hl7.org/fhir/sid/us-ssn","value":"680-27-4843"}],"name":[{"use":"official","family":"Wilson","given":["Amy"]},{"use":"maiden","family":"Jones"}],"telecom":[{"system":"phone","value":"+1-973-010-9422","use":"home"},{"system":"email","value":"hsims@yahoo.com","use":"mobile"}],"gender":"female","birthDate":"1952-03-05","address":[{"use":"home","line":["55394 Lisa Creek Apt. 687"],"city":"Port Sheilaville","state":"GA","postalCode":"32757"},{"use":"old","line":["6611 Hernandez Drive Suite 489"],"city":"Port Brittanyberg","state":"LA","postalCode":"57782"}],"maritalStatus":{"coding":[{"system":"http://terminology.hl7.org/CodeSystem/v3-MaritalStatus","code":"M","display":"Married"}]}},"request":{"method":"POST","url":"Patient"}},{"fullUrl":"Observation/c1bb768d-5cc2-42b5-a232-888a97d3afc3","resource":{"resourceType":"Observation","id":"c1bb768d-5cc2-42b5-a232-888a97d3afc3","status":"final","code":{"coding":[{"system":"http://loinc.org","code":"34382-2"}]},"subject":{"reference":"Patient/d777fc36-49b1-4d5c-b316-625cc918ce18"},"effectiveDateTime":"2022-08-31T00:00:00+00:00","valueRatio":{"numerator":{"value":1},"denominator":{"value":32}}},"request":{"method":"POST","url":"Observation"}},{"fullUrl":"Observation/de474067-09ae-41cb-a5c9-33acb8cc05ef","resource":{"resourceType":"Observation","id":"de474067-09ae-41cb-a5c9-33acb8cc05ef","status":"final","code":{"coding":[{"system":"http://loinc.org","code":"71793-4"}]},"subject":{"reference":"Patient/d777fc36-49b1-4d5c-b316-625cc918ce18"},"effectiveDateTime":"2022-08-04T00:00:00+00:00","valueRatio":{"numerator":{"value":1},"denominator":{"value":32}}},"request":{"method":"POST","url":"Observation"}},{"fullUrl":"Condition/b7bae021-bbe3-4f8f-a5ff-d3d33ecbed11","resource":{"resourceType":"Condition","id":"b7bae021-bbe3-4f8f-a5ff-d3d33ecbed11","code":{"coding":[{"system":"http://snomed.info/sct","code":"405737000"}]},"subject":{"reference":"Patient/d777fc36-49b1-4d5c-b316-625cc918ce18"},"onsetDateTime":"2022-08-17T00:00:00+00:00"},"request":{"method":"POST","url":"Condition"}},{"fullUrl":"Condition/790c8b43-077f-40a2-ba63-2c08857b881c","resource":{"resourceType":"Condition","id":"790c8b43-077f-40a2-ba63-2c08857b881c","code":{"coding":[{"system":"http://snomed.info/sct","code":"21522001"}]},"subject":{"reference":"Patient/d777fc36-49b1-4d5c-b316-625cc918ce18"},"onsetDateTime":"2022-03-07T00:00:00+00:00"},"request":{"method":"POST","url":"Condition"}},{"fullUrl":"Condition/1be2244f-c7d1-491a-be7a-cd31cf33577b","resource":{"resourceType":"Condition","id":"1be2244f-c7d1-491a-be7a-cd31cf33577b","code":{"coding":[{"system":"http://snomed.info/sct","code":"405737000"}]},"subject":{"reference":"Patient/d777fc36-49b1-4d5c-b316-625cc918ce18"},"onsetDateTime":"2022-02-02T00:00:00+00:00"},"request":{"method":"POST","url":"Condition"}},{"fullUrl":"Condition/85000183-607d-4089-a7d7-63a7d1c1069c","resource":{"resourceType":"Condition","id":"85000183-607d-4089-a7d7-63a7d1c1069c","code":{"coding":[{"system":"http://snomed.info/sct","code":"271939006"}]},"subject":{"reference":"Patient/d777fc36-49b1-4d5c-b316-625cc918ce18"},"onsetDateTime":"2022-07-07T00:00:00+00:00"},"request":{"method":"POST","url":"Condition"}},{"fullUrl":"Condition/a0cce6b3-9d7a-496e-b496-efc584707345","resource":{"resourceType":"Condition","id":"a0cce6b3-9d7a-496e-b496-efc584707345","code":{"coding":[{"system":"http://snomed.info/sct","code":"30746006"}]},"subject":{"reference":"Patient/d777fc36-49b1-4d5c-b316-625cc918ce18"},"onsetDateTime":"2022-08-13T00:00:00+00:00"},"request":{"method":"POST","url":"Condition"}},{"fullUrl":"Condition/4404ba75-495a-4340-94a8-8b75dc8789b0","resource":{"resourceType":"Condition","id":"4404ba75-495a-4340-94a8-8b75dc8789b0","code":{"coding":[{"system":"http://snomed.info/sct","code":"79342006"}]},"subject":{"reference":"Patient/d777fc36-49b1-4d5c-b316-625cc918ce18"},"onsetDateTime":"2022-05-05T00:00:00+00:00"},"request":{"method":"POST","url":"Condition"}},{"fullUrl":"Condition/f50ccfaa-868b-4932-823c-10bfc4aa9949","resource":{"resourceType":"Condition","id":"f50ccfaa-868b-4932-823c-10bfc4aa9949","code":{"coding":[{"system":"http://snomed.info/sct","code":"56317004"}]},"subject":{"reference":"Patient/d777fc36-49b1-4d5c-b316-625cc918ce18"},"onsetDateTime":"2022-08-05T00:00:00+00:00"},"request":{"method":"POST","url":"Condition"}},{"fullUrl":"Condition/3bfb6b80-77e2-46df-99ae-f0dc839c6aba","resource":{"resourceType":"Condition","id":"3bfb6b80-77e2-46df-99ae-f0dc839c6aba","code":{"coding":[{"system":"http://snomed.info/sct","code":"79342006"}]},"subject":{"reference":"Patient/d777fc36-49b1-4d5c-b316-625cc918ce18"},"onsetDateTime":"2022-11-18T00:00:00+00:00"},"request":{"method":"POST","url":"Condition"}},{"fullUrl":"Observation/d96f60f7-c69c-4787-9139-57285370249b","resource":{"resourceType":"Observation","id":"d96f60f7-c69c-4787-9139-57285370249b","status":"final","code":{"coding":[{"system":"http://loinc.org","code":"6690-2"}]},"subject":{"reference":"Patient/d777fc36-49b1-4d5c-b316-625cc918ce18"},"effectiveDateTime":"2022-04-26T00:00:00+00:00","valueQuantity":{"value":10.3}},"request":{"method":"POST","url":"Observation"}},{"fullUrl":"Observation/d7ac7420-6318-423c-a309-399668e9407e","resource":{"resourceType":"Observation","id":"d7ac7420-6318-423c-a309-399668e9407e","status":"final","code":{"coding":[{"system":"http://loinc.org","code":"26464-8"}]},"subject":{"reference":"Patient/d777fc36-49b1-4d5c-b316-625cc918ce18"},"effectiveDateTime":"2022-10-27T00:00:00+00:00","valueQuantity":{"value":10.3}},"request":{"method":"POST","url":"Observation"}},{"fullUrl":"Observation/72ea502a-ad0f-4d34-8a5f-f9e878596765","resource":{"resourceType":"Observation","id":"72ea502a-ad0f-4d34-8a5f-f9e878596765","status":"final","code":{"coding":[{"system":"http://loinc.org","code":"49498-9"}]},"subject":{"reference":"Patient/d777fc36-49b1-4d5c-b316-625cc918ce18"},"effectiveDateTime":"2022-09-15T00:00:00+00:00","valueQuantity":{"value":6.3}},"request":{"method":"POST","url":"Observation"}},{"fullUrl":"Observation/af8f5a6c-6ddc-4d10-9337-4690dde85afa","resource":{"resourceType":"Observation","id":"af8f5a6c-6ddc-4d10-9337-4690dde85afa","status":"final","code":{"coding":[{"system":"http://loinc.org","code":"49498-9"}]},"subject":{"reference":"Patient/d777fc36-49b1-4d5c-b316-625cc918ce18"},"effectiveDateTime":"2022-11-12T00:00:00+00:00","valueCodeableConcept":{"coding":[{"system":"snomed","code":"123456","display":"fake snomed"}]}},"request":{"method":"POST","url":"Observation"}},{"fullUrl":"Observation/1643da69-7ede-4378-9ff8-77683d07555d","resource":{"resourceType":"Observation","id":"1643da69-7ede-4378-9ff8-77683d07555d","status":"final","code":{"coding":[{"system":"http://loinc.org","code":"49498-9"}]},"subject":{"reference":"Patient/d777fc36-49b1-4d5c-b316-625cc918ce18"},"effectiveDateTime":"2022-04-12T00:00:00+00:00","valueCodeableConcept":{"coding":[{"system":"snomed","code":"123456","display":"fake snomed"}]}},"request":{"method":"POST","url":"Observation"}},{"fullUrl":"Observation/a74fb0a2-8a5f-4bb2-84d5-c2d6a5ff74e8","resource":{"resourceType":"Observation","id":"a74fb0a2-8a5f-4bb2-84d5-c2d6a5ff74e8","status":"final","code":{"coding":[{"system":"http://loinc.org","code":"6690-2"}]},"subject":{"reference":"Patient/d777fc36-49b1-4d5c-b316-625cc918ce18"},"effectiveDateTime":"2022-12-29T00:00:00+00:00","valueCodeableConcept":{"coding":[{"system":"snomed","code":"123456","display":"fake snomed"}]}},"request":{"method":"POST","url":"Observation"}},{"fullUrl":"Observation/ce8a06d2-3453-4e56-8cc7-d97f9396d189","resource":{"resourceType":"Observation","id":"ce8a06d2-3453-4e56-8cc7-d97f9396d189","status":"final","code":{"coding":[{"system":"http://loinc.org","code":"49498-9"}]},"subject":{"reference":"Patient/d777fc36-49b1-4d5c-b316-625cc918ce18"},"effectiveDateTime":"2022-06-29T00:00:00+00:00"},"request":{"method":"POST","url":"Observation"}},{"fullUrl":"Observation/69f24efe-e018-45ce-aefe-2606605b6eff","resource":{"resourceType":"Observation","id":"69f24efe-e018-45ce-aefe-2606605b6eff","status":"final","code":{"coding":[{"system":"http://loinc.org","code":"49498-9"}]},"subject":{"reference":"Patient/d777fc36-49b1-4d5c-b316-625cc918ce18"},"effectiveDateTime":"2022-09-04T00:00:00+00:00"},"request":{"method":"POST","url":"Observation"}},{"fullUrl":"Observation/44f8d2c3-73a3-4215-9f11-b6bf30c82173","resource":{"resourceType":"Observation","id":"44f8d2c3-73a3-4215-9f11-b6bf30c82173","status":"final","code":{"coding":[{"system":"http://loinc.org","code":"49498-9"}]},"subject":{"reference":"Patient/d777fc36-49b1-4d5c-b316-625cc918ce18"},"effectiveDateTime":"2022-08-20T00:00:00+00:00"},"request":{"method":"POST","url":"Observation"}},{"fullUrl":"Procedure/7680ffa6-860f-4523-973f-97a62cd697a1","resource":{"resourceType":"Procedure","id":"7680ffa6-860f-4523-973f-97a62cd697a1","status":"completed","code":{"coding":[{"system":"http://snomed.info/sct","code":"647000"}]},"subject":{"reference":"Patient/d777fc36-49b1-4d5c-b316-625cc918ce18"},"performedDateTime":"2022-03-27T00:00:00+00:00"},"request":{"method":"POST","url":"Procedure"}},{"fullUrl":"Procedure/96af3f87-1f11-4a18-80f4-e364db1f9a6f","resource":{"resourceType":"Procedure","id":"96af3f87-1f11-4a18-80f4-e364db1f9a6f","status":"completed","code":{"coding":[{"system":"http://snomed.info/sct","code":"104001"}]},"subject":{"reference":"Patient/d777fc36-49b1-4d5c-b316-625cc918ce18"},"performedDateTime":"2022-09-22T00:00:00+00:00"},"request":{"method":"POST","url":"Procedure"}},{"fullUrl":"Procedure/51ef0dc6-08e3-4f86-923e-18f50a5ffbfb","resource":{"resourceType":"Procedure","id":"51ef0dc6-08e3-4f86-923e-18f50a5ffbfb","status":"completed","code":{"coding":[{"system":"http://snomed.info/sct","code":"189009"}]},"subject":{"reference":"Patient/d777fc36-49b1-4d5c-b316-625cc918ce18"},"performedDateTime":"2022-04-15T00:00:00+00:00"},"request":{"method":"POST","url":"Procedure"}},{"fullUrl":"MedicationStatement/dca4af9c-1a9e-4da8-8573-d87c312929b2","resource":{"resourceType":"MedicationStatement","id":"dca4af9c-1a9e-4da8-8573-d87c312929b2","status":"completed","medicationCodeableConcept":{"coding":[{"system":"http://www.nlm.nih.gov/research/umls/rxnorm","code":"8698"}]},"subject":{"reference":"Patient/d777fc36-49b1-4d5c-b316-625cc918ce18"},"effectiveDateTime":"2022-07-23T00:00:00+00:00","dosage":[{"doseAndRate":[{"doseQuantity":{"value":2,"unit":"TAB","system":"http://terminology.hl7.org/CodeSystem/v3-orderableDrugForm","code":"TAB"}}]}]},"request":{"method":"POST","url":"MedicationStatement"}},{"fullUrl":"MedicationStatement/d3cb341c-1de9-4e5f-b604-1ece52831cfe","resource":{"resourceType":"MedicationStatement","id":"d3cb341c-1de9-4e5f-b604-1ece52831cfe","status":"completed","medicationCodeableConcept":{"coding":[{"system":"http://www.nlm.nih.gov/research/umls/rxnorm","code":"7980"}]},"subject":{"reference":"Patient/d777fc36-49b1-4d5c-b316-625cc918ce18"},"effectiveDateTime":"2022-08-07T00:00:00+00:00","dosage":[{"doseAndRate":[{"doseQuantity":{"value":2,"unit":"TAB","system":"http://terminology.hl7.org/CodeSystem/v3-orderableDrugForm","code":"TAB"}}]}]},"request":{"method":"POST","url":"MedicationStatement"}},{"fullUrl":"MedicationStatement/58e858db-105b-4de3-82ea-1a0346581583","resource":{"resourceType":"MedicationStatement","id":"58e858db-105b-4de3-82ea-1a0346581583","status":"completed","medicationCodeableConcept":{"coding":[{"system":"http://www.nlm.nih.gov/research/umls/rxnorm","code":"2193"}]},"subject":{"reference":"Patient/d777fc36-49b1-4d5c-b316-625cc918ce18"},"effectiveDateTime":"2022-04-16T00:00:00+00:00","dosage":[{"doseAndRate":[{"doseQuantity":{"value":1,"unit":"TAB","system":"http://terminology.hl7.org/CodeSystem/v3-orderableDrugForm","code":"TAB"}}]}]},"request":{"method":"POST","url":"MedicationStatement"}},{"fullUrl":"MedicationStatement/d9d0f2f8-0625-4297-90b9-bfb39ded891a","resource":{"resourceType":"MedicationStatement","id":"d9d0f2f8-0625-4297-90b9-bfb39ded891a","status":"completed","medicationCodeableConcept":{"coding":[{"system":"http://www.nlm.nih.gov/research/umls/rxnorm","code":"7984"}]},"subject":{"reference":"Patient/d777fc36-49b1-4d5c-b316-625cc918ce18"},"effectiveDateTime":"2022-10-16T00:00:00+00:00","dosage":[{"doseAndRate":[{"doseQuantity":{"value":1,"unit":"TAB","system":"http://terminology.hl7.org/CodeSystem/v3-orderableDrugForm","code":"TAB"}}]}]},"request":{"method":"POST","url":"MedicationStatement"}},{"fullUrl":"MedicationStatement/4c0e7c5a-9043-44ca-a2da-e316a4563e73","resource":{"resourceType":"MedicationStatement","id":"4c0e7c5a-9043-44ca-a2da-e316a4563e73","status":"completed","medicationCodeableConcept":{"coding":[{"system":"http://www.nlm.nih.gov/research/umls/rxnorm","code":"7980"}]},"subject":{"reference":"Patient/d777fc36-49b1-4d5c-b316-625cc918ce18"},"effectiveDateTime":"2022-07-08T00:00:00+00:00","dosage":[{"doseAndRate":[{"doseQuantity":{"value":5.5,"unit":"TAB","system":"http://terminology.hl7.org/CodeSystem/v3-orderableDrugForm","code":"TAB"}}]}]},"request":{"method":"POST","url":"MedicationStatement"}},{"fullUrl":"MedicationStatement/83dedc9e-7292-4159-9be8-15bf3501327f","resource":{"resourceType":"MedicationStatement","id":"83dedc9e-7292-4159-9be8-15bf3501327f","status":"completed","medicationCodeableConcept":{"coding":[{"system":"http://www.nlm.nih.gov/research/umls/rxnorm","code":"10395"}]},"subject":{"reference":"Patient/d777fc36-49b1-4d5c-b316-625cc918ce18"},"effectiveDateTime":"2022-06-03T00:00:00+00:00","dosage":[{"doseAndRate":[{"doseQuantity":{"value":6.8,"unit":"TAB","system":"http://terminology.hl7.org/CodeSystem/v3-orderableDrugForm","code":"TAB"}}]}]},"request":{"method":"POST","url":"MedicationStatement"}},{"fullUrl":"MedicationStatement/56aea663-bcc1-44ba-8cc8-8ec67b11f2eb","resource":{"resourceType":"MedicationStatement","id":"56aea663-bcc1-44ba-8cc8-8ec67b11f2eb","status":"completed","medicationCodeableConcept":{"coding":[{"system":"http://www.nlm.nih.gov/research/umls/rxnorm","code":"7984"}]},"subject":{"reference":"Patient/d777fc36-49b1-4d5c-b316-625cc918ce18"},"effectiveDateTime":"2022-08-06T00:00:00+00:00","dosage":[{"doseAndRate":[{"doseQuantity":{"value":4.1,"unit":"TAB","system":"http://terminology.hl7.org/CodeSystem/v3-orderableDrugForm","code":"TAB"}}]}]},"request":{"method":"POST","url":"MedicationStatement"}},{"fullUrl":"MedicationStatement/ddf44c0c-8c27-4663-927c-874bc6b85963","resource":{"resourceType":"MedicationStatement","id":"ddf44c0c-8c27-4663-927c-874bc6b85963","status":"completed","medicationCodeableConcept":{"coding":[{"system":"http://www.nlm.nih.gov/research/umls/rxnorm","code":"18631"}]},"subject":{"reference":"Patient/d777fc36-49b1-4d5c-b316-625cc918ce18"},"effectiveDateTime":"2022-02-12T00:00:00+00:00","dosage":[{"doseAndRate":[{"doseQuantity":{"value":4.9,"unit":"TAB","system":"http://terminology.hl7.org/CodeSystem/v3-orderableDrugForm","code":"TAB"}}]}]},"request":{"method":"POST","url":"MedicationStatement"}},{"fullUrl":"Encounter/343bf444-e088-4152-9436-3d52bde77d8f","resource":{"resourceType":"Encounter","id":"343bf444-e088-4152-9436-3d52bde77d8f","status":"finished","class":{"system":"http://terminology.hl7.org/CodeSystem/v3-ActCode","code":"IMP","display":"inpatient encounter"},"type":[{"coding":[{"system":"http://terminology.hl7.org/CodeSystem/encounter-type","code":"ADMS"}]}],"subject":{"reference":"Patient/d777fc36-49b1-4d5c-b316-625cc918ce18"},"period":{"start":"2022-05-09T00:00:00+00:00","end":"2022-05-18T00:00:00+00:00"}},"request":{"method":"POST","url":"Encounter"}},{"fullUrl":"Encounter/038486c8-eb3e-4a5e-81c4-46fa17dd8f74","resource":{"resourceType":"Encounter","id":"038486c8-eb3e-4a5e-81c4-46fa17dd8f74","status":"finished","class":{"system":"http://terminology.hl7.org/CodeSystem/v3-ActCode","code":"IMP","display":"inpatient encounter"},"type":[{"coding":[{"system":"http://terminology.hl7.org/CodeSystem/encounter-type","code":"CCS60"}]}],"subject":{"reference":"Patient/d777fc36-49b1-4d5c-b316-625cc918ce18"},"period":{"start":"2022-09-18T00:00:00+00:00","end":"2022-09-25T00:00:00+00:00"}},"request":{"method":"POST","url":"Encounter"}},{"fullUrl":"Encounter/84dd0734-8cc4-4769-92f9-fad8bd45eb1f","resource":{"resourceType":"Encounter","id":"84dd0734-8cc4-4769-92f9-fad8bd45eb1f","status":"finished","class":{"system":"http://terminology.hl7.org/CodeSystem/v3-ActCode","code":"SS","display":"short-stay"},"type":[{"coding":[{"system":"http://terminology.hl7.org/CodeSystem/encounter-type","code":"OKI"}]}],"subject":{"reference":"Patient/d777fc36-49b1-4d5c-b316-625cc918ce18"},"period":{"start":"2022-04-03T00:00:00+00:00","end":"2022-04-10T00:00:00+00:00"}},"request":{"method":"POST","url":"Encounter"}},{"fullUrl":"Encounter/eae552da-b560-4e0e-83be-2b79109df336","resource":{"resourceType":"Encounter","id":"eae552da-b560-4e0e-83be-2b79109df336","status":"finished","class":{"system":"http://terminology.hl7.org/CodeSystem/v3-ActCode","code":"OBSENC","display":"observation encounter"},"type":[{"coding":[{"system":"http://terminology.hl7.org/CodeSystem/encounter-type","code":"BD/BM-clin"}]}],"subject":{"reference":"Patient/d777fc36-49b1-4d5c-b316-625cc918ce18"},"period":{"start":"2022-10-19T00:00:00+00:00","end":"2022-10-26T00:00:00+00:00"}},"request":{"method":"POST","url":"Encounter"}},{"fullUrl":"Encounter/55083672-d18f-47b6-b63a-50b69fb21141","resource":{"resourceType":"Encounter","id":"55083672-d18f-47b6-b63a-50b69fb21141","status":"finished","class":{"system":"http://terminology.hl7.org/CodeSystem/v3-ActCode","code":"ACUTE","display":"inpatient acute"},"type":[{"coding":[{"system":"http://terminology.hl7.org/CodeSystem/encounter-type","code":"CCS60"}]}],"subject":{"reference":"Patient/d777fc36-49b1-4d5c-b316-625cc918ce18"},"period":{"start":"2022-04-25T00:00:00+00:00","end":"2022-04-30T00:00:00+00:00"}},"request":{"method":"POST","url":"Encounter"}},{"fullUrl":"Location/3d12a9de-2249-4bab-8631-bf6379682e96","resource":{"resourceType":"Location","id":"3d12a9de-2249-4bab-8631-bf6379682e96","status":"active","name":"Phillips Group","telecom":[{"system":"phone","value":"+1-661-956-2037x0062","use":"mobile"}],"address":{"use":"work","line":["7122 Adam Crescent Suite 067"],"city":"Duncanfort","state":"TX","postalCode":"15057"}},"request":{"method":"POST","url":"Location"}},{"fullUrl":"Observation/e2fb5c9c-d20e-4827-ac66-a5019451b63b","resource":{"resourceType":"Observation","id":"e2fb5c9c-d20e-4827-ac66-a5019451b63b","status":"final","code":{"coding":[{"system":"http://loinc.org","code":"81956-5"}]},"subject":{"reference":"Patient/d777fc36-49b1-4d5c-b316-625cc918ce18"},"effectiveDateTime":"2022-03-17T00:00:00+00:00","valueDateTime":"2022-01-27T00:00:00+00:00"},"request":{"method":"POST","url":"Observation"}},{"fullUrl":"Patient/24c03236-7bcb-40f4-b536-aa6a9a69fe69","resource":{"resourceType":"Patient","id":"24c03236-7bcb-40f4-b536-aa6a9a69fe69","identifier":[{"type":{"coding":[{"system":"http://terminology.hl7.org/CodeSystem/v2-0203","code":"MR"}]},"system":"urn:fhirgen:mrn","value":"142-62-3909"},{"system":"http://hl7.org/fhir/sid/us-ssn","value":"554-68-3871"}],"name":[{"use":"official","family":"Clarke","given":["Joel"]},{"use":"maiden","family":"Wong"}],"telecom":[{"system":"phone","value":"901-842-1826","use":"work"},{"system":"email","value":"martinezbrittany@yahoo.com","use":"home"}],"gender":"other","birthDate":"1949-10-01","address":[{"use":"home","line":["48630 Howard Creek Suite 576"],"city":"Liuland","state":"FL","postalCode":"93751"},{"use":"old","line":["25364 Jennifer Shoal Suite 162"],"city":"East Kathleen","state":"KS","postalCode":"49095"}],"maritalStatus":{"coding":[{"system":"http://terminology.hl7.org/CodeSystem/v3-MaritalStatus","code":"S","display":"Never Married"}]}},"request":{"method":"POST","url":"Patient"}},{"fullUrl":"Observation/8bc2615b-8d20-41ee-995e-545dc82be165","resource":{"resourceType":"Observation","id":"8bc2615b-8d20-41ee-995e-545dc82be165","status":"final","code":{"coding":[{"system":"http://loinc.org","code":"87925-4"}]},"subject":{"reference":"Patient/24c03236-7bcb-40f4-b536-aa6a9a69fe69"},"effectiveDateTime":"2022-08-06T00:00:00+00:00","valueRatio":{"numerator":{"value":1},"denominator":{"value":32}}},"request":{"method":"POST","url":"Observation"}},{"fullUrl":"Observation/2f8e0719-19cf-4963-b8a7-57e19e9f0063","resource":{"resourceType":"Observation","id":"2f8e0719-19cf-4963-b8a7-57e19e9f0063","status":"final","code":{"coding":[{"system":"http://loinc.org","code":"47235-7"}]},"subject":{"reference":"Patient/24c03236-7bcb-40f4-b536-aa6a9a69fe69"},"effectiveDateTime":"2022-12-26T00:00:00+00:00","valueRatio":{"numerator":{"value":1},"denominator":{"value":64}}},"request":{"method":"POST","url":"Observation"}},{"fullUrl":"Observation/38cc9291-bc8d-4a2f-beec-f1249fca301a","resource":{"resourceType":"Observation","id":"38cc9291-bc8d-4a2f-beec-f1249fca301a","status":"final","code":{"coding":[{"system":"http://loinc.org","code":"47476-7"}]},"subject":{"reference":"Patient/24c03236-7bcb-40f4-b536-aa6a9a69fe69"},"effectiveDateTime":"2022-08-26T00:00:00+00:00","valueRatio":{"numerator":{"value":1},"denominator":{"value":4}}},"request":{"method":"POST","url":"Observation"}},{"fullUrl":"Condition/ed5d07cc-ffaf-4b92-ad98-b94020f7d873","resource":{"resourceType":"Condition","id":"ed5d07cc-ffaf-4b92-ad98-b94020f7d873","code":{"coding":[{"system":"http://snomed.info/sct","code":"198199009"}]},"subject":{"reference":"Patient/24c03236-7bcb-40f4-b536-aa6a9a69fe69"},"onsetDateTime":"2022-08-02T00:00:00+00:00"},"request":{"method":"POST","url":"Condition"}},{"fullUrl":"Condition/5a14713c-2230-44d4-9c54-cda5d186994f","resource":{"resourceType":"Condition","id":"5a14713c-2230-44d4-9c54-cda5d186994f","code":{"coding":[{"system":"http://snomed.info/sct","code":"736686006"}]},"subject":{"reference":"Patient/24c03236-7bcb-40f4-b536-aa6a9a69fe69"},"onsetDateTime":"2022-07-28T00:00:00+00:00"},"request":{"method":"POST","url":"Condition"}},{"fullUrl":"Condition/7f86db92-1b1c-4abe-854a-42dffa393d80","resource":{"resourceType":"Condition","id":"7f86db92-1b1c-4abe-854a-42dffa393d80","code":{"coding":[{"system":"http://snomed.info/sct","code":"271807003"}]},"subject":{"reference":"Patient/24c03236-7bcb-40f4-b536-aa6a9a69fe69"},"onsetDateTime":"2022-05-03T00:00:00+00:00"},"request":{"method":"POST","url":"Condition"}},{"fullUrl":"Condition/2bdee314-760f-4851-ab05-fec6f0a524a0","resource":{"resourceType":"Condition","id":"2bdee314-760f-4851-ab05-fec6f0a524a0","code":{"coding":[{"system":"http://snomed.info/sct","code":"386661006"}]},"subject":{"reference":"Patient/24c03236-7bcb-40f4-b536-aa6a9a69fe69"},"onsetDateTime":"2022-09-04T00:00:00+00:00"},"request":{"method":"POST","url":"Condition"}},{"fullUrl":"Condition/0bd4e8b3-8fe6-4d97-b389-190395cce070","resource":{"resourceType":"Condition","id":"0bd4e8b3-8fe6-4d97-b389-190395cce070","code":{"coding":[{"system":"http://snomed.info/sct","code":"44882003"}]},"subject":{"reference":"Patient/24c03236-7bcb-40f4-b536-aa6a9a69fe69"},"onsetDateTime":"2022-01-17T00:00:00+00:00"},"request":{"method":"POST","url":"Condition"}},{"fullUrl":"Condition/46d2f47c-d1f4-4ba4-81f2-d3cd25ba5e9b","resource":{"resourceType":"Condition","id":"46d2f47c-d1f4-4ba4-81f2-d3cd25ba5e9b","code":{"coding":[{"system":"http://snomed.info/sct","code":"71315007"}]},"subject":{"reference":"Patient/24c03236-7bcb-40f4-b536-aa6a9a69fe69"},"onsetDateTime":"2022-07-13T00:00:00+00:00"},"request":{"method":"POST","url":"Condition"}},{"fullUrl":"Condition/8229917b-4507-4744-bf90-803145c80dc2","resource":{"resourceType":"Condition","id":"8229917b-4507-4744-bf90-803145c80dc2","code":{"coding":[{"system":"http://snomed.info/sct","code":"71315007"}]},"subject":{"reference":"Patient/24c03236-7bcb-40f4-b536-aa6a9a69fe69"},"onsetDateTime":"2022-04-10T00:00:00+00:00"},"request":{"method":"POST","url":"Condition"}},{"fullUrl":"Condition/3c130cd7-7136-4a02-a9d4-4a82c3f34582","resource":{"resourceType":"Condition","id":"3c130cd7-7136-4a02-a9d4-4a82c3f34582","code":{"coding":[{"system":"http://snomed.info/sct","code":"248980004"}]},"subject":{"reference":"Patient/24c03236-7bcb-40f4-b536-aa6a9a69fe69"},"onsetDateTime":"2022-01-07T00:00:00+00:00"},"request":{"method":"POST","url":"Condition"}},{"fullUrl":"Observation/2bfcc02b-be36-4e84-86b3-b1425bf51b79","resource":{"resourceType":"Observation","id":"2bfcc02b-be36-4e84-86b3-b1425bf51b79","status":"final","code":{"coding":[{"system":"http://www.ama-assn.org/go/cpt","code":"85048"}]},"subject":{"reference":"Patient/24c03236-7bcb-40f4-b536-aa6a9a69fe69"},"effectiveDateTime":"2022-04-20T00:00:00+00:00","valueQuantity":{"value":10.7}},"request":{"method":"POST","url":"Observation"}},{"fullUrl":"Observation/bac77b1d-ebfb-48ea-bd45-b8a561f86b4f","resource":{"resourceType":"Observation","id":"bac77b1d-ebfb-48ea-bd45-b8a561f86b4f","status":"final","code":{"coding":[{"system":"http://loinc.org","code":"26464-8"}]},"subject":{"reference":"Patient/24c03236-7bcb-40f4-b536-aa6a9a69fe69"},"effectiveDateTime":"2022-02-17T00:00:00+00:00","valueQuantity":{"value":6.5}},"request":{"method":"POST","url":"Observation"}},{"fullUrl":"Observation/05ce6455-6b09-4d16-90a8-c4f41256fb5e","resource":{"resourceType":"Observation","id":"05ce6455-6b09-4d16-90a8-c4f41256fb5e","status":"final","code":{"coding":[{"system":"http://www.ama-assn.org/go/cpt","code":"85048"}]},"subject":{"reference":"Patient/24c03236-7bcb-40f4-b536-aa6a9a69fe69"},"effectiveDateTime":"2022-10-04T00:00:00+00:00","valueCodeableConcept":{"coding":[{"system":"snomed","code":"123456","display":"fake snomed"}]}},"request":{"method":"POST","url":"Observation"}},{"fullUrl":"Observation/8d664af9-cfa8-41ac-96dc-bbba33fb8074","resource":{"resourceType":"Observation","id":"8d664af9-cfa8-41ac-96dc-bbba33fb8074","status":"final","code":{"coding":[{"system":"http://loinc.org","code":"6690-2"}]},"subject":{"reference":"Patient/24c03236-7bcb-40f4-b536-aa6a9a69fe69"},"effectiveDateTime":"2022-02-17T00:00:00+00:00","valueCodeableConcept":{"coding":[{"system":"snomed","code":"123456","display":"fake snomed"}]}},"request":{"method":"POST","url":"Observation"}},{"fullUrl":"Observation/d86db267-c197-4ef8-9a83-6238ca76ecc7","resource":{"resourceType":"Observation","id":"d86db267-c197-4ef8-9a83-6238ca76ecc7","status":"final","code":{"coding":[{"system":"http://loinc.org","code":"49498-9"}]},"subject":{"reference":"Patient/24c03236-7bcb-40f4-b536-aa6a9a69fe69"},"effectiveDateTime":"2022-08-10T00:00:00+00:00"},"request":{"method":"POST","url":"Observation"}},{"fullUrl":"Observation/37afb5cf-406e-4607-b8ed-aaa5c20549e2","resource":{"resourceType":"Observation","id":"37afb5cf-406e-4607-b8ed-aaa5c20549e2","status":"final","code":{"coding":[{"system":"http://loinc.org","code":"49498-9"}]},"subject":{"reference":"Patient/24c03236-7bcb-40f4-b536-aa6a9a69fe69"},"effectiveDateTime":"2022-06-20T00:00:00+00:00"},"request":{"method":"POST","url":"Observation"}},{"fullUrl":"Procedure/4f7f8f68-8188-4bf0-be23-be04a58b0eac","resource":{"resourceType":"Procedure","id":"4f7f8f68-8188-4bf0-be23-be04a58b0eac","status":"completed","code":{"coding":[{"system":"http://snomed.info/sct","code":"189009"}]},"subject":{"reference":"Patient/24c03236-7bcb-40f4-b536-aa6a9a69fe69"},"performedDateTime":"2022-04-14T00:00:00+00:00"},"request":{"method":"POST","url":"Procedure"}},{"fullUrl":"Procedure/77e4df97-dda0-43d7-97bb-8b94417c3c36","resource":{"resourceType":"Procedure","id":"77e4df97-dda0-43d7-97bb-8b94417c3c36","status":"completed","code":{"coding":[{"system":"http://snomed.info/sct","code":"146005"}]},"subject":{"reference":"Patient/24c03236-7bcb-40f4-b536-aa6a9a69fe69"},"performedDateTime":"2022-05-19T00:00:00+00:00"},"request":{"method":"POST","url":"Procedure"}},{"fullUrl":"Procedure/59c7fe78-f245-4625-86a5-7316b8f884d1","resource":{"resourceType":"Procedure","id":"59c7fe78-f245-4625-86a5-7316b8f884d1","status":"completed","code":{"coding":[{"system":"http://snomed.info/sct","code":"189009"}]},"subject":{"reference":"Patient/24c03236-7bcb-40f4-b536-aa6a9a69fe69"},"performedDateTime":"2022-04-29T00:00:00+00:00"},"request":{"method":"POST","url":"Procedure"}},{"fullUrl":"MedicationStatement/a6b7bf6f-73b5-47ca-96e4-effbe18435a7","resource":{"resourceType":"MedicationStatement","id":"a6b7bf6f-73b5-47ca-96e4-effbe18435a7","status":"completed","medicationCodeableConcept":{"coding":[{"system":"http://www.nlm.nih.gov/research/umls/rxnorm","code":"10395"}]},"subject":{"reference":"Patient/24c03236-7bcb-40f4-b536-aa6a9a69fe69"},"effectiveDateTime":"2022-11-12T00:00:00+00:00","dosage":[{"doseAndRate":[{"doseQuantity":{"value":2,"unit":"TAB","system":"http://terminology.hl7.org/CodeSystem/v3-orderableDrugForm","code":"TAB"}}]}]},"request":{"method":"POST","url":"MedicationStatement"}},{"fullUrl":"MedicationStatement/761057e9-4f8e-43c2-99fe-5e2b39ddf7c2","resource":{"resourceType":"MedicationStatement","id":"761057e9-4f8e-43c2-99fe-5e2b39ddf7c2","status":"completed","medicationCodeableConcept":{"coding":[{"system":"http://www.nlm.nih.gov/research/umls/rxnorm","code":"2193"}]},"subject":{"reference":"Patient/24c03236-7bcb-40f4-b536-aa6a9a69fe69"},"effectiveDateTime":"2022-05-23T00:00:00+00:00","dosage":[{"doseAndRate":[{"doseQuantity":{"value":2,"unit":"TAB","system":"http://terminology.hl7.org/CodeSystem/v3-orderableDrugForm","code":"TAB"}}]}]},"request":{"method":"POST","url":"MedicationStatement"}},{"fullUrl":"MedicationStatement/354e31af-42f8-48f1-b2f4-9eb246460bcb","resource":{"resourceType":"MedicationStatement","id":"354e31af-42f8-48f1-b2f4-9eb246460bcb","status":"completed","medicationCodeableConcept":{"coding":[{"system":"http://www.nlm.nih.gov/research/umls/rxnorm","code":"3640"}]},"subject":{"reference":"Patient/24c03236-7bcb-40f4-b536-aa6a9a69fe69"},"effectiveDateTime":"2022-03-01T00:00:00+00:00","dosage":[{"doseAndRate":[{"doseQuantity":{"value":2,"unit":"TAB","system":"http://terminology.hl7.org/CodeSystem/v3-orderableDrugForm","code":"TAB"}}]}]},"request":{"method":"POST","url":"MedicationStatement"}},{"fullUrl":"MedicationStatement/4071d135-0420-44eb-b101-629ff3b6bdac","resource":{"resourceType":"MedicationStatement","id":"4071d135-0420-44eb-b101-629ff3b6bdac","status":"completed","medicationCodeableConcept":{"coding":[{"system":"http://www.nlm.nih.gov/research/umls/rxnorm","code":"7984"}]},"subject":{"reference":"Patient/24c03236-7bcb-40f4-b536-aa6a9a69fe69"},"effectiveDateTime":"2022-12-13T00:00:00+00:00","dosage":[{"doseAndRate":[{"doseQuantity":{"value":1,"unit":"TAB","system":"http://terminology.hl7.org/CodeSystem/v3-orderableDrugForm","code":"TAB"}}]}]},"request":{"method":"POST","url":"MedicationStatement"}},{"fullUrl":"MedicationStatement/c5bdb099-e740-475a-afa2-d4ff8eddc895","resource":{"resourceType":"MedicationStatement","id":"c5bdb099-e740-475a-afa2-d4ff8eddc895","status":"completed","medicationCodeableConcept":{"coding":[{"system":"http://www.nlm.nih.gov/research/umls/rxnorm","code":"8698"}]},"subject":{"reference":"Patient/24c03236-7bcb-40f4-b536-aa6a9a69fe69"},"effectiveDateTime":"2022-02-19T00:00:00+00:00","dosage":[{"doseAndRate":[{"doseQuantity":{"value":2,"unit":"TAB","system":"http://terminology.hl7.org/CodeSystem/v3-orderableDrugForm","code":"TAB"}}]}]},"request":{"method":"POST","url":"MedicationStatement"}},{"fullUrl":"MedicationStatement/425637b6-85dd-4fd7-b163-231ad4e39665","resource":{"resourceType":"MedicationStatement","id":"425637b6-85dd-4fd7-b163-231ad4e39665","status":"completed","medicationCodeableConcept":{"coding":[{"system":"http://www.nlm.nih.gov/research/umls/rxnorm","code":"3640"}]},"subject":{"reference":"Patient/24c03236-7bcb-40f4-b536-aa6a9a69fe69"},"effectiveDateTime":"2022-07-25T00:00:00+00:00","dosage":[{"doseAndRate":[{"doseQuantity":{"value":2,"unit":"TAB","system":"http://terminology.hl7.org/CodeSystem/v3-orderableDrugForm","code":"TAB"}}]}]},"request":{"method":"POST","url":"MedicationStatement"}},{"fullUrl":"MedicationStatement/6e93faaa-e16c-4e06-a260-39bf4710d0cb","resource":{"resourceType":"MedicationStatement","id":"6e93faaa-e16c-4e06-a260-39bf4710d0cb","status":"completed","medicationCodeableConcept":{"coding":[{"system":"http://www.nlm.nih.gov/research/umls/rxnorm","code":"18631"}]},"subject":{"reference":"Patient/24c03236-7bcb-40f4-b536-aa6a9a69fe69"},"effectiveDateTime":"2022-01-11T00:00:00+00:00","dosage":[{"doseAndRate":[{"doseQuantity":{"value":3.4,"unit":"TAB","system":"http://terminology.hl7.org/CodeSystem/v3-orderableDrugForm","code":"TAB"}}]}]},"request":{"method":"POST","url":"MedicationStatement"}},{"fullUrl":"Encounter/98b7b474-f0c2-4427-a4eb-ffce388b1081","resource":{"resourceType":"Encounter","id":"98b7b474-f0c2-4427-a4eb-ffce388b1081","status":"finished","class":{"system":"http://terminology.hl7.org/CodeSystem/v3-ActCode","code":"IMP","display":"inpatient encounter"},"type":[{"coding":[{"system":"http://terminology.hl7.org/CodeSystem/encounter-type","code":"CCS60"}]}],"subject":{"reference":"Patient/24c03236-7bcb-40f4-b536-aa6a9a69fe69"},"period":{"start":"2022-07-21T00:00:00+00:00","end":"2022-07-23T00:00:00+00:00"}},"request":{"method":"POST","url":"Encounter"}},{"fullUrl":"Encounter/4e243eaa-9470-4b5d-adc8-4a530121d8d3","resource":{"resourceType":"Encounter","id":"4e243eaa-9470-4b5d-adc8-4a530121d8d3","status":"finished","class":{"system":"http://terminology.hl7.org/CodeSystem/v3-ActCode","code":"IMP","display":"inpatient encounter"},"type":[{"coding":[{"system":"http://terminology.hl7.org/CodeSystem/encounter-type","code":"ADMS"}]}],"subject":{"reference":"Patient/24c03236-7bcb-40f4-b536-aa6a9a69fe69"},"period":{"start":"2022-03-19T00:00:00+00:00","end":"2022-03-20T00:00:00+00:00"}},"request":{"method":"POST","url":"Encounter"}},{"fullUrl":"Encounter/fd85aee4-f4c2-404a-a140-5be05fb4fd58","resource":{"resourceType":"Encounter","id":"fd85aee4-f4c2-404a-a140-5be05fb4fd58","status":"finished","class":{"system":"http://terminology.hl7.org/CodeSystem/v3-ActCode","code":"HH","display":"home health"},"type":[{"coding":[{"system":"http://terminology.hl7.org/CodeSystem/encounter-type","code":"BD/BM-clin"}]}],"subject":{"reference":"Patient/24c03236-7bcb-40f4-b536-aa6a9a69fe69"},"period":{"start":"2022-11-27T00:00:00+00:00","end":"2022-11-28T00:00:00+00:00"}},"request":{"method":"POST","url":"Encounter"}},{"fullUrl":"Encounter/e7baa3d0-d293-46fe-a57b-54d5d5b4876b","resource":{"resourceType":"Encounter","id":"e7baa3d0-d293-46fe-a57b-54d5d5b4876b","status":"finished","class":{"system":"http://terminology.hl7.org/CodeSystem/v3-ActCode","code":"PRENC","display":"pre-admission"},"type":[{"coding":[{"system":"http://terminology.hl7.org/CodeSystem/encounter-type","code":"ADMS"}]}],"subject":{"reference":"Patient/24c03236-7bcb-40f4-b536-aa6a9a69fe69"},"period":{"start":"2022-01-04T00:00:00+00:00","end":"2022-01-11T00:00:00+00:00"}},"request":{"method":"POST","url":"Encounter"}},{"fullUrl":"Location/0c6e2e12-8c89-4f49-babf-68beeb3fd131","resource":{"resourceType":"Location","id":"0c6e2e12-8c89-4f49-babf-68beeb3fd131","status":"active","name":"Bowman PLC","telecom":[{"system":"phone","value":"001-066-853-5676x35179","use":"home"}],"address":{"use":"work","line":["0908 Chang Extensions"],"city":"Warnerburgh","state":"FL","postalCode":"24643"}},"request":{"method":"POST","url":"Location"}},{"fullUrl":"Observation/9c31f161-cd22-49e7-899b-c51629ca296c","resource":{"resourceType":"Observation","id":"9c31f161-cd22-49e7-899b-c51629ca296c","status":"final","code":{"coding":[{"system":"http://loinc.org","code":"81956-5"}]},"subject":{"reference":"Patient/24c03236-7bcb-40f4-b536-aa6a9a69fe69"},"effectiveDateTime":"2022-02-06T00:00:00+00:00","valueDateTime":"2021-12-16T00:00:00+00:00"},"request":{"method":"POST","url":"Observation"}}]}