{"resourceType":"Bundle","id":"0d5bf1f2-cd0d-474a-aefb-54b7cdc28abb","type":"transaction","entry":[{"fullUrl":"Patient/0635e093-9693-444e-ae82-33cc9614117a","resource":{"resourceType":"Patient","id":"0635e093-9693-444e-ae82-33cc9614117a","meta":{"profile":["http://hl7.org/fhir/us/core/StructureDefinition/us-core-patient"]},"extension":[{"extension":[{"url":"ombCategory","valueCoding":{"system":"urn:oid:2.16.840.1.113883.6.238","code":"2054-5","display":"Black or African American"}},{"url":"text","valueString":"Black or African American"}],"url":"http://hl7.org/fhir/us/core/StructureDefinition/us-core-race"},{"extension":[{"url":"ombCategory","valueCoding":{"system":"urn:oid:2.16.840.1.113883.6.238","code":"2186-5","display":"Non Hispanic or Latino"}},{"url":"text","valueString":"Non Hispanic or Latino"}],"url":"http://hl7.org/fhir/us/core/StructureDefinition/us-core-ethnicity"}],"identifier":[{"type":{"coding":[{"system":"http://terminology.hl7.org/CodeSystem/v2-0203","code":"MR"}]},"system":"urn:fhirgen:mrn","value":"113-19-2717"}],"name":[{"use":"official","family":"Diaz","given":["George"]},{"use":"maiden","family":"Flowers"}],"telecom":[{"system":"phone","value":"(194)714-5544x180","use":"home"},{"system":"email","value":"benjamin30@gmail.com","use":"home"}],"gender":"male","birthDate":"1969-07-21","address":[{"use":"home","line":["70481 Tammy Grove Suite 013"],"city":"Lake Brendan","state":"IL","postalCode":"03613"},{"use":"old","line":["885 Anthony Shores Apt. 819"],"city":"New Lauraberg","state":"GA","postalCode":"62976"}]},"request":{"method":"POST","url":"Patient"}},{"fullUrl":"Observation/23bcf3c7-f662-4b50-9f75-e6d9e4813527","resource":{"resourceType":"Observation","id":"23bcf3c7-f662-4b50-9f75-e6d9e4813527","meta":{"profile":["http://hl7.org/fhir/us/core/StructureDefinition/us-core-observation-lab"]},"status":"final","category":[{"coding":[{"system":"http://terminology.hl7.org/CodeSystem/observation-category","code":"laboratory","display":"Laboratory"}]}],"code":{"coding":[{"system":"http://loinc.org","code":"50690-7"}]},"subject":{"reference":"Patient/0635e093-9693-444e-ae82-33cc9614117a"},"effectiveDateTime":"2022-08-20T00:00:00+00:00","valueRatio":{"numerator":{"value":1},"denominator":{"value":32}}},"request":{"method":"POST","url":"Observation"}},{"fullUrl":"Observation/a3e7a1d2-0080-4e1c-bdeb-c27fb5f65346","resource":{"resourceType":"Observation","id":"a3e7a1d2-0080-4e1c-bdeb-c27fb5f65346","meta":{"profile":["http://hl7.org/fhir/us/core/StructureDefinition/us-core-observation-lab"]},"status":"final","category":[{"coding":[{"system":"http://terminology.hl7.org/CodeSystem/observation-category","code":"laboratory","display":"Laboratory"}]}],"code":{"coding":[{"system":"http://loinc.org","code":"51475-2"}]},"subject":{"reference":"Patient/0635e093-9693-444e-ae82-33cc9614117a"},"effectiveDateTime":"2022-10-15T00:00:00+00:00","valueRatio":{"numerator":{"value":1},"denominator":{"value":4}}},"request":{"method":"POST","url":"Observation"}},{"fullUrl":"Condition/f89f847a-fa53-460a-9611-45c9ef8e7f54","resource":{"resourceType":"Condition","id":"f89f847a-fa53-460a-9611-45c9ef8e7f54","meta":{"profile":["http://hl7.org/fhir/us/core/StructureDefinition/us-core-condition"]},"clinicalStatus":{"coding":[{"system":"http://terminology.hl7.org/CodeSystem/condition-clinical","code":"active","display":"Active"}]},"category":[{"coding":[{"system":"http://terminology.hl7.org/CodeSystem/condition-category","code":"problem-list-item"}]}],"code":{"coding":[{"system":"http://snomed.info/sct","code":"418290006"}]},"subject":{"reference":"Patient/0635e093-9693-444e-ae82-33cc9614117a"},"onsetDateTime":"2022-03-12T00:00:00+00:00"},"request":{"method":"POST","url":"Condition"}},{"fullUrl":"Condition/d0c91d77-493a-40dd-a4ed-68952233f243","resource":{"resourceType":"Condition","id":"d0c91d77-493a-40dd-a4ed-68952233f243","meta":{"profile":["http://hl7.org/fhir/us/core/StructureDefinition/us-core-condition"]},"clinicalStatus":{"coding":[{"system":"http://terminology.hl7.org/CodeSystem/condition-clinical","code":"active","display":"Active"}]},"category":[{"coding":[{"system":"http://terminology.hl7.org/CodeSystem/condition-category","code":"problem-list-item"}]}],"code":{"coding":[{"system":"http://snomed.info/sct","code":"44882003"}]},"subject":{"reference":"Patient/0635e093-9693-444e-ae82-33cc9614117a"},"onsetDateTime":"2022-05-09T00:00:00+00:00"},"request":{"method":"POST","url":"Condition"}},{"fullUrl":"Condition/00006253-0071-41b3-9c98-dca3c502d846","resource":{"resourceType":"Condition","id":"00006253-0071-41b3-9c98-dca3c502d846","meta":{"profile":["http://hl7.org/fhir/us/core/StructureDefinition/us-core-condition"]},"clinicalStatus":{"coding":[{"system":"http://terminology.hl7.org/CodeSystem/condition-clinical","code":"active","display":"Active"}]},"category":[{"coding":[{"system":"http://terminology.hl7.org/CodeSystem/condition-category","code":"problem-list-item"}]}],"code":{"coding":[{"system":"http://snomed.info/sct","code":"418290006"}]},"subject":{"reference":"Patient/0635e093-9693-444e-ae82-33cc9614117a"},"onsetDateTime":"2022-08-26T00:00:00+00:00"},"request":{"method":"POST","url":"Condition"}},{"fullUrl":"Condition/c92ee9dd-8355-4fea-ad9a-014c77daf467","resource":{"resourceType":"Condition","id":"c92ee9dd-8355-4fea-ad9a-014c77daf467","meta":{"profile":["http://hl7.org/fhir/us/core/StructureDefinition/us-core-condition"]},"clinicalStatus":{"coding":[{"system":"http://terminology.hl7.org/CodeSystem/condition-clinical","code":"active","display":"Active"}]},"category":[{"coding":[{"system":"http://terminology.hl7.org/CodeSystem/condition-category","code":"problem-list-item"}]}],"code":{"coding":[{"system":"http://snomed.info/sct","code":"418290006"}]},"subject":{"reference":"Patient/0635e093-9693-444e-ae82-33cc9614117a"},"onsetDateTime":"2022-02-05T00:00:00+00:00"},"request":{"method":"POST","url":"Condition"}},{"fullUrl":"Condition/733f7f1d-3bf5-47ba-ba67-f859332e73d8","resource":{"resourceType":"Condition","id":"733f7f1d-3bf5-47ba-ba67-f859332e73d8","meta":{"profile":["http://hl7.org/fhir/us/core/StructureDefinition/us-core-condition"]},"clinicalStatus":{"coding":[{"system":"http://terminology.hl7.org/CodeSystem/condition-clinical","code":"active","display":"Active"}]},"category":[{"coding":[{"system":"http://terminology.hl7.org/CodeSystem/condition-category","code":"problem-list-item"}]}],"code":{"coding":[{"system":"http://snomed.info/sct","code":"736686006"}]},"subject":{"reference":"Patient/0635e093-9693-444e-ae82-33cc9614117a"},"onsetDateTime":"2022-09-21T00:00:00+00:00"},"request":{"method":"POST","url":"Condition"}},{"fullUrl":"Condition/0525672a-5d59-4be7-950a-f490ff601069","resource":{"resourceType":"Condition","id":"0525672a-5d59-4be7-950a-f490ff601069","meta":{"profile":["http://hl7.org/fhir/us/core/StructureDefinition/us-core-condition"]},"clinicalStatus":{"coding":[{"system":"http://terminology.hl7.org/CodeSystem/condition-clinical","code":"active","display":"Active"}]},"category":[{"coding":[{"system":"http://terminology.hl7.org/CodeSystem/condition-category","code":"problem-list-item"}]}],"code":{"coding":[{"system":"http://snomed.info/sct","code":"91554004"}]},"subject":{"reference":"Patient/0635e093-9693-444e-ae82-33cc9614117a"},"onsetDateTime":"2022-11-02T00:00:00+00:00"},"request":{"method":"POST","url":"Condition"}},{"fullUrl":"Condition/8041fd0a-8881-4ef1-8f39-6c5e919c94ed","resource":{"resourceType":"Condition","id":"8041fd0a-8881-4ef1-8f39-6c5e919c94ed","meta":{"profile":["http://hl7.org/fhir/us/core/StructureDefinition/us-core-condition"]},"clinicalStatus":{"coding":[{"system":"http://terminology.hl7.org/CodeSystem/condition-clinical","code":"active","display":"Active"}]},"category":[{"coding":[{"system":"http://terminology.hl7.org/CodeSystem/condition-category","code":"problem-list-item"}]}],"code":{"coding":[{"system":"http://snomed.info/sct","code":"709977002"}]},"subject":{"reference":"Patient/0635e093-9693-444e-ae82-33cc9614117a"},"onsetDateTime":"2022-06-06T00:00:00+00:00"},"request":{"method":"POST","url":"Condition"}},{"fullUrl":"Condition/2ba34807-c7ae-40ec-a74a-c993eb2dfd32","resource":{"resourceType":"Condition","id":"2ba34807-c7ae-40ec-a74a-c993eb2dfd32","meta":{"profile":["http://hl7.org/fhir/us/core/StructureDefinition/us-core-condition"]},"clinicalStatus":{"coding":[{"system":"http://terminology.hl7.org/CodeSystem/condition-clinical","code":"active","display":"Active"}]},"category":[{"coding":[{"system":"http://terminology.hl7.org/CodeSystem/condition-category","code":"problem-list-item"}]}],"code":{"coding":[{"system":"http://snomed.info/sct","code":"91554004"}]},"subject":{"reference":"Patient/0635e093-9693-444e-ae82-33cc9614117a"},"onsetDateTime":"2022-02-14T00:00:00+00:00"},"request":{"method":"POST","url":"Condition"}},{"fullUrl":"Observation/73012dbd-c1bf-4ff8-b090-8dc6c3d82b12","resource":{"resourceType":"Observation","id":"73012dbd-c1bf-4ff8-b090-8dc6c3d82b12","meta":{"profile":["http://hl7.org/fhir/us/core/StructureDefinition/us-core-observation-lab"]},"status":"final","category":[{"coding":[{"system":"http://terminology.hl7.org/CodeSystem/observation-category","code":"laboratory","display":"Laboratory"}]}],"code":{"coding":[{"system":"http://loinc.org","code":"6690-2"}]},"subject":{"reference":"Patient/0635e093-9693-444e-ae82-33cc9614117a"},"effectiveDateTime":"2022-06-06T00:00:00+00:00","valueQuantity":{"value":7.2}},"request":{"method":"POST","url":"Observation"}},{"fullUrl":"Observation/d037f708-c98a-4cb2-bedf-ed8f1417effe","resource":{"resourceType":"Observation","id":"d037f708-c98a-4cb2-bedf-ed8f1417effe","meta":{"profile":["http://hl7.org/fhir/us/core/StructureDefinition/us-core-observation-lab"]},"status":"final","category":[{"coding":[{"system":"http://terminology.hl7.org/CodeSystem/observation-category","code":"laboratory","display":"Laboratory"}]}],"code":{"coding":[{"system":"http://loinc.org","code":"49498-9"}]},"subject":{"reference":"Patient/0635e093-9693-444e-ae82-33cc9614117a"},"effectiveDateTime":"2022-09-19T00:00:00+00:00","valueQuantity":{"value":10.9}},"request":{"method":"POST","url":"Observation"}},{"fullUrl":"Observation/366c4421-c764-4664-a5da-b60d7674796b","resource":{"resourceType":"Observation","id":"366c4421-c764-4664-a5da-b60d7674796b","meta":{"profile":["http://hl7.org/fhir/us/core/StructureDefinition/us-core-bmi"]},"status":"final","category":[{"coding":[{"system":"http://terminology.hl7.org/CodeSystem/observation-category","code":"vital-signs","display":"Vital Signs"}]}],"code":{"coding":[{"system":"http://loinc.org","code":"39156-5"}]},"subject":{"reference":"Patient/0635e093-9693-444e-ae82-33cc9614117a"},"effectiveDateTime":"2022-05-07T00:00:00+00:00","valueQuantity":{"value":11.87,"unit":"kg/m2","system":"http://unitsofmeasure.org","code":"kg/m2"}},"request":{"method":"POST","url":"Observation"}},{"fullUrl":"Observation/9ac12d2c-039b-4e22-8781-53c081d711e5","resource":{"resourceType":"Observation","id":"9ac12d2c-039b-4e22-8781-53c081d711e5","meta":{"profile":["http://hl7.org/fhir/us/core/StructureDefinition/us-core-head-circumference"]},"status":"final","category":[{"coding":[{"system":"http://terminology.hl7.org/CodeSystem/observation-category","code":"vital-signs","display":"Vital Signs"}]}],"code":{"coding":[{"system":"http://loinc.org","code":"9843-4"}]},"subject":{"reference":"Patient/0635e093-9693-444e-ae82-33cc9614117a"},"effectiveDateTime":"2022-01-27T00:00:00+00:00","valueQuantity":{"value":3.8,"unit":"Inch","system":"http://unitsofmeasure.org","code":"[in_i]"}},"request":{"method":"POST","url":"Observation"}},{"fullUrl":"Observation/a43ec0af-8cd5-4ef6-93b5-f0e52bd3ddb6","resource":{"resourceType":"Observation","id":"a43ec0af-8cd5-4ef6-93b5-f0e52bd3ddb6","meta":{"profile":["http://hl7.org/fhir/us/core/StructureDefinition/us-core-head-circumference"]},"status":"final","category":[{"coding":[{"system":"http://terminology.hl7.org/CodeSystem/observation-category","code":"vital-signs","display":"Vital Signs"}]}],"code":{"coding":[{"system":"http://loinc.org","code":"9843-4"}]},"subject":{"reference":"Patient/0635e093-9693-444e-ae82-33cc9614117a"},"effectiveDateTime":"2022-11-29T00:00:00+00:00","valueQuantity":{"value":7.4,"unit":"Inch","system":"http://unitsofmeasure.org","code":"[in_i]"}},"request":{"method":"POST","url":"Observation"}},{"fullUrl":"Observation/2c818c89-e09f-4929-a5b9-3f0dde85e198","resource":{"resourceType":"Observation","id":"2c818c89-e09f-4929-a5b9-3f0dde85e198","meta":{"profile":["http://hl7.org/fhir/us/core/StructureDefinition/us-core-body-height"]},"status":"final","category":[{"coding":[{"system":"http://terminology.hl7.org/CodeSystem/observation-category","code":"vital-signs","display":"Vital Signs"}]}],"code":{"coding":[{"system":"http://loinc.org","code":"8302-2"}]},"subject":{"reference":"Patient/0635e093-9693-444e-ae82-33cc9614117a"},"effectiveDateTime":"2022-12-02T00:00:00+00:00","valueQuantity":{"value":78.5,"unit":"Inch","system":"http://unitsofmeasure.org","code":"[in_i]"}},"request":{"method":"POST","url":"Observation"}},{"fullUrl":"Observation/1d95146b-f56f-4dd3-aa81-24a212e9e177","resource":{"resourceType":"Observation","id":"1d95146b-f56f-4dd3-aa81-24a212e9e177","meta":{"profile":["http://hl7.org/fhir/us/core/StructureDefinition/us-core-body-weight"]},"status":"final","category":[{"coding":[{"system":"http://terminology.hl7.org/CodeSystem/observation-category","code":"vital-signs","display":"Vital Signs"}]}],"code":{"coding":[{"system":"http://loinc.org","code":"29463-7"}]},"subject":{"reference":"Patient/0635e093-9693-444e-ae82-33cc9614117a"},"effectiveDateTime":"2022-09-06T00:00:00+00:00","valueQuantity":{"value":56,"unit":"kilogram","system":"http://unitsofmeasure.org","code":"kg"}},"request":{"method":"POST","url":"Observation"}},{"fullUrl":"Observation/4888c184-4dff-4694-9605-2e618c3c8628","resource":{"resourceType":"Observation","id":"4888c184-4dff-4694-9605-2e618c3c8628","meta":{"profile":["http://hl7.org/fhir/us/core/StructureDefinition/us-core-body-temperature"]},"status":"final","category":[{"coding":[{"system":"http://terminology.hl7.org/CodeSystem/observation-category","code":"vital-signs","display":"Vital Signs"}]}],"code":{"coding":[{"system":"http://loinc.org","code":"8310-5"}]},"subject":{"reference":"Patient/0635e093-9693-444e-ae82-33cc9614117a"},"effectiveDateTime":"2022-09-05T00:00:00+00:00","valueQuantity":{"value":130.89,"unit":"Degrees Fahrenheit","system":"http://unitsofmeasure.org","code":"[degF]"}},"request":{"method":"POST","url":"Observation"}},{"fullUrl":"Observation/b4460f8b-f55f-4766-a2d9-242c0fde44d4","resource":{"resourceType":"Observation","id":"b4460f8b-f55f-4766-a2d9-242c0fde44d4","meta":{"profile":["http://hl7.org/fhir/us/core/StructureDefinition/us-core-heart-rate"]},"status":"final","category":[{"coding":[{"system":"http://terminology.hl7.org/CodeSystem/observation-category","code":"vital-signs","display":"Vital Signs"}]}],"code":{"coding":[{"system":"http://loinc.org","code":"8867-4"}]},"subject":{"reference":"Patient/0635e093-9693-444e-ae82-33cc9614117a"},"effectiveDateTime":"2022-04-14T00:00:00+00:00","valueQuantity":{"value":100.4,"unit":"Per Minute","system":"http://unitsofmeasure.org","code":"/min"}},"request":{"method":"POST","url":"Observation"}},{"fullUrl":"Patient/5b983cb3-0ea7-48d1-8c9e-8086e59df55e","resource":{"resourceType":"Patient","id":"5b983cb3-0ea7-48d1-8c9e-8086e59df55e","meta":{"profile":["http://hl7.org/fhir/us/core/StructureDefinition/us-core-patient"]},"extension":[{"extension":[{"url":"ombCategory","valueCoding":{"system":"http://terminology.hl7.org/CodeSystem/v3-NullFlavor","code":"UNK","display":"unknown"}},{"url":"text","valueString":"unknown"}],"url":"http://hl7.org/fhir/us/core/StructureDefinition/us-core-race"},{"extension":[{"url":"ombCategory","valueCoding":{"system":"urn:oid:2.16.840.1.113883.6.238","code":"2135-2","display":"Hispanic or Latino"}},{"url":"text","valueString":"Hispanic or Latino"}],"url":"http://hl7.org/fhir/us/core/StructureDefinition/us-core-ethnicity"}],"identifier":[{"type":{"coding":[{"system":"http://terminology.hl7.org/CodeSystem/v2-0203","code":"MR"}]},"system":"urn:fhirgen:mrn","value":"485-37-9107"}],"name":[{"use":"official","family":"Brown","given":["Dale"]},{"use":"maiden","family":"Boyle"}],"telecom":[{"system":"phone","value":"001-704-853-9855x218","use":"home"},{"system":"email","value":"eshah@hotmail.com","use":"home"}],"gender":"male","birthDate":"1975-09-09","address":[{"use":"home","line":["9148 Williams Burg"],"city":"New Stephanie","state":"ND","postalCode":"50334"},{"use":"old","line":["053 Erin Trail"],"city":"Johnsonmouth","state":"HI","postalCode":"02018"}]},"request":{"method":"POST","url":"Patient"}},{"fullUrl":"Observation/f179af38-105f-4267-8c8f-2358d43c57b4","resource":{"resourceType":"Observation","id":"f179af38-105f-4267-8c8f-2358d43c57b4","meta":{"profile":["http://hl7.org/fhir/us/core/StructureDefinition/us-core-observation-lab"]},"status":"final","category":[{"coding":[{"system":"http://terminology.hl7.org/CodeSystem/observation-category","code":"laboratory","display":"Laboratory"}]}],"code":{"coding":[{"system":"http://loinc.org","code":"11084-1"}]},"subject":{"reference":"Patient/5b983cb3-0ea7-48d1-8c9e-8086e59df55e"},"effectiveDateTime":"2022-04-02T00:00:00+00:00","valueRatio":{"numerator":{"value":1},"denominator":{"value":64}}},"request":{"method":"POST","url":"Observation"}},{"fullUrl":"Observation/d85457e6-56b0-45e0-8f09-fd0860a8a3ed","resource":{"resourceType":"Observation","id":"d85457e6-56b0-45e0-8f09-fd0860a8a3ed","meta":{"profile":["http://hl7.org/fhir/us/core/StructureDefinition/us-core-observation-lab"]},"status":"final","category":[{"coding":[{"system":"http://terminology.hl7.org/CodeSystem/observation-category","code":"laboratory","display":"Laboratory"}]}],"code":{"coding":[{"system":"http://loinc.org","code":"34382-2"}]},"subject":{"reference":"Patient/5b983cb3-0ea7-48d1-8c9e-8086e59df55e"},"effectiveDateTime":"2022-10-14T00:00:00+00:00","valueRatio":{"numerator":{"value":1},"denominator":{"value":4}}},"request":{"method":"POST","url":"Observation"}},{"fullUrl":"Condition/2203ea63-4ee4-4961-a8ed-6cfa9b021612","resource":{"resourceType":"Condition","id":"2203ea63-4ee4-4961-a8ed-6cfa9b021612","meta":{"profile":["http://hl7.org/fhir/us/core/StructureDefinition/us-core-condition"]},"clinicalStatus":{"coding":[{"system":"http://terminology.hl7.org/CodeSystem/condition-clinical","code":"active","display":"Active"}]},"category":[{"coding":[{"system":"http://terminology.hl7.org/CodeSystem/condition-category","code":"problem-list-item"}]}],"code":{"coding":[{"system":"http://snomed.info/sct","code":"736686006"}]},"subject":{"reference":"Patient/5b983cb3-0ea7-48d1-8c9e-8086e59df55e"},"onsetDateTime":"2022-06-12T00:00:00+00:00"},"request":{"method":"POST","url":"Condition"}},{"fullUrl":"Condition/0a5137af-9d20-44fc-9ce6-9e68d407af5b","resource":{"resourceType":"Condition","id":"0a5137af-9d20-44fc-9ce6-9e68d407af5b","meta":{"profile":["http://hl7.org/fhir/us/core/StructureDefinition/us-core-condition"]},"clinicalStatus":{"coding":[{"system":"http://terminology.hl7.org/CodeSystem/condition-clinical","code":"active","display":"Active"}]},"category":[{"coding":[{"system":"http://terminology.hl7.org/CodeSystem/condition-category","code":"problem-list-item"}]}],"code":{"coding":[{"system":"http://snomed.info/sct","code":"44882003"}]},"subject":{"reference":"Patient/5b983cb3-0ea7-48d1-8c9e-8086e59df55e"},"onsetDateTime":"2022-10-27T00:00:00+00:00"},"request":{"method":"POST","url":"Condition"}},{"fullUrl":"Condition/085d57d0-b1e2-4403-afa8-b5e572f07755","resource":{"resourceType":"Condition","id":"085d57d0-b1e2-4403-afa8-b5e572f07755","meta":{"profile":["http://hl7.org/fhir/us/core/StructureDefinition/us-core-condition"]},"clinicalStatus":{"coding":[{"system":"http://terminology.hl7.org/CodeSystem/condition-clinical","code":"active","display":"Active"}]},"category":[{"coding":[{"system":"http://terminology.hl7.org/CodeSystem/condition-category","code":"problem-list-item"}]}],"code":{"coding":[{"system":"http://snomed.info/sct","code":"44882003"}]},"subject":{"reference":"Patient/5b983cb3-0ea7-48d1-8c9e-8086e59df55e"},"onsetDateTime":"2022-07-28T00:00:00+00:00"},"request":{"method":"POST","url":"Condition"}},{"fullUrl":"Condition/e5fdd13f-0635-4d2d-b485-3614d39d6f4a","resource":{"resourceType":"Condition","id":"e5fdd13f-0635-4d2d-b485-3614d39d6f4a","meta":{"profile":["http://hl7.org/fhir/us/core/StructureDefinition/us-core-condition"]},"clinicalStatus":{"coding":[{"system":"http://terminology.hl7.org/CodeSystem/condition-clinical","code":"active","display":"Active"}]},"category":[{"coding":[{"system":"http://terminology.hl7.org/CodeSystem/condition-category","code":"problem-list-item"}]}],"code":{"coding":[{"system":"http://snomed.info/sct","code":"418290006"}]},"subject":{"reference":"Patient/5b983cb3-0ea7-48d1-8c9e-8086e59df55e"},"onsetDateTime":"2022-09-27T00:00:00+00:00"},"request":{"method":"POST","url":"Condition"}},{"fullUrl":"Condition/a7859e54-a019-4a88-b06a-a473c10bb41e","resource":{"resourceType":"Condition","id":"a7859e54-a019-4a88-b06a-a473c10bb41e","meta":{"profile":["http://hl7.org/fhir/us/core/StructureDefinition/us-core-condition"]},"clinicalStatus":{"coding":[{"system":"http://terminology.hl7.org/CodeSystem/condition-clinical","code":"active","display":"Active"}]},"category":[{"coding":[{"system":"http://terminology.hl7.org/CodeSystem/condition-category","code":"problem-list-item"}]}],"code":{"coding":[{"system":"http://snomed.info/sct","code":"44882003"}]},"subject":{"reference":"Patient/5b983cb3-0ea7-48d1-8c9e-8086e59df55e"},"onsetDateTime":"2022-05-24T00:00:00+00:00"},"request":{"method":"POST","url":"Condition"}},{"fullUrl":"Condition/179d8a5f-fc83-4b0d-9dea-802b08961bc2","resource":{"resourceType":"Condition","id":"179d8a5f-fc83-4b0d-9dea-802b08961bc2","meta":{"profile":["http://hl7.org/fhir/us/core/StructureDefinition/us-core-condition"]},"clinicalStatus":{"coding":[{"system":"http://terminology.hl7.org/CodeSystem/condition-clinical","code":"active","display":"Active"}]},"category":[{"coding":[{"system":"http://terminology.hl7.org/CodeSystem/condition-category","code":"problem-list-item"}]}],"code":{"coding":[{"system":"http://snomed.info/sct","code":"709977002"}]},"subject":{"reference":"Patient/5b983cb3-0ea7-48d1-8c9e-8086e59df55e"},"onsetDateTime":"2022-10-27T00:00:00+00:00"},"request":{"method":"POST","url":"Condition"}},{"fullUrl":"Condition/675f6f40-5107-4c48-a689-d502c2d08142","resource":{"resourceType":"Condition","id":"675f6f40-5107-4c48-a689-d502c2d08142","meta":{"profile":["http://hl7.org/fhir/us/core/StructureDefinition/us-core-condition"]},"clinicalStatus":{"coding":[{"system":"http://terminology.hl7.org/CodeSystem/condition-clinical","code":"active","display":"Active"}]},"category":[{"coding":[{"system":"http://terminology.hl7.org/CodeSystem/condition-category","code":"problem-list-item"}]}],"code":{"coding":[{"system":"http://snomed.info/sct","code":"418290006"}]},"subject":{"reference":"Patient/5b983cb3-0ea7-48d1-8c9e-8086e59df55e"},"onsetDateTime":"2022-12-02T00:00:00+00:00"},"request":{"method":"POST","url":"Condition"}},{"fullUrl":"Observation/ff59fdcc-3394-4494-bb0c-e0515be9033a","resource":{"resourceType":"Observation","id":"ff59fdcc-3394-4494-bb0c-e0515be9033a","meta":{"profile":["http://hl7.org/fhir/us/core/StructureDefinition/us-core-observation-lab"]},"status":"final","category":[{"coding":[{"system":"http://terminology.hl7.org/CodeSystem/observation-category","code":"laboratory","display":"Laboratory"}]}],"code":{"coding":[{"system":"http://loinc.org","code":"6690-2"}]},"subject":{"reference":"Patient/5b983cb3-0ea7-48d1-8c9e-8086e59df55e"},"effectiveDateTime":"2022-07-24T00:00:00+00:00","valueQuantity":{"value":5.4}},"request":{"method":"POST","url":"Observation"}},{"fullUrl":"Observation/348b1908-6d2f-445b-a67d-8725cbc0f3b8","resource":{"resourceType":"Observation","id":"348b1908-6d2f-445b-a67d-8725cbc0f3b8","meta":{"profile":["http://hl7.org/fhir/us/core/StructureDefinition/us-core-observation-lab"]},"status":"final","category":[{"coding":[{"system":"http://terminology.hl7.org/CodeSystem/observation-category","code":"laboratory","display":"Laboratory"}]}],"code":{"coding":[{"system":"http://loinc.org","code":"49498-9"}]},"subject":{"reference":"Patient/5b983cb3-0ea7-48d1-8c9e-8086e59df55e"},"effectiveDateTime":"2022-06-17T00:00:00+00:00","valueQuantity":{"value":8.2}},"request":{"method":"POST","url":"Observation"}},{"fullUrl":"Observation/d760477f-ee44-442b-bccc-e0c8b9f2a6a5","resource":{"resourceType":"Observation","id":"d760477f-ee44-442b-bccc-e0c8b9f2a6a5","meta":{"profile":["http://hl7.org/fhir/us/core/StructureDefinition/us-core-observation-lab"]},"status":"final","category":[{"coding":[{"system":"http://terminology.hl7.org/CodeSystem/observation-category","code":"laboratory","display":"Laboratory"}]}],"code":{"coding":[{"system":"http://loinc.org","code":"6690-2"}]},"subject":{"reference":"Patient/5b983cb3-0ea7-48d1-8c9e-8086e59df55e"},"effectiveDateTime":"2022-04-03T00:00:00+00:00","valueQuantity":{"value":9}},"request":{"method":"POST","url":"Observation"}},{"fullUrl":"Observation/33e37def-72d2-4a7a-b034-69f171cf0530","resource":{"resourceType":"Observation","id":"33e37def-72d2-4a7a-b034-69f171cf0530","meta":{"profile":["http://hl7.org/fhir/us/core/StructureDefinition/us-core-bmi"]},"status":"final","category":[{"coding":[{"system":"http://terminology.hl7.org/CodeSystem/observation-category","code":"vital-signs","display":"Vital Signs"}]}],"code":{"coding":[{"system":"http://loinc.org","code":"39156-5"}]},"subject":{"reference":"Patient/5b983cb3-0ea7-48d1-8c9e-8086e59df55e"},"effectiveDateTime":"2022-09-18T00:00:00+00:00","valueQuantity":{"value":15.72,"unit":"kg/m2","system":"http://unitsofmeasure.org","code":"kg/m2"}},"request":{"method":"POST","url":"Observation"}},{"fullUrl":"Observation/6d0cf908-cef4-447a-8309-db0a27af8f10","resource":{"resourceType":"Observation","id":"6d0cf908-cef4-447a-8309-db0a27af8f10","meta":{"profile":["http://hl7.org/fhir/us/core/StructureDefinition/us-core-head-circumference"]},"status":"final","category":[{"coding":[{"system":"http://terminology.hl7.org/CodeSystem/observation-category","code":"vital-signs","display":"Vital Signs"}]}],"code":{"coding":[{"system":"http://loinc.org","code":"9843-4"}]},"subject":{"reference":"Patient/5b983cb3-0ea7-48d1-8c9e-8086e59df55e"},"effectiveDateTime":"2022-02-17T00:00:00+00:00","valueQuantity":{"value":9.6,"unit":"Inch","system":"http://unitsofmeasure.org","code":"[in_i]"}},"request":{"method":"POST","url":"Observation"}},{"fullUrl":"Observation/83254fde-7efd-4b4d-ae44-a23f3f312ef4","resource":{"resourceType":"Observation","id":"83254fde-7efd-4b4d-ae44-a23f3f312ef4","meta":{"profile":["http://hl7.org/fhir/us/core/StructureDefinition/us-core-head-circumference"]},"status":"final","category":[{"coding":[{"system":"http://terminology.hl7.org/CodeSystem/observation-category","code":"vital-signs","display":"Vital Signs"}]}],"code":{"coding":[{"system":"http://loinc.org","code":"9843-4"}]},"subject":{"reference":"Patient/5b983cb3-0ea7-48d1-8c9e-8086e59df55e"},"effectiveDateTime":"2022-02-04T00:00:00+00:00","valueQuantity":{"value":4.6,"unit":"Inch","system":"http://unitsofmeasure.org","code":"[in_i]"}},"request":{"method":"POST","url":"Observation"}},{"fullUrl":"Observation/b6adb35b-23b0-4431-a21d-8217983ea0ed","resource":{"resourceType":"Observation","id":"b6adb35b-23b0-4431-a21d-8217983ea0ed","meta":{"profile":["http://hl7.org/fhir/us/core/StructureDefinition/us-core-body-height"]},"status":"final","category":[{"coding":[{"system":"http://terminology.hl7.org/CodeSystem/observation-category","code":"vital-signs","display":"Vital Signs"}]}],"code":{"coding":[{"system":"http://loinc.org","code":"8302-2"}]},"subject":{"reference":"Patient/5b983cb3-0ea7-48d1-8c9e-8086e59df55e"},"effectiveDateTime":"2022-02-25T00:00:00+00:00","valueQuantity":{"value":79.8,"unit":"Inch","system":"http://unitsofmeasure.org","code":"[in_i]"}},"request":{"method":"POST","url":"Observation"}},{"fullUrl":"Observation/05f9bf3d-ce9c-42fc-8286-87e327510c12","resource":{"resourceType":"Observation","id":"05f9bf3d-ce9c-42fc-8286-87e327510c12","meta":{"profile":["http://hl7.org/fhir/us/core/StructureDefinition/us-core-body-height"]},"status":"final","category":[{"coding":[{"system":"http://terminology.hl7.org/CodeSystem/observation-category","code":"vital-signs","display":"Vital Signs"}]}],"code":{"coding":[{"system":"http://loinc.org","code":"8302-2"}]},"subject":{"reference":"Patient/5b983cb3-0ea7-48d1-8c9e-8086e59df55e"},"effectiveDateTime":"2022-06-28T00:00:00+00:00","valueQuantity":{"value":83.1,"unit":"Inch","system":"http://unitsofmeasure.org","code":"[in_i]"}},"request":{"method":"POST","url":"Observation"}},{"fullUrl":"Observation/9337926d-404d-4b4f-920c-c8a44ddda6f5","resource":{"resourceType":"Observation","id":"9337926d-404d-4b4f-920c-c8a44ddda6f5","meta":{"profile":["http://hl7.org/fhir/us/core/StructureDefinition/us-core-body-weight"]},"status":"final","category":[{"coding":[{"system":"http://terminology.hl7.org/CodeSystem/observation-category","code":"vital-signs","display":"Vital Signs"}]}],"code":{"coding":[{"system":"http://loinc.org","code":"29463-7"}]},"subject":{"reference":"Patient/5b983cb3-0ea7-48d1-8c9e-8086e59df55e"},"effectiveDateTime":"2022-02-28T00:00:00+00:00","valueQuantity":{"value":31.29,"unit":"kilogram","system":"http://unitsofmeasure.org","code":"kg"}},"request":{"method":"POST","url":"Observation"}},{"fullUrl":"Observation/0b2a50dd-fb85-4e21-a584-c6fc9e381e91","resource":{"resourceType":"Observation","id":"0b2a50dd-fb85-4e21-a584-c6fc9e381e91","meta":{"profile":["http://hl7.org/fhir/us/core/StructureDefinition/us-core-body-temperature"]},"status":"final","category":[{"coding":[{"system":"http://terminology.hl7.org/CodeSystem/observation-category","code":"vital-signs","display":"Vital Signs"}]}],"code":{"coding":[{"system":"http://loinc.org","code":"8310-5"}]},"subject":{"reference":"Patient/5b983cb3-0ea7-48d1-8c9e-8086e59df55e"},"effectiveDateTime":"2022-01-31T00:00:00+00:00","valueQuantity":{"value":149.16,"unit":"Degrees Fahrenheit","system":"http://unitsofmeasure.org","code":"[degF]"}},"request":{"method":"POST","url":"Observation"}},{"fullUrl":"Observation/58ce5774-8a81-415f-8b62-a5004bfc8014","resource":{"resourceType":"Observation","id":"58ce5774-8a81-415f-8b62-a5004bfc8014","meta":{"profile":["http://hl7.org/fhir/us/core/StructureDefinition/us-core-body-temperature"]},"status":"final","category":[{"coding":[{"system":"http://terminology.hl7.org/CodeSystem/observation-category","code":"vital-signs","display":"Vital Signs"}]}],"code":{"coding":[{"system":"http://loinc.org","code":"8310-5"}]},"subject":{"reference":"Patient/5b983cb3-0ea7-48d1-8c9e-8086e59df55e"},"effectiveDateTime":"2022-06-05T00:00:00+00:00","valueQuantity":{"value":46.51,"unit":"Degrees Fahrenheit","system":"http://unitsofmeasure.org","code":"[degF]"}},"request":{"method":"POST","url":"Observation"}},{"fullUrl":"Observation/0f76ab54-914f-40de-a752-538ed8f70136","resource":{"resourceType":"Observation","id":"0f76ab54-914f-40de-a752-538ed8f70136","meta":{"profile":["http://hl7.org/fhir/us/core/StructureDefinition/us-core-heart-rate"]},"status":"final","category":[{"coding":[{"system":"http://terminology.hl7.org/CodeSystem/observation-category","code":"vital-signs","display":"Vital Signs"}]}],"code":{"coding":[{"system":"http://loinc.org","code":"8867-4"}]},"subject":{"reference":"Patient/5b983cb3-0ea7-48d1-8c9e-8086e59df55e"},"effectiveDateTime":"2022-07-12T00:00:00+00:00","valueQuantity":{"value":99.4,"unit":"Per Minute","system":"http://unitsofmeasure.org","code":"/min"}},"request":{"method":"POST","url":"Observation"}},{"fullUrl":"Observation/6dd489b3-2eb6-4cf5-b268-13266b847ee5","resource":{"resourceType":"Observation","id":"6dd489b3-2eb6-4cf5-b268-13266b847ee5","meta":{"profile":["http://hl7.org/fhir/us/core/StructureDefinition/us-core-heart-rate"]},"status":"final","category":[{"coding":[{"system":"http://terminology.hl7.org/CodeSystem/observation-category","code":"vital-signs","display":"Vital Signs"}]}],"code":{"coding":[{"system":"http://loinc.org","code":"8867-4"}]},"subject":{"reference":"Patient/5b983cb3-0ea7-48d1-8c9e-8086e59df55e"},"effectiveDateTime":"2022-10-26T00:00:00+00:00","valueQuantity":{"value":101,"unit":"Per Minute","system":"http://unitsofmeasure.org","code":"/min"}},"request":{"method":"POST","url":"Observation"}},{"fullUrl":"Patient/0c724c06-843f-4cef-930e-581f398bbef3","resource":{"resourceType":"Patient","id":"0c724c06-843f-4cef-930e-581f398bbef3","meta":{"profile":["http://hl7.org/fhir/us/core/StructureDefinition/us-core-patient"]},"extension":[{"extension":[{"url":"ombCategory","valueCoding":{"system":"urn:oid:2.16.840.1.113883.6.238","code":"2028-9","display":"Asian"}},{"url":"text","valueString":"Asian"}],"url":"http://hl7.org/fhir/us/core/StructureDefinition/us-core-race"},{"extension":[{"url":"ombCategory","valueCoding":{"system":"urn:oid:2.16.840.1.113883.6.238","code":"2135-2","display":"Hispanic or Latino"}},{"url":"text","valueString":"Hispanic or Latino"}],"url":"http://hl7.org/fhir/us/core/StructureDefinition/us-core-ethnicity"}],"identifier":[{"type":{"coding":[{"system":"http://terminology.hl7.org/CodeSystem/v2-0203","code":"MR"}]},"system":"urn:fhirgen:mrn","value":"600-13-8213"}],"name":[{"use":"official","family":"Romero","given":["Jessica"]},{"use":"maiden","family":"Williams"}],"telecom":[{"system":"phone","value":"+1-331-336-2192x018","use":"mobile"},{"system":"email","value":"jeremy87@yahoo.com","use":"work"}],"gender":"female","birthDate":"1975-09-17","address":[{"use":"home","line":["270 Myers Green Suite 010"],"city":"Kellyland","state":"WA","postalCode":"60004"},{"use":"old","line":["46781 Smith Crest Apt. 428"],"city":"Joseview","state":"MS","postalCode":"41850"}]},"request":{"method":"POST","url":"Patient"}},{"fullUrl":"Observation/73762f81-9983-4ef4-ab17-e5126ef80884","resource":{"resourceType":"Observation","id":"73762f81-9983-4ef4-ab17-e5126ef80884","meta":{"profile":["http://hl7.org/fhir/us/core/StructureDefinition/us-core-observation-lab"]},"status":"final","category":[{"coding":[{"system":"http://terminology.hl7.org/CodeSystem/observation-category","code":"laboratory","display":"Laboratory"}]}],"code":{"coding":[{"system":"http://loinc.org","code":"22590-4"}]},"subject":{"reference":"Patient/0c724c06-843f-4cef-930e-581f398bbef3"},"effectiveDateTime":"2022-09-25T00:00:00+00:00","valueRatio":{"numerator":{"value":1},"denominator":{"value":32}}},"request":{"method":"POST","url":"Observation"}},{"fullUrl":"Observation/d748dbaf-3187-46ae-8258-707eadacdd82","resource":{"resourceType":"Observation","id":"d748dbaf-3187-46ae-8258-707eadacdd82","meta":{"profile":["http://hl7.org/fhir/us/core/StructureDefinition/us-core-observation-lab"]},"status":"final","category":[{"coding":[{"system":"http://terminology.hl7.org/CodeSystem/observation-category","code":"laboratory","display":"Laboratory"}]}],"code":{"coding":[{"system":"http://loinc.org","code":"31146-4"}]},"subject":{"reference":"Patient/0c724c06-843f-4cef-930e-581f398bbef3"},"effectiveDateTime":"2022-04-16T00:00:00+00:00","valueRatio":{"numerator":{"value":1},"denominator":{"value":32}}},"request":{"method":"POST","url":"Observation"}},{"fullUrl":"Condition/9cb44fe2-d9e3-4af9-a520-c53bedcbe87f","resource":{"resourceType":"Condition","id":"9cb44fe2-d9e3-4af9-a520-c53bedcbe87f","meta":{"profile":["http://hl7.org/fhir/us/core/StructureDefinition/us-core-condition"]},"clinicalStatus":{"coding":[{"system":"http://terminology.hl7.org/CodeSystem/condition-clinical","code":"active","display":"Active"}]},"category":[{"coding":[{"system":"http://terminology.hl7.org/CodeSystem/condition-category","code":"problem-list-item"}]}],"code":{"coding":[{"system":"http://snomed.info/sct","code":"91554004"}]},"subject":{"reference":"Patient/0c724c06-843f-4cef-930e-581f398bbef3"},"onsetDateTime":"2022-05-20T00:00:00+00:00"},"request":{"method":"POST","url":"Condition"}},{"fullUrl":"Condition/17701226-8596-4cd1-a33b-5fe75b28bc1a","resource":{"resourceType":"Condition","id":"17701226-8596-4cd1-a33b-5fe75b28bc1a","meta":{"profile":["http://hl7.org/fhir/us/core/StructureDefinition/us-core-condition"]},"clinicalStatus":{"coding":[{"system":"http://terminology.hl7.org/CodeSystem/condition-clinical","code":"active","display":"Active"}]},"category":[{"coding":[{"system":"http://terminology.hl7.org/CodeSystem/condition-category","code":"problem-list-item"}]}],"code":{"coding":[{"system":"http://snomed.info/sct","code":"709977002"}]},"subject":{"reference":"Patient/0c724c06-843f-4cef-930e-581f398bbef3"},"onsetDateTime":"2022-01-04T00:00:00+00:00"},"request":{"method":"POST","url":"Condition"}},{"fullUrl":"Condition/1bac5754-929f-4c13-b5b1-0cad7c5b10dd","resource":{"resourceType":"Condition","id":"1bac5754-929f-4c13-b5b1-0cad7c5b10dd","meta":{"profile":["http://hl7.org/fhir/us/core/StructureDefinition/us-core-condition"]},"clinicalStatus":{"coding":[{"system":"http://terminology.hl7.org/CodeSystem/condition-clinical","code":"active","display":"Active"}]},"category":[{"coding":[{"system":"http://terminology.hl7.org/CodeSystem/condition-category","code":"problem-list-item"}]}],"code":{"coding":[{"system":"http://snomed.info/sct","code":"44882003"}]},"subject":{"reference":"Patient/0c724c06-843f-4cef-930e-581f398bbef3"},"onsetDateTime":"2022-03-15T00:00:00+00:00"},"request":{"method":"POST","url":"Condition"}},{"fullUrl":"Condition/53fb6948-23b3-4ba8-8d0b-a8e80e37e150","resource":{"resourceType":"Condition","id":"53fb6948-23b3-4ba8-8d0b-a8e80e37e150","meta":{"profile":["http://hl7.org/fhir/us/core/StructureDefinition/us-core-condition"]},"clinicalStatus":{"coding":[{"system":"http://terminology.hl7.org/CodeSystem/condition-clinical","code":"active","display":"Active"}]},"category":[{"coding":[{"system":"http://terminology.hl7.org/CodeSystem/condition-category","code":"problem-list-item"}]}],"code":{"coding":[{"system":"http://snomed.info/sct","code":"44882003"}]},"subject":{"reference":"Patient/0c724c06-843f-4cef-930e-581f398bbef3"},"onsetDateTime":"2022-03-13T00:00:00+00:00"},"request":{"method":"POST","url":"Condition"}},{"fullUrl":"Condition/fa7612cf-3c91-449e-8444-783eb878871f","resource":{"resourceType":"Condition","id":"fa7612cf-3c91-449e-8444-783eb878871f","meta":{"profile":["http://hl7.org/fhir/us/core/StructureDefinition/us-core-condition"]},"clinicalStatus":{"coding":[{"system":"http://terminology.hl7.org/CodeSystem/condition-clinical","code":"active","display":"Active"}]},"category":[{"coding":[{"system":"http://terminology.hl7.org/CodeSystem/condition-category","code":"problem-list-item"}]}],"code":{"coding":[{"system":"http://snomed.info/sct","code":"709977002"}]},"subject":{"reference":"Patient/0c724c06-843f-4cef-930e-581f398bbef3"},"onsetDateTime":"2022-10-20T00:00:00+00:00"},"request":{"method":"POST","url":"Condition"}},{"fullUrl":"Condition/bec1a218-72ca-4583-8c89-04ba33fb7485","resource":{"resourceType":"Condition","id":"bec1a218-72ca-4583-8c89-04ba33fb7485","meta":{"profile":["http://hl7.org/fhir/us/core/StructureDefinition/us-core-condition"]},"clinicalStatus":{"coding":[{"system":"http://terminology.hl7.org/CodeSystem/condition-clinical","code":"active","display":"Active"}]},"category":[{"coding":[{"system":"http://terminology.hl7.org/CodeSystem/condition-category","code":"problem-list-item"}]}],"code":{"coding":[{"system":"http://snomed.info/sct","code":"44882003"}]},"subject":{"reference":"Patient/0c724c06-843f-4cef-930e-581f398bbef3"},"onsetDateTime":"2022-10-26T00:00:00+00:00"},"request":{"method":"POST","url":"Condition"}},{"fullUrl":"Observation/7e10c16b-f471-4e7d-8dd5-ed7d51f4af29","resource":{"resourceType":"Observation","id":"7e10c16b-f471-4e7d-8dd5-ed7d51f4af29","meta":{"profile":["http://hl7.org/fhir/us/core/StructureDefinition/us-core-observation-lab"]},"status":"final","category":[{"coding":[{"system":"http://terminology.hl7.org/CodeSystem/observation-category","code":"laboratory","display":"Laboratory"}]}],"code":{"coding":[{"system":"http://loinc.org","code":"49498-9"}]},"subject":{"reference":"Patient/0c724c06-843f-4cef-930e-581f398bbef3"},"effectiveDateTime":"2022-10-25T00:00:00+00:00","valueQuantity":{"value":6.4}},"request":{"method":"POST","url":"Observation"}},{"fullUrl":"Observation/77b83767-ad54-43fc-8b85-3b623f7d3bce","resource":{"resourceType":"Observation","id":"77b83767-ad54-43fc-8b85-3b623f7d3bce","meta":{"profile":["http://hl7.org/fhir/us/core/StructureDefinition/us-core-observation-lab"]},"status":"final","category":[{"coding":[{"system":"http://terminology.hl7.org/CodeSystem/observation-category","code":"laboratory","display":"Laboratory"}]}],"code":{"coding":[{"system":"http://loinc.org","code":"6690-2"}]},"subject":{"reference":"Patient/0c724c06-843f-4cef-930e-581f398bbef3"},"effectiveDateTime":"2022-09-11T00:00:00+00:00","valueQuantity":{"value":7.6}},"request":{"method":"POST","url":"Observation"}},{"fullUrl":"Observation/7233883a-b696-471b-bd10-89bbcec62626","resource":{"resourceType":"Observation","id":"7233883a-b696-471b-bd10-89bbcec62626","meta":{"profile":["http://hl7.org/fhir/us/core/StructureDefinition/us-core-observation-lab"]},"status":"final","category":[{"coding":[{"system":"http://terminology.hl7.org/CodeSystem/observation-category","code":"laboratory","display":"Laboratory"}]}],"code":{"coding":[{"system":"http://loinc.org","code":"26464-8"}]},"subject":{"reference":"Patient/0c724c06-843f-4cef-930e-581f398bbef3"},"effectiveDateTime":"2022-07-29T00:00:00+00:00","valueQuantity":{"value":8}},"request":{"method":"POST","url":"Observation"}},{"fullUrl":"Observation/d8942726-9fd0-4a29-8c5f-4d6324bec367","resource":{"resourceType":"Observation","id":"d8942726-9fd0-4a29-8c5f-4d6324bec367","meta":{"profile":["http://hl7.org/fhir/us/core/StructureDefinition/us-core-bmi"]},"status":"final","category":[{"coding":[{"system":"http://terminology.hl7.org/CodeSystem/observation-category","code":"vital-signs","display":"Vital Signs"}]}],"code":{"coding":[{"system":"http://loinc.org","code":"39156-5"}]},"subject":{"reference":"Patient/0c724c06-843f-4cef-930e-581f398bbef3"},"effectiveDateTime":"2022-12-27T00:00:00+00:00","valueQuantity":{"value":20.19,"unit":"kg/m2","system":"http://unitsofmeasure.org","code":"kg/m2"}},"request":{"method":"POST","url":"Observation"}},{"fullUrl":"Observation/8d548339-f489-45a6-abea-cb15a56f362d","resource":{"resourceType":"Observation","id":"8d548339-f489-45a6-abea-cb15a56f362d","meta":{"profile":["http://hl7.org/fhir/us/core/StructureDefinition/us-core-head-circumference"]},"status":"final","category":[{"coding":[{"system":"http://terminology.hl7.org/CodeSystem/observation-category","code":"vital-signs","display":"Vital Signs"}]}],"code":{"coding":[{"system":"http://loinc.org","code":"9843-4"}]},"subject":{"reference":"Patient/0c724c06-843f-4cef-930e-581f398bbef3"},"effectiveDateTime":"2022-07-27T00:00:00+00:00","valueQuantity":{"value":7.8,"unit":"Inch","system":"http://unitsofmeasure.org","code":"[in_i]"}},"request":{"method":"POST","url":"Observation"}},{"fullUrl":"Observation/5e7b38bd-c484-4046-a9ea-14feb6392e3e","resource":{"resourceType":"Observation","id":"5e7b38bd-c484-4046-a9ea-14feb6392e3e","meta":{"profile":["http://hl7.org/fhir/us/core/StructureDefinition/us-core-head-circumference"]},"status":"final","category":[{"coding":[{"system":"http://terminology.hl7.org/CodeSystem/observation-category","code":"vital-signs","display":"Vital Signs"}]}],"code":{"coding":[{"system":"http://loinc.org","code":"9843-4"}]},"subject":{"reference":"Patient/0c724c06-843f-4cef-930e-581f398bbef3"},"effectiveDateTime":"2022-11-27T00:00:00+00:00","valueQuantity":{"value":7.8,"unit":"Inch","system":"http://unitsofmeasure.org","code":"[in_i]"}},"request":{"method":"POST","url":"Observation"}},{"fullUrl":"Observation/9cae47ed-e440-4e8f-b537-749dd9f262b5","resource":{"resourceType":"Observation","id":"9cae47ed-e440-4e8f-b537-749dd9f262b5","meta":{"profile":["http://hl7.org/fhir/us/core/StructureDefinition/us-core-body-height"]},"status":"final","category":[{"coding":[{"system":"http://terminology.hl7.org/CodeSystem/observation-category","code":"vital-signs","display":"Vital Signs"}]}],"code":{"coding":[{"system":"http://loinc.org","code":"8302-2"}]},"subject":{"reference":"Patient/0c724c06-843f-4cef-930e-581f398bbef3"},"effectiveDateTime":"2022-08-04T00:00:00+00:00","valueQuantity":{"value":83.7,"unit":"Inch","system":"http://unitsofmeasure.org","code":"[in_i]"}},"request":{"method":"POST","url":"Observation"}},{"fullUrl":"Observation/4f789a29-2128-44ef-84f5-a115e7f65998","resource":{"resourceType":"Observation","id":"4f789a29-2128-44ef-84f5-a115e7f65998","meta":{"profile":["http://hl7.org/fhir/us/core/StructureDefinition/us-core-body-height"]},"status":"final","category":[{"coding":[{"system":"http://terminology.hl7.org/CodeSystem/observation-category","code":"vital-signs","display":"Vital Signs"}]}],"code":{"coding":[{"system":"http://loinc.org","code":"8302-2"}]},"subject":{"reference":"Patient/0c724c06-843f-4cef-930e-581f398bbef3"},"effectiveDateTime":"2022-10-13T00:00:00+00:00","valueQuantity":{"value":72.1,"unit":"Inch","system":"http://unitsofmeasure.org","code":"[in_i]"}},"request":{"method":"POST","url":"Observation"}},{"fullUrl":"Observation/b37da0cc-6ee2-4e1e-bfac-f2cdb34c1899","resource":{"resourceType":"Observation","id":"b37da0cc-6ee2-4e1e-bfac-f2cdb34c1899","meta":{"profile":["http://hl7.org/fhir/us/core/StructureDefinition/us-core-body-weight"]},"status":"final","category":[{"coding":[{"system":"http://terminology.hl7.org/CodeSystem/observation-category","code":"vital-signs","display":"Vital Signs"}]}],"code":{"coding":[{"system":"http://loinc.org","code":"29463-7"}]},"subject":{"reference":"Patient/0c724c06-843f-4cef-930e-581f398bbef3"},"effectiveDateTime":"2022-07-29T00:00:00+00:00","valueQuantity":{"value":111.45,"unit":"kilogram","system":"http://unitsofmeasure.org","code":"kg"}},"request":{"method":"POST","url":"Observation"}},{"fullUrl":"Observation/abd8e694-e265-4157-a705-f44097cc4060","resource":{"resourceType":"Observation","id":"abd8e694-e265-4157-a705-f44097cc4060","meta":{"profile":["http://hl7.org/fhir/us/core/StructureDefinition/us-core-body-weight"]},"status":"final","category":[{"coding":[{"system":"http://terminology.hl7.org/CodeSystem/observation-category","code":"vital-signs","display":"Vital Signs"}]}],"code":{"coding":[{"system":"http://loinc.org","code":"29463-7"}]},"subject":{"reference":"Patient/0c724c06-843f-4cef-930e-581f398bbef3"},"effectiveDateTime":"2022-10-18T00:00:00+00:00","valueQuantity":{"value":77.6,"unit":"kilogram","system":"http://unitsofmeasure.org","code":"kg"}},"request":{"method":"POST","url":"Observation"}},{"fullUrl":"Observation/fd8a9a7a-06f5-4e60-8f5b-b67d78ef7461","resource":{"resourceType":"Observation","id":"fd8a9a7a-06f5-4e60-8f5b-b67d78ef7461","meta":{"profile":["http://hl7.org/fhir/us/core/StructureDefinition/us-core-body-temperature"]},"status":"final","category":[{"coding":[{"system":"http://terminology.hl7.org/CodeSystem/observation-category","code":"vital-signs","display":"Vital Signs"}]}],"code":{"coding":[{"system":"http://loinc.org","code":"8310-5"}]},"subject":{"reference":"Patient/0c724c06-843f-4cef-930e-581f398bbef3"},"effectiveDateTime":"2022-10-06T00:00:00+00:00","valueQuantity":{"value":58.98,"unit":"Degrees Fahrenheit","system":"http://unitsofmeasure.org","code":"[degF]"}},"request":{"method":"POST","url":"Observation"}},{"fullUrl":"Observation/571eefbd-8e28-49bf-b86c-053fd1d11b13","resource":{"resourceType":"Observation","id":"571eefbd-8e28-49bf-b86c-053fd1d11b13","meta":{"profile":["http://hl7.org/fhir/us/core/StructureDefinition/us-core-body-temperature"]},"status":"final","category":[{"coding":[{"system":"http://terminology.hl7.org/CodeSystem/observation-category","code":"vital-signs","display":"Vital Signs"}]}],"code":{"coding":[{"system":"http://loinc.org","code":"8310-5"}]},"subject":{"reference":"Patient/0c724c06-843f-4cef-930e-581f398bbef3"},"effectiveDateTime":"2022-06-17T00:00:00+00:00","valueQuantity":{"value":101.24,"unit":"Degrees Fahrenheit","system":"http://unitsofmeasure.org","code":"[degF]"}},"request":{"method":"POST","url":"Observation"}},{"fullUrl":"Observation/bcd45b7c-220f-4a09-9388-e711f10a71a3","resource":{"resourceType":"Observation","id":"bcd45b7c-220f-4a09-9388-e711f10a71a3","meta":{"profile":["http://hl7.org/fhir/us/core/StructureDefinition/us-core-heart-rate"]},"status":"final","category":[{"coding":[{"system":"http://terminology.hl7.org/CodeSystem/observation-category","code":"vital-signs","display":"Vital Signs"}]}],"code":{"coding":[{"system":"http://loinc.org","code":"8867-4"}]},"subject":{"reference":"Patient/0c724c06-843f-4cef-930e-581f398bbef3"},"effectiveDateTime":"2022-09-09T00:00:00+00:00","valueQuantity":{"value":97.7,"unit":"Per Minute","system":"http://unitsofmeasure.org","code":"/min"}},"request":{"method":"POST","url":"Observation"}},{"fullUrl":"Patient/f323bc13-92be-4666-a594-8023bf3e5f41","resource":{"resourceType":"Patient","id":"f323bc13-92be-4666-a594-8023bf3e5f41","meta":{"profile":["http://hl7.org/fhir/us/core/StructureDefinition/us-core-patient"]},"extension":[{"extension":[{"url":"ombCategory","valueCoding":{"system":"urn:oid:2.16.840.1.113883.6.238","code":"2054-5","display":"Black or African American"}},{"url":"text","valueString":"Black or African American"}],"url":"http://hl7.org/fhir/us/core/StructureDefinition/us-core-race"},{"extension":[{"url":"ombCategory","valueCoding":{"system":"urn:oid:2.16.840.1.113883.6.238","code":"2186-5","display":"Non Hispanic or Latino"}},{"url":"text","valueString":"Non Hispanic or Latino"}],"url":"http://hl7.org/fhir/us/core/StructureDefinition/us-core-ethnicity"}],"identifier":[{"type":{"coding":[{"system":"http://terminology.hl7.org/CodeSystem/v2-0203","code":"MR"}]},"system":"urn:fhirgen:mrn","value":"199-07-8061"}],"name":[{"use":"official","family":"Smith","given":["Jenna"]},{"use":"maiden","family":"Fox"}],"telecom":[{"system":"phone","value":"748.294.9256x62572","use":"work"},{"system":"email","value":"campbellhenry@gmail.com","use":"home"}],"gender":"female","birthDate":"1986-03-21","address":[{"use":"home","line":["7746 Holt Walk Suite 915"],"city":"Amandashire","state":"CO","postalCode":"37531"},{"use":"old","line":["16832 Justin Circle"],"city":"North Courtneybury","state":"TN","postalCode":"83847"}]},"request":{"method":"POST","url":"Patient"}},{"fullUrl":"Observation/727ea7ff-c72e-479b-ba0c-9571de774648","resource":{"resourceType":"Observation","id":"727ea7ff-c72e-479b-ba0c-9571de774648","meta":{"profile":["http://hl7.org/fhir/us/core/StructureDefinition/us-core-observation-lab"]},"status":"final","category":[{"coding":[{"system":"http://terminology.hl7.org/CodeSystem/observation-category","code":"laboratory","display":"Laboratory"}]}],"code":{"coding":[{"system":"http://loinc.org","code":"87925-4"}]},"subject":{"reference":"Patient/f323bc13-92be-4666-a594-8023bf3e5f41"},"effectiveDateTime":"2022-01-10T00:00:00+00:00","valueRatio":{"numerator":{"value":1},"denominator":{"value":4}}},"request":{"method":"POST","url":"Observation"}},{"fullUrl":"Observation/5a142bb7-a570-404f-8290-cea1e99433d0","resource":{"resourceType":"Observation","id":"5a142bb7-a570-404f-8290-cea1e99433d0","meta":{"profile":["http://hl7.org/fhir/us/core/StructureDefinition/us-core-observation-lab"]},"status":"final","category":[{"coding":[{"system":"http://terminology.hl7.org/CodeSystem/observation-category","code":"laboratory","display":"Laboratory"}]}],"code":{"coding":[{"system":"http://loinc.org","code":"22590-4"}]},"subject":{"reference":"Patient/f323bc13-92be-4666-a594-8023bf3e5f41"},"effectiveDateTime":"2022-06-08T00:00:00+00:00","valueRatio":{"numerator":{"value":1},"denominator":{"value":4}}},"request":{"method":"POST","url":"Observation"}},{"fullUrl":"Observation/c0277edf-9137-4131-89ab-b2edbf244bf9","resource":{"resourceType":"Observation","id":"c0277edf-9137-4131-89ab-b2edbf244bf9","meta":{"profile":["http://hl7.org/fhir/us/core/StructureDefinition/us-core-observation-lab"]},"status":"final","category":[{"coding":[{"system":"http://terminology.hl7.org/CodeSystem/observation-category","code":"laboratory","display":"Laboratory"}]}],"code":{"coding":[{"system":"http://loinc.org","code":"5394-2"}]},"subject":{"reference":"Patient/f323bc13-92be-4666-a594-8023bf3e5f41"},"effectiveDateTime":"2022-12-28T00:00:00+00:00","valueRatio":{"numerator":{"value":1},"denominator":{"value":32}}},"request":{"method":"POST","url":"Observation"}},{"fullUrl":"Condition/3b44bac0-d4ee-443b-84e9-21efe143ef06","resource":{"resourceType":"Condition","id":"3b44bac0-d4ee-443b-84e9-21efe143ef06","meta":{"profile":["http://hl7.org/fhir/us/core/StructureDefinition/us-core-condition"]},"clinicalStatus":{"coding":[{"system":"http://terminology.hl7.org/CodeSystem/condition-clinical","code":"active","display":"Active"}]},"category":[{"coding":[{"system":"http://terminology.hl7.org/CodeSystem/condition-category","code":"problem-list-item"}]}],"code":{"coding":[{"system":"http://snomed.info/sct","code":"418290006"}]},"subject":{"reference":"Patient/f323bc13-92be-4666-a594-8023bf3e5f41"},"onsetDateTime":"2022-07-30T00:00:00+00:00"},"request":{"method":"POST","url":"Condition"}},{"fullUrl":"Condition/50f31649-652b-4c43-9643-51e145b40ed1","resource":{"resourceType":"Condition","id":"50f31649-652b-4c43-9643-51e145b40ed1","meta":{"profile":["http://hl7.org/fhir/us/core/StructureDefinition/us-core-condition"]},"clinicalStatus":{"coding":[{"system":"http://terminology.hl7.org/CodeSystem/condition-clinical","code":"active","display":"Active"}]},"category":[{"coding":[{"system":"http://terminology.hl7.org/CodeSystem/condition-category","code":"problem-list-item"}]}],"code":{"coding":[{"system":"http://snomed.info/sct","code":"418290006"}]},"subject":{"reference":"Patient/f323bc13-92be-4666-a594-8023bf3e5f41"},"onsetDateTime":"2022-10-07T00:00:00+00:00"},"request":{"method":"POST","url":"Condition"}},{"fullUrl":"Condition/f7d3e89a-2cd0-4dc7-8870-e7ab0fac73dd","resource":{"resourceType":"Condition","id":"f7d3e89a-2cd0-4dc7-8870-e7ab0fac73dd","meta":{"profile":["http://hl7.org/fhir/us/core/StructureDefinition/us-core-condition"]},"clinicalStatus":{"coding":[{"system":"http://terminology.hl7.org/CodeSystem/condition-clinical","code":"active","display":"Active"}]},"category":[{"coding":[{"system":"http://terminology.hl7.org/CodeSystem/condition-category","code":"problem-list-item"}]}],"code":{"coding":[{"system":"http://snomed.info/sct","code":"91554004"}]},"subject":{"reference":"Patient/f323bc13-92be-4666-a594-8023bf3e5f41"},"onsetDateTime":"2022-01-27T00:00:00+00:00"},"request":{"method":"POST","url":"Condition"}},{"fullUrl":"Condition/95386cf5-109d-40b2-a45a-f866af0f331f","resource":{"resourceType":"Condition","id":"95386cf5-109d-40b2-a45a-f866af0f331f","meta":{"profile":["http://hl7.org/fhir/us/core/StructureDefinition/us-core-condition"]},"clinicalStatus":{"coding":[{"system":"http://terminology.hl7.org/CodeSystem/condition-clinical","code":"active","display":"Active"}]},"category":[{"coding":[{"system":"http://terminology.hl7.org/CodeSystem/condition-category","code":"problem-list-item"}]}],"code":{"coding":[{"system":"http://snomed.info/sct","code":"418290006"}]},"subject":{"reference":"Patient/f323bc13-92be-4666-a594-8023bf3e5f41"},"onsetDateTime":"2022-11-20T00:00:00+00:00"},"request":{"method":"POST","url":"Condition"}},{"fullUrl":"Condition/13f5a319-b700-4a15-9e7c-7de9d5458449","resource":{"resourceType":"Condition","id":"13f5a319-b700-4a15-9e7c-7de9d5458449","meta":{"profile":["http://hl7.org/fhir/us/core/StructureDefinition/us-core-condition"]},"clinicalStatus":{"coding":[{"system":"http://terminology.hl7.org/CodeSystem/condition-clinical","code":"active","display":"Active"}]},"category":[{"coding":[{"system":"http://terminology.hl7.org/CodeSystem/condition-category","code":"problem-list-item"}]}],"code":{"coding":[{"system":"http://snomed.info/sct","code":"44882003"}]},"subject":{"reference":"Patient/f323bc13-92be-4666-a594-8023bf3e5f41"},"onsetDateTime":"2022-11-23T00:00:00+00:00"},"request":{"method":"POST","url":"Condition"}},{"fullUrl":"Condition/c6594ca0-823f-4213-891a-2f7359c82a34","resource":{"resourceType":"Condition","id":"c6594ca0-823f-4213-891a-2f7359c82a34","meta":{"profile":["http://hl7.org/fhir/us/core/StructureDefinition/us-core-condition"]},"clinicalStatus":{"coding":[{"system":"http://terminology.hl7.org/CodeSystem/condition-clinical","code":"active","display":"Active"}]},"category":[{"coding":[{"system":"http://terminology.hl7.org/CodeSystem/condition-category","code":"problem-list-item"}]}],"code":{"coding":[{"system":"http://snomed.info/sct","code":"418290006"}]},"subject":{"reference":"Patient/f323bc13-92be-4666-a594-8023bf3e5f41"},"onsetDateTime":"2022-01-02T00:00:00+00:00"},"request":{"method":"POST","url":"Condition"}},{"fullUrl":"Condition/a71be0b3-ffae-4604-a8e2-644aa81f0ed3","resource":{"resourceType":"Condition","id":"a71be0b3-ffae-4604-a8e2-644aa81f0ed3","meta":{"profile":["http://hl7.org/fhir/us/core/StructureDefinition/us-core-condition"]},"clinicalStatus":{"coding":[{"system":"http://terminology.hl7.org/CodeSystem/condition-clinical","code":"active","display":"Active"}]},"category":[{"coding":[{"system":"http://terminology.hl7.org/CodeSystem/condition-category","code":"problem-list-item"}]}],"code":{"coding":[{"system":"http://snomed.info/sct","code":"418290006"}]},"subject":{"reference":"Patient/f323bc13-92be-4666-a594-8023bf3e5f41"},"onsetDateTime":"2022-06-03T00:00:00+00:00"},"request":{"method":"POST","url":"Condition"}},{"fullUrl":"Condition/55259d8d-70be-4d98-be77-a9bc998f216a","resource":{"resourceType":"Condition","id":"55259d8d-70be-4d98-be77-a9bc998f216a","meta":{"profile":["http://hl7.org/fhir/us/core/StructureDefinition/us-core-condition"]},"clinicalStatus":{"coding":[{"system":"http://terminology.hl7.org/CodeSystem/condition-clinical","code":"active","display":"Active"}]},"category":[{"coding":[{"system":"http://terminology.hl7.org/CodeSystem/condition-category","code":"problem-list-item"}]}],"code":{"coding":[{"system":"http://snomed.info/sct","code":"91554004"}]},"subject":{"reference":"Patient/f323bc13-92be-4666-a594-8023bf3e5f41"},"onsetDateTime":"2022-12-25T00:00:00+00:00"},"request":{"method":"POST","url":"Condition"}},{"fullUrl":"Observation/548f3278-cee0-4f18-9829-d2f9739ccd5b","resource":{"resourceType":"Observation","id":"548f3278-cee0-4f18-9829-d2f9739ccd5b","meta":{"profile":["http://hl7.org/fhir/us/core/StructureDefinition/us-core-observation-lab"]},"status":"final","category":[{"coding":[{"system":"http://terminology.hl7.org/CodeSystem/observation-category","code":"laboratory","display":"Laboratory"}]}],"code":{"coding":[{"system":"http://loinc.org","code":"49498-9"}]},"subject":{"reference":"Patient/f323bc13-92be-4666-a594-8023bf3e5f41"},"effectiveDateTime":"2022-05-18T00:00:00+00:00","valueQuantity":{"value":5.6}},"request":{"method":"POST","url":"Observation"}},{"fullUrl":"Observation/890110a5-0b66-4c4b-a2b8-5db01b81b52e","resource":{"resourceType":"Observation","id":"890110a5-0b66-4c4b-a2b8-5db01b81b52e","meta":{"profile":["http://hl7.org/fhir/us/core/StructureDefinition/us-core-observation-lab"]},"status":"final","category":[{"coding":[{"system":"http://terminology.hl7.org/CodeSystem/observation-category","code":"laboratory","display":"Laboratory"}]}],"code":{"coding":[{"system":"http://loinc.org","code":"26464-8"}]},"subject":{"reference":"Patient/f323bc13-92be-4666-a594-8023bf3e5f41"},"effectiveDateTime":"2022-04-12T00:00:00+00:00","valueQuantity":{"value":8.6}},"request":{"method":"POST","url":"Observation"}},{"fullUrl":"Observation/716684dd-39c9-4ff9-9363-a8f8eed9348c","resource":{"resourceType":"Observation","id":"716684dd-39c9-4ff9-9363-a8f8eed9348c","meta":{"profile":["http://hl7.org/fhir/us/core/StructureDefinition/us-core-bmi"]},"status":"final","category":[{"coding":[{"system":"http://terminology.hl7.org/CodeSystem/observation-category","code":"vital-signs","display":"Vital Signs"}]}],"code":{"coding":[{"system":"http://loinc.org","code":"39156-5"}]},"subject":{"reference":"Patient/f323bc13-92be-4666-a594-8023bf3e5f41"},"effectiveDateTime":"2022-05-09T00:00:00+00:00","valueQuantity":{"value":20.98,"unit":"kg/m2","system":"http://unitsofmeasure.org","code":"kg/m2"}},"request":{"method":"POST","url":"Observation"}},{"fullUrl":"Observation/e618343c-d89d-4a8c-935d-1048c535eb02","resource":{"resourceType":"Observation","id":"e618343c-d89d-4a8c-935d-1048c535eb02","meta":{"profile":["http://hl7.org/fhir/us/core/StructureDefinition/us-core-head-circumference"]},"status":"final","category":[{"coding":[{"system":"http://terminology.hl7.org/CodeSystem/observation-category","code":"vital-signs","display":"Vital Signs"}]}],"code":{"coding":[{"system":"http://loinc.org","code":"9843-4"}]},"subject":{"reference":"Patient/f323bc13-92be-4666-a594-8023bf3e5f41"},"effectiveDateTime":"2022-03-28T00:00:00+00:00","valueQuantity":{"value":3.6,"unit":"Inch","system":"http://unitsofmeasure.org","code":"[in_i]"}},"request":{"method":"POST","url":"Observation"}},{"fullUrl":"Observation/4ddf5b61-68ca-4549-bd50-2c131b34862e","resource":{"resourceType":"Observation","id":"4ddf5b61-68ca-4549-bd50-2c131b34862e","meta":{"profile":["http://hl7.org/fhir/us/core/StructureDefinition/us-core-body-height"]},"status":"final","category":[{"coding":[{"system":"http://terminology.hl7.org/CodeSystem/observation-category","code":"vital-signs","display":"Vital Signs"}]}],"code":{"coding":[{"system":"http://loinc.org","code":"8302-2"}]},"subject":{"reference":"Patient/f323bc13-92be-4666-a594-8023bf3e5f41"},"effectiveDateTime":"2022-10-31T00:00:00+00:00","valueQuantity":{"value":76.7,"unit":"Inch","system":"http://unitsofmeasure.org","code":"[in_i]"}},"request":{"method":"POST","url":"Observation"}},{"fullUrl":"Observation/734a26d3-b8bd-45b9-accd-ae76c23bb46d","resource":{"resourceType":"Observation","id":"734a26d3-b8bd-45b9-accd-ae76c23bb46d","meta":{"profile":["http://hl7.org/fhir/us/core/StructureDefinition/us-core-body-height"]},"status":"final","category":[{"coding":[{"system":"http://terminology.hl7.org/CodeSystem/observation-category","code":"vital-signs","display":"Vital Signs"}]}],"code":{"coding":[{"system":"http://loinc.org","code":"8302-2"}]},"subject":{"reference":"Patient/f323bc13-92be-4666-a594-8023bf3e5f41"},"effectiveDateTime":"2022-08-22T00:00:00+00:00","valueQuantity":{"value":71.1,"unit":"Inch","system":"http://unitsofmeasure.org","code":"[in_i]"}},"request":{"method":"POST","url":"Observation"}},{"fullUrl":"Observation/5aa0996b-5ac4-4396-aee8-2274ae4e6184","resource":{"resourceType":"Observation","id":"5aa0996b-5ac4-4396-aee8-2274ae4e6184","meta":{"profile":["http://hl7.org/fhir/us/core/StructureDefinition/us-core-body-weight"]},"status":"final","category":[{"coding":[{"system":"http://terminology.hl7.org/CodeSystem/observation-category","code":"vital-signs","display":"Vital Signs"}]}],"code":{"coding":[{"system":"http://loinc.org","code":"29463-7"}]},"subject":{"reference":"Patient/f323bc13-92be-4666-a594-8023bf3e5f41"},"effectiveDateTime":"2022-07-29T00:00:00+00:00","valueQuantity":{"value":109.36,"unit":"kilogram","system":"http://unitsofmeasure.org","code":"kg"}},"request":{"method":"POST","url":"Observation"}},{"fullUrl":"Observation/0a7f4293-8df1-4fce-81f1-87fc0c7ff4d9","resource":{"resourceType":"Observation","id":"0a7f4293-8df1-4fce-81f1-87fc0c7ff4d9","meta":{"profile":["http://hl7.org/fhir/us/core/StructureDefinition/us-core-body-temperature"]},"status":"final","category":[{"coding":[{"system":"http://terminology.hl7.org/CodeSystem/observation-category","code":"vital-signs","display":"Vital Signs"}]}],"code":{"coding":[{"system":"http://loinc.org","code":"8310-5"}]},"subject":{"reference":"Patient/f323bc13-92be-4666-a594-8023bf3e5f41"},"effectiveDateTime":"2022-06-03T00:00:00+00:00","valueQuantity":{"value":69.47,"unit":"Degrees Fahrenheit","system":"http://unitsofmeasure.org","code":"[degF]"}},"request":{"method":"POST","url":"Observation"}},{"fullUrl":"Observation/527fc619-d871-46a0-82d9-6c0634cc5d2e","resource":{"resourceType":"Observation","id":"527fc619-d871-46a0-82d9-6c0634cc5d2e","meta":{"profile":["http://hl7.org/fhir/us/core/StructureDefinition/us-core-body-temperature"]},"status":"final","category":[{"coding":[{"system":"http://terminology.hl7.org/CodeSystem/observation-category","code":"vital-signs","display":"Vital Signs"}]}],"code":{"coding":[{"system":"http://loinc.org","code":"8310-5"}]},"subject":{"reference":"Patient/f323bc13-92be-4666-a594-8023bf3e5f41"},"effectiveDateTime":"2022-08-21T00:00:00+00:00","valueQuantity":{"value":135.84,"unit":"Degrees Fahrenheit","system":"http://unitsofmeasure.org","code":"[degF]"}},"request":{"method":"POST","url":"Observation"}},{"fullUrl":"Observation/f1ce6420-c4ce-407b-945d-ac55a42e6da3","resource":{"resourceType":"Observation","id":"f1ce6420-c4ce-407b-945d-ac55a42e6da3","meta":{"profile":["http://hl7.org/fhir/us/core/StructureDefinition/us-core-heart-rate"]},"status":"final","category":[{"coding":[{"system":"http://terminology.hl7.org/CodeSystem/observation-category","code":"vital-signs","display":"Vital Signs"}]}],"code":{"coding":[{"system":"http://loinc.org","code":"8867-4"}]},"subject":{"reference":"Patient/f323bc13-92be-4666-a594-8023bf3e5f41"},"effectiveDateTime":"2022-11-18T00:00:00+00:00","valueQuantity":{"value":101.3,"unit":"Per Minute","system":"http://unitsofmeasure.org","code":"/min"}},"request":{"method":"POST","url":"Observation"}},{"fullUrl":"Observation/0875ac0d-455f-4a2d-96b9-c893004d6914","resource":{"resourceType":"Observation","id":"0875ac0d-455f-4a2d-96b9-c893004d6914","meta":{"profile":["http://hl7.org/fhir/us/core/StructureDefinition/us-core-heart-rate"]},"status":"final","category":[{"coding":[{"system":"http://terminology.hl7.org/CodeSystem/observation-category","code":"vital-signs","display":"Vital Signs"}]}],"code":{"coding":[{"system":"http://loinc.org","code":"8867-4"}]},"subject":{"reference":"Patient/f323bc13-92be-4666-a594-8023bf3e5f41"},"effectiveDateTime":"2022-08-22T00:00:00+00:00","valueQuantity":{"value":100,"unit":"Per Minute","system":"http://unitsofmeasure.org","code":"/min"}},"request":{"method":"POST","url":"Observation"}},{"fullUrl":"Patient/05c45670-3db7-4025-8872-e351a0142ceb","resource":{"resourceType":"Patient","id":"05c45670-3db7-4025-8872-e351a0142ceb","meta":{"profile":["http://hl7.org/fhir/us/core/StructureDefinition/us-core-patient"]},"extension":[{"extension":[{"url":"ombCategory","valueCoding":{"system":"urn:oid:2.16.840.1.113883.6.238","code":"2076-8","display":"Native Hawaiian or Other Pacific Islander"}},{"url":"text","valueString":"Native Hawaiian or Other Pacific Islander"}],"url":"http://hl7.org/fhir/us/core/StructureDefinition/us-core-race"},{"extension":[{"url":"ombCategory","valueCoding":{"system":"urn:oid:2.16.840.1.113883.6.238","code":"2135-2","display":"Hispanic or Latino"}},{"url":"text","valueString":"Hispanic or Latino"}],"url":"http://hl7.org/fhir/us/core/StructureDefinition/us-core-ethnicity"}],"identifier":[{"type":{"coding":[{"system":"http://terminology.hl7.org/CodeSystem/v2-0203","code":"MR"}]},"system":"urn:fhirgen:mrn","value":"615-95-3660"}],"name":[{"use":"official","family":"Maxwell","given":["Randy"]},{"use":"maiden","family":"Taylor"}],"telecom":[{"system":"phone","value":"9172626379","use":"work"},{"system":"email","value":"yforbes@hotmail.com","use":"work"}],"gender":"other","birthDate":"1994-03-26","address":[{"use":"home","line":["945 Karen Mews"],"city":"West Jennifer","state":"MA","postalCode":"33883"},{"use":"old","line":["615 Lee Forges"],"city":"East Melissa","state":"VA","postalCode":"41829"}]},"request":{"method":"POST","url":"Patient"}},{"fullUrl":"Observation/ad5dde23-91f3-4039-b459-0f7cdbce5e5f","resource":{"resourceType":"Observation","id":"ad5dde23-91f3-4039-b459-0f7cdbce5e5f","meta":{"profile":["http://hl7.org/fhir/us/core/StructureDefinition/us-core-observation-lab"]},"status":"final","category":[{"coding":[{"system":"http://terminology.hl7.org/CodeSystem/observation-category","code":"laboratory","display":"Laboratory"}]}],"code":{"coding":[{"system":"http://loinc.org","code":"31147-2"}]},"subject":{"reference":"Patient/05c45670-3db7-4025-8872-e351a0142ceb"},"effectiveDateTime":"2022-05-03T00:00:00+00:00","valueRatio":{"numerator":{"value":1},"denominator":{"value":32}}},"request":{"method":"POST","url":"Observation"}},{"fullUrl":"Observation/d5109e14-5dbc-4543-b2e0-8366d231e92d","resource":{"resourceType":"Observation","id":"d5109e14-5dbc-4543-b2e0-8366d231e92d","meta":{"profile":["http://hl7.org/fhir/us/core/StructureDefinition/us-core-observation-lab"]},"status":"final","category":[{"coding":[{"system":"http://terminology.hl7.org/CodeSystem/observation-category","code":"laboratory","display":"Laboratory"}]}],"code":{"coding":[{"system":"http://loinc.org","code":"50695-6"}]},"subject":{"reference":"Patient/05c45670-3db7-4025-8872-e351a0142ceb"},"effectiveDateTime":"2022-12-14T00:00:00+00:00","valueRatio":{"numerator":{"value":1},"denominator":{"value":4}}},"request":{"method":"POST","url":"Observation"}},{"fullUrl":"Observation/1a15e077-a632-4f8c-80e1-e5394e790d28","resource":{"resourceType":"Observation","id":"1a15e077-a632-4f8c-80e1-e5394e790d28","meta":{"profile":["http://hl7.org/fhir/us/core/StructureDefinition/us-core-observation-lab"]},"status":"final","category":[{"coding":[{"system":"http://terminology.hl7.org/CodeSystem/observation-category","code":"laboratory","display":"Laboratory"}]}],"code":{"coding":[{"system":"http://loinc.org","code":"50690-7"}]},"subject":{"reference":"Patient/05c45670-3db7-4025-8872-e351a0142ceb"},"effectiveDateTime":"2022-10-10T00:00:00+00:00","valueRatio":{"numerator":{"value":1},"denominator":{"value":32}}},"request":{"method":"POST","url":"Observation"}},{"fullUrl":"Condition/e1bc191d-448e-4d67-97d8-bd3623d2e8bc","resource":{"resourceType":"Condition","id":"e1bc191d-448e-4d67-97d8-bd3623d2e8bc","meta":{"profile":["http://hl7.org/fhir/us/core/StructureDefinition/us-core-condition"]},"clinicalStatus":{"coding":[{"system":"http://terminology.hl7.org/CodeSystem/condition-clinical","code":"active","display":"Active"}]},"category":[{"coding":[{"system":"http://terminology.hl7.org/CodeSystem/condition-category","code":"problem-list-item"}]}],"code":{"coding":[{"system":"http://snomed.info/sct","code":"709977002"}]},"subject":{"reference":"Patient/05c45670-3db7-4025-8872-e351a0142ceb"},"onsetDateTime":"2022-10-22T00:00:00+00:00"},"request":{"method":"POST","url":"Condition"}},{"fullUrl":"Condition/ab36f831-a478-4c9d-ad19-a5afe37b28be","resource":{"resourceType":"Condition","id":"ab36f831-a478-4c9d-ad19-a5afe37b28be","meta":{"profile":["http://hl7.org/fhir/us/core/StructureDefinition/us-core-condition"]},"clinicalStatus":{"coding":[{"system":"http://terminology.hl7.org/CodeSystem/condition-clinical","code":"active","display":"Active"}]},"category":[{"coding":[{"system":"http://terminology.hl7.org/CodeSystem/condition-category","code":"problem-list-item"}]}],"code":{"coding":[{"system":"http://snomed.info/sct","code":"418290006"}]},"subject":{"reference":"Patient/05c45670-3db7-4025-8872-e351a0142ceb"},"onsetDateTime":"2022-08-09T00:00:00+00:00"},"request":{"method":"POST","url":"Condition"}},{"fullUrl":"Condition/981c9239-efc1-460c-a85f-6ee334849cfb","resource":{"resourceType":"Condition","id":"981c9239-efc1-460c-a85f-6ee334849cfb","meta":{"profile":["http://hl7.org/fhir/us/core/StructureDefinition/us-core-condition"]},"clinicalStatus":{"coding":[{"system":"http://terminology.hl7.org/CodeSystem/condition-clinical","code":"active","display":"Active"}]},"category":[{"coding":[{"system":"http://terminology.hl7.org/CodeSystem/condition-category","code":"problem-list-item"}]}],"code":{"coding":[{"system":"http://snomed.info/sct","code":"44882003"}]},"subject":{"reference":"Patient/05c45670-3db7-4025-8872-e351a0142ceb"},"onsetDateTime":"2022-07-12T00:00:00+00:00"},"request":{"method":"POST","url":"Condition"}},{"fullUrl":"Condition/516d1711-646b-4efd-b772-e96589530122","resource":{"resourceType":"Condition","id":"516d1711-646b-4efd-b772-e96589530122","meta":{"profile":["http://hl7.org/fhir/us/core/StructureDefinition/us-core-condition"]},"clinicalStatus":{"coding":[{"system":"http://terminology.hl7.org/CodeSystem/condition-clinical","code":"active","display":"Active"}]},"category":[{"coding":[{"system":"http://terminology.hl7.org/CodeSystem/condition-category","code":"problem-list-item"}]}],"code":{"coding":[{"system":"http://snomed.info/sct","code":"736686006"}]},"subject":{"reference":"Patient/05c45670-3db7-4025-8872-e351a0142ceb"},"onsetDateTime":"2022-11-12T00:00:00+00:00"},"request":{"method":"POST","url":"Condition"}},{"fullUrl":"Condition/8edb3d47-d33f-44c7-895e-99ca6c290629","resource":{"resourceType":"Condition","id":"8edb3d47-d33f-44c7-895e-99ca6c290629","meta":{"profile":["http://hl7.org/fhir/us/core/StructureDefinition/us-core-condition"]},"clinicalStatus":{"coding":[{"system":"http://terminology.hl7.org/CodeSystem/condition-clinical","code":"active","display":"Active"}]},"category":[{"coding":[{"system":"http://terminology.hl7.org/CodeSystem/condition-category","code":"problem-list-item"}]}],"code":{"coding":[{"system":"http://snomed.info/sct","code":"91554004"}]},"subject":{"reference":"Patient/05c45670-3db7-4025-8872-e351a0142ceb"},"onsetDateTime":"2022-12-04T00:00:00+00:00"},"request":{"method":"POST","url":"Condition"}},{"fullUrl":"Condition/bc1eda60-cd89-4b71-ae00-7ef7be18639d","resource":{"resourceType":"Condition","id":"bc1eda60-cd89-4b71-ae00-7ef7be18639d","meta":{"profile":["http://hl7.org/fhir/us/core/StructureDefinition/us-core-condition"]},"clinicalStatus":{"coding":[{"system":"http://terminology.hl7.org/CodeSystem/condition-clinical","code":"active","display":"Active"}]},"category":[{"coding":[{"system":"http://terminology.hl7.org/CodeSystem/condition-category","code":"problem-list-item"}]}],"code":{"coding":[{"system":"http://snomed.info/sct","code":"736686006"}]},"subject":{"reference":"Patient/05c45670-3db7-4025-8872-e351a0142ceb"},"onsetDateTime":"2022-01-05T00:00:00+00:00"},"request":{"method":"POST","url":"Condition"}},{"fullUrl":"Observation/38566745-5852-45d1-a8d7-730a56a4f9e7","resource":{"resourceType":"Observation","id":"38566745-5852-45d1-a8d7-730a56a4f9e7","meta":{"profile":["http://hl7.org/fhir/us/core/StructureDefinition/us-core-observation-lab"]},"status":"final","category":[{"coding":[{"system":"http://terminology.hl7.org/CodeSystem/observation-category","code":"laboratory","display":"Laboratory"}]}],"code":{"coding":[{"system":"http://loinc.org","code":"804-5"}]},"subject":{"reference":"Patient/05c45670-3db7-4025-8872-e351a0142ceb"},"effectiveDateTime":"2022-09-09T00:00:00+00:00","valueQuantity":{"value":10.1}},"request":{"method":"POST","url":"Observation"}},{"fullUrl":"Observation/755ea928-2699-4145-a0e5-eeeaf77a2c3e","resource":{"resourceType":"Observation","id":"755ea928-2699-4145-a0e5-eeeaf77a2c3e","meta":{"profile":["http://hl7.org/fhir/us/core/StructureDefinition/us-core-observation-lab"]},"status":"final","category":[{"coding":[{"system":"http://terminology.hl7.org/CodeSystem/observation-category","code":"laboratory","display":"Laboratory"}]}],"code":{"coding":[{"system":"http://loinc.org","code":"49498-9"}]},"subject":{"reference":"Patient/05c45670-3db7-4025-8872-e351a0142ceb"},"effectiveDateTime":"2022-10-10T00:00:00+00:00","valueQuantity":{"value":4.9}},"request":{"method":"POST","url":"Observation"}},{"fullUrl":"Observation/0a84a53a-8492-4fcd-aa30-860f874dbe67","resource":{"resourceType":"Observation","id":"0a84a53a-8492-4fcd-aa30-860f874dbe67","meta":{"profile":["http://hl7.org/fhir/us/core/StructureDefinition/us-core-bmi"]},"status":"final","category":[{"coding":[{"system":"http://terminology.hl7.org/CodeSystem/observation-category","code":"vital-signs","display":"Vital Signs"}]}],"code":{"coding":[{"system":"http://loinc.org","code":"39156-5"}]},"subject":{"reference":"Patient/05c45670-3db7-4025-8872-e351a0142ceb"},"effectiveDateTime":"2022-12-20T00:00:00+00:00","valueQuantity":{"value":29.1,"unit":"kg/m2","system":"http://unitsofmeasure.org","code":"kg/m2"}},"request":{"method":"POST","url":"Observation"}},{"fullUrl":"Observation/4429d662-600a-4c8f-9cbd-8d399f682f54","resource":{"resourceType":"Observation","id":"4429d662-600a-4c8f-9cbd-8d399f682f54","meta":{"profile":["http://hl7.org/fhir/us/core/StructureDefinition/us-core-bmi"]},"status":"final","category":[{"coding":[{"system":"http://terminology.hl7.org/CodeSystem/observation-category","code":"vital-signs","display":"Vital Signs"}]}],"code":{"coding":[{"system":"http://loinc.org","code":"39156-5"}]},"subject":{"reference":"Patient/05c45670-3db7-4025-8872-e351a0142ceb"},"effectiveDateTime":"2022-08-22T00:00:00+00:00","valueQuantity":{"value":19.4,"unit":"kg/m2","system":"http://unitsofmeasure.org","code":"kg/m2"}},"request":{"method":"POST","url":"Observation"}},{"fullUrl":"Observation/210911e6-83cc-4276-a785-933afcccc63f","resource":{"resourceType":"Observation","id":"210911e6-83cc-4276-a785-933afcccc63f","meta":{"profile":["http://hl7.org/fhir/us/core/StructureDefinition/us-core-head-circumference"]},"status":"final","category":[{"coding":[{"system":"http://terminology.hl7.org/CodeSystem/observation-category","code":"vital-signs","display":"Vital Signs"}]}],"code":{"coding":[{"system":"http://loinc.org","code":"9843-4"}]},"subject":{"reference":"Patient/05c45670-3db7-4025-8872-e351a0142ceb"},"effectiveDateTime":"2022-11-19T00:00:00+00:00","valueQuantity":{"value":7.3,"unit":"Inch","system":"http://unitsofmeasure.org","code":"[in_i]"}},"request":{"method":"POST","url":"Observation"}},{"fullUrl":"Observation/6aa2a4dc-17e0-47eb-bd75-6fa06628c2a5","resource":{"resourceType":"Observation","id":"6aa2a4dc-17e0-47eb-bd75-6fa06628c2a5","meta":{"profile":["http://hl7.org/fhir/us/core/StructureDefinition/us-core-head-circumference"]},"status":"final","category":[{"coding":[{"system":"http://terminology.hl7.org/CodeSystem/observation-category","code":"vital-signs","display":"Vital Signs"}]}],"code":{"coding":[{"system":"http://loinc.org","code":"9843-4"}]},"subject":{"reference":"Patient/05c45670-3db7-4025-8872-e351a0142ceb"},"effectiveDateTime":"2022-07-08T00:00:00+00:00","valueQuantity":{"value":9.3,"unit":"Inch","system":"http://unitsofmeasure.org","code":"[in_i]"}},"request":{"method":"POST","url":"Observation"}},{"fullUrl":"Observation/b7a11f7c-ffde-4169-939d-2ed6b8cd2518","resource":{"resourceType":"Observation","id":"b7a11f7c-ffde-4169-939d-2ed6b8cd2518","meta":{"profile":["http://hl7.org/fhir/us/core/StructureDefinition/us-core-body-height"]},"status":"final","category":[{"coding":[{"system":"http://terminology.hl7.org/CodeSystem/observation-category","code":"vital-signs","display":"Vital Signs"}]}],"code":{"coding":[{"system":"http://loinc.org","code":"8302-2"}]},"subject":{"reference":"Patient/05c45670-3db7-4025-8872-e351a0142ceb"},"effectiveDateTime":"2022-07-25T00:00:00+00:00","valueQuantity":{"value":64.2,"unit":"Inch","system":"http://unitsofmeasure.org","code":"[in_i]"}},"request":{"method":"POST","url":"Observation"}},{"fullUrl":"Observation/c6f680eb-b4c2-4a45-a0bc-b288e8835640","resource":{"resourceType":"Observation","id":"c6f680eb-b4c2-4a45-a0bc-b288e8835640","meta":{"profile":["http://hl7.org/fhir/us/core/StructureDefinition/us-core-body-height"]},"status":"final","category":[{"coding":[{"system":"http://terminology.hl7.org/CodeSystem/observation-category","code":"vital-signs","display":"Vital Signs"}]}],"code":{"coding":[{"system":"http://loinc.org","code":"8302-2"}]},"subject":{"reference":"Patient/05c45670-3db7-4025-8872-e351a0142ceb"},"effectiveDateTime":"2022-05-13T00:00:00+00:00","valueQuantity":{"value":80.5,"unit":"Inch","system":"http://unitsofmeasure.org","code":"[in_i]"}},"request":{"method":"POST","url":"Observation"}},{"fullUrl":"Observation/a80295f6-f1da-4022-84be-92b3aacc4c23","resource":{"resourceType":"Observation","id":"a80295f6-f1da-4022-84be-92b3aacc4c23","meta":{"profile":["http://hl7.org/fhir/us/core/StructureDefinition/us-core-body-weight"]},"status":"final","category":[{"coding":[{"system":"http://terminology.hl7.org/CodeSystem/observation-category","code":"vital-signs","display":"Vital Signs"}]}],"code":{"coding":[{"system":"http://loinc.org","code":"29463-7"}]},"subject":{"reference":"Patient/05c45670-3db7-4025-8872-e351a0142ceb"},"effectiveDateTime":"2022-02-07T00:00:00+00:00","valueQuantity":{"value":25.25,"unit":"kilogram","system":"http://unitsofmeasure.org","code":"kg"}},"request":{"method":"POST","url":"Observation"}},{"fullUrl":"Observation/5ae861b1-a951-465b-b7a7-6f76adf7d126","resource":{"resourceType":"Observation","id":"5ae861b1-a951-465b-b7a7-6f76adf7d126","meta":{"profile":["http://hl7.org/fhir/us/core/StructureDefinition/us-core-body-weight"]},"status":"final","category":[{"coding":[{"system":"http://terminology.hl7.org/CodeSystem/observation-category","code":"vital-signs","display":"Vital Signs"}]}],"code":{"coding":[{"system":"http://loinc.org","code":"29463-7"}]},"subject":{"reference":"Patient/05c45670-3db7-4025-8872-e351a0142ceb"},"effectiveDateTime":"2022-08-05T00:00:00+00:00","valueQuantity":{"value":54.47,"unit":"kilogram","system":"http://unitsofmeasure.org","code":"kg"}},"request":{"method":"POST","url":"Observation"}},{"fullUrl":"Observation/d9745060-9b05-4e25-805f-4b1c76271cbf","resource":{"resourceType":"Observation","id":"d9745060-9b05-4e25-805f-4b1c76271cbf","meta":{"profile":["http://hl7.org/fhir/us/core/StructureDefinition/us-core-body-temperature"]},"status":"final","category":[{"coding":[{"system":"http://terminology.hl7.org/CodeSystem/observation-category","code":"vital-signs","display":"Vital Signs"}]}],"code":{"coding":[{"system":"http://loinc.org","code":"8310-5"}]},"subject":{"reference":"Patient/05c45670-3db7-4025-8872-e351a0142ceb"},"effectiveDateTime":"2022-01-19T00:00:00+00:00","valueQuantity":{"value":120.86,"unit":"Degrees Fahrenheit","system":"http://unitsofmeasure.org","code":"[degF]"}},"request":{"method":"POST","url":"Observation"}},{"fullUrl":"Observation/3917931d-c5da-45f7-88bf-9aefcd752584","resource":{"resourceType":"Observation","id":"3917931d-c5da-45f7-88bf-9aefcd752584","meta":{"profile":["http://hl7.org/fhir/us/core/StructureDefinition/us-core-body-temperature"]},"status":"final","category":[{"coding":[{"system":"http://terminology.hl7.org/CodeSystem/observation-category","code":"vital-signs","display":"Vital Signs"}]}],"code":{"coding":[{"system":"http://loinc.org","code":"8310-5"}]},"subject":{"reference":"Patient/05c45670-3db7-4025-8872-e351a0142ceb"},"effectiveDateTime":"2022-10-13T00:00:00+00:00","valueQuantity":{"value":111.61,"unit":"Degrees Fahrenheit","system":"http://unitsofmeasure.org","code":"[degF]"}},"request":{"method":"POST","url":"Observation"}},{"fullUrl":"Observation/7c47803a-ba04-4697-bb91-9292785aaac5","resource":{"resourceType":"Observation","id":"7c47803a-ba04-4697-bb91-9292785aaac5","meta":{"profile":["http://hl7.org/fhir/us/core/StructureDefinition/us-core-heart-rate"]},"status":"final","category":[{"coding":[{"system":"http://terminology.hl7.org/CodeSystem/observation-category","code":"vital-signs","display":"Vital Signs"}]}],"code":{"coding":[{"system":"http://loinc.org","code":"8867-4"}]},"subject":{"reference":"Patient/05c45670-3db7-4025-8872-e351a0142ceb"},"effectiveDateTime":"2022-02-11T00:00:00+00:00","valueQuantity":{"value":98.9,"unit":"Per Minute","system":"http://unitsofmeasure.org","code":"/min"}},"request":{"method":"POST","url":"Observation"}},{"fullUrl":"Observation/b6760ee1-de65-446b-a279-07d9d23d05ac","resource":{"resourceType":"Observation","id":"b6760ee1-de65-446b-a279-07d9d23d05ac","meta":{"profile":["http://hl7.org/fhir/us/core/StructureDefinition/us-core-heart-rate"]},"status":"final","category":[{"coding":[{"system":"http://terminology.hl7.org/CodeSystem/observation-category","code":"vital-signs","display":"Vital Signs"}]}],"code":{"coding":[{"system":"http://loinc.org","code":"8867-4"}]},"subject":{"reference":"Patient/05c45670-3db7-4025-8872-e351a0142ceb"},"effectiveDateTime":"2022-01-11T00:00:00+00:00","valueQuantity":{"value":100.5,"unit":"Per Minute","system":"http://unitsofmeasure.org","code":"/min"}},"request":{"method":"POST","url":"Observation"}}]}