{"resourceType":"Bundle","id":"d6d92602-6d03-48f7-b613-8602d19c2928","type":"collection","entry":[{"fullUrl":"Patient/ea7cc7bf-c0bc-4670-8357-13f2eb067288","resource":{"resourceType":"Patient","id":"ea7cc7bf-c0bc-4670-8357-13f2eb067288","meta":{"profile":["http://hl7.org/fhir/us/core/StructureDefinition/us-core-patient"]},"extension":[{"extension":[{"url":"ombCategory","valueCoding":{"system":"urn:oid:2.16.840.1.113883.6.238","code":"2028-9","display":"Asian"}},{"url":"text","valueString":"Asian"}],"url":"http://hl7.org/fhir/us/core/StructureDefinition/us-core-race"},{"extension":[{"url":"ombCategory","valueCoding":{"system":"urn:oid:2.16.840.1.113883.6.238","code":"2135-2","display":"Hispanic or Latino"}},{"url":"text","valueString":"Hispanic or Latino"}],"url":"http://hl7.org/fhir/us/core/StructureDefinition/us-core-ethnicity"}],"identifier":[{"type":{"coding":[{"system":"http://terminology.hl7.org/CodeSystem/v2-0203","code":"MR"}]},"system":"urn:fhirgen:mrn","value":"399-20-4100"},{"system":"http://hl7.org/fhir/sid/us-ssn","value":"502-61-9651"}],"name":[{"use":"official","family":"Wheeler","given":["Jeremy"]},{"use":"maiden","family":"Sanchez"}],"telecom":[{"system":"phone","value":"+1-022-708-2058x342","use":"home"},{"system":"email","value":"jerrythomas@yahoo.com","use":"home"}],"gender":"male","birthDate":"1956-01-28","address":[{"use":"home","line":["24010 Gary Key"],"city":"Lake Gerald","state":"VT","postalCode":"78231"},{"use":"old","line":["84413 Peterson Ford Suite 113"],"city":"New Timothychester","state":"OK","postalCode":"99367"}],"maritalStatus":{"coding":[{"system":"http://terminology.hl7.org/CodeSystem/v3-MaritalStatus","code":"W","display":"Widowed"}]}}},{"fullUrl":"Observation/2833aec5-29f1-4a52-9bbc-fc12d16ed02c","resource":{"resourceType":"Observation","id":"2833aec5-29f1-4a52-9bbc-fc12d16ed02c","meta":{"profile":["http://hl7.org/fhir/us/core/StructureDefinition/us-core-observation-lab"]},"status":"final","category":[{"coding":[{"system":"http://terminology.hl7.org/CodeSystem/observation-category","code":"laboratory","display":"Laboratory"}]}],"code":{"coding":[{"system":"http://loinc.org","code":"22590-4"}]},"subject":{"reference":"Patient/ea7cc7bf-c0bc-4670-8357-13f2eb067288"},"effectiveDateTime":"2022-03-31T00:00:00+00:00","valueRatio":{"numerator":{"value":1},"denominator":{"value":4}}}},{"fullUrl":"Observation/a9ef64a9-ea27-4f37-9d6e-66dbbb4352b1","resource":{"resourceType":"Observation","id":"a9ef64a9-ea27-4f37-9d6e-66dbbb4352b1","meta":{"profile":["http://hl7.org/fhir/us/core/StructureDefinition/us-core-observation-lab"]},"status":"final","category":[{"coding":[{"system":"http://terminology.hl7.org/CodeSystem/observation-category","code":"laboratory","display":"Laboratory"}]}],"code":{"coding":[{"system":"http://loinc.org","code":"50690-7"}]},"subject":{"reference":"Patient/ea7cc7bf-c0bc-4670-8357-13f2eb067288"},"effectiveDateTime":"2022-06-03T00:00:00+00:00","valueRatio":{"numerator":{"value":1},"denominator":{"value":64}}}},{"fullUrl":"Observation/8db280cc-1e36-4f9d-b666-2f52340ac48b","resource":{"resourceType":"Observation","id":"8db280cc-1e36-4f9d-b666-2f52340ac48b","meta":{"profile":["http://hl7.org/fhir/us/core/StructureDefinition/us-core-observation-lab"]},"status":"final","category":[{"coding":[{"system":"http://terminology.hl7.org/CodeSystem/observation-category","code":"laboratory","display":"Laboratory"}]}],"code":{"coding":[{"system":"http://loinc.org","code":"31146-4"}]},"subject":{"reference":"Patient/ea7cc7bf-c0bc-4670-8357-13f2eb067288"},"effectiveDateTime":"2022-06-17T00:00:00+00:00","valueRatio":{"numerator":{"value":1},"denominator":{"value":64}}}},{"fullUrl":"Condition/696b1508-7217-4f37-b049-4e3456cdb245","resource":{"resourceType":"Condition","id":"696b1508-7217-4f37-b049-4e3456cdb245","meta":{"profile":["http://hl7.org/fhir/us/core/StructureDefinition/us-core-condition"]},"clinicalStatus":{"coding":[{"system":"http://terminology.hl7.org/CodeSystem/condition-clinical","code":"active","display":"Active"}]},"category":[{"coding":[{"system":"http://terminology.hl7.org/CodeSystem/condition-category","code":"problem-list-item"}]}],"code":{"coding":[{"system":"http://snomed.info/sct","code":"44882003"}]},"subject":{"reference":"Patient/ea7cc7bf-c0bc-4670-8357-13f2eb067288"},"onsetDateTime":"2022-08-05T00:00:00+00:00"}},{"fullUrl":"Condition/d4239356-a635-437b-8704-ef3e532b40e0","resource":{"resourceType":"Condition","id":"d4239356-a635-437b-8704-ef3e532b40e0","meta":{"profile":["http://hl7.org/fhir/us/core/StructureDefinition/us-core-condition"]},"clinicalStatus":{"coding":[{"system":"http://terminology.hl7.org/CodeSystem/condition-clinical","code":"active","display":"Active"}]},"category":[{"coding":[{"system":"http://terminology.hl7.org/CodeSystem/condition-category","code":"problem-list-item"}]}],"code":{"coding":[{"system":"http://snomed.info/sct","code":"91554004"}]},"subject":{"reference":"Patient/ea7cc7bf-c0bc-4670-8357-13f2eb067288"},"onsetDateTime":"2022-09-28T00:00:00+00:00"}},{"fullUrl":"Condition/0aeb3d54-1ee6-40f7-b184-e854cd78c8de","resource":{"resourceType":"Condition","id":"0aeb3d54-1ee6-40f7-b184-e854cd78c8de","meta":{"profile":["http://hl7.org/fhir/us/core/StructureDefinition/us-core-condition"]},"clinicalStatus":{"coding":[{"system":"http://terminology.hl7.org/CodeSystem/condition-clinical","code":"active","display":"Active"}]},"category":[{"coding":[{"system":"http://terminology.hl7.org/CodeSystem/condition-category","code":"problem-list-item"}]}],"code":{"coding":[{"system":"http://snomed.info/sct","code":"44882003"}]},"subject":{"reference":"Patient/ea7cc7bf-c0bc-4670-8357-13f2eb067288"},"onsetDateTime":"2022-12-31T00:00:00+00:00"}},{"fullUrl":"Observation/687f7cb4-9b86-42fb-a70f-98223852934d","resource":{"resourceType":"Observation","id":"687f7cb4-9b86-42fb-a70f-98223852934d","meta":{"profile":["http://hl7.org/fhir/us/core/StructureDefinition/us-core-observation-lab"]},"status":"final","category":[{"coding":[{"system":"http://terminology.hl7.org/CodeSystem/observation-category","code":"laboratory","display":"Laboratory"}]}],"code":{"coding":[{"system":"http://loinc.org","code":"26464-8"}]},"subject":{"reference":"Patient/ea7cc7bf-c0bc-4670-8357-13f2eb067288"},"effectiveDateTime":"2022-03-26T00:00:00+00:00","valueQuantity":{"value":8}}},{"fullUrl":"Observation/0ec72ca2-3abc-43d7-bf0d-20ae8c095510","resource":{"resourceType":"Observation","id":"0ec72ca2-3abc-43d7-bf0d-20ae8c095510","meta":{"profile":["http://hl7.org/fhir/us/core/StructureDefinition/us-core-observation-lab"]},"status":"final","category":[{"coding":[{"system":"http://terminology.hl7.org/CodeSystem/observation-category","code":"laboratory","display":"Laboratory"}]}],"code":{"coding":[{"system":"http://loinc.org","code":"49498-9"}]},"subject":{"reference":"Patient/ea7cc7bf-c0bc-4670-8357-13f2eb067288"},"effectiveDateTime":"2022-09-15T00:00:00+00:00","valueQuantity":{"value":10.6}}},{"fullUrl":"Observation/231b525c-c904-4aa3-8a10-9ea90a2f7f81","resource":{"resourceType":"Observation","id":"231b525c-c904-4aa3-8a10-9ea90a2f7f81","meta":{"profile":["http://hl7.org/fhir/us/core/StructureDefinition/us-core-observation-lab"]},"status":"final","category":[{"coding":[{"system":"http://terminology.hl7.org/CodeSystem/observation-category","code":"laboratory","display":"Laboratory"}]}],"code":{"coding":[{"system":"http://loinc.org","code":"49498-9"}]},"subject":{"reference":"Patient/ea7cc7bf-c0bc-4670-8357-13f2eb067288"},"effectiveDateTime":"2022-12-16T00:00:00+00:00","valueQuantity":{"value":6.6}}},{"fullUrl":"Observation/c86ec54e-a36d-4e70-a9a1-6cc87c147cc4","resource":{"resourceType":"Observation","id":"c86ec54e-a36d-4e70-a9a1-6cc87c147cc4","meta":{"profile":["http://hl7.org/fhir/us/core/StructureDefinition/us-core-bmi"]},"status":"final","category":[{"coding":[{"system":"http://terminology.hl7.org/CodeSystem/observation-category","code":"vital-signs","display":"Vital Signs"}]}],"code":{"coding":[{"system":"http://loinc.org","code":"39156-5"}]},"subject":{"reference":"Patient/ea7cc7bf-c0bc-4670-8357-13f2eb067288"},"effectiveDateTime":"2022-11-28T00:00:00+00:00","valueQuantity":{"value":12,"unit":"kg/m2","system":"http://unitsofmeasure.org","code":"kg/m2"}}},{"fullUrl":"Observation/0b01599c-4cc0-44b4-ba31-aa6b75931677","resource":{"resourceType":"Observation","id":"0b01599c-4cc0-44b4-ba31-aa6b75931677","meta":{"profile":["http://hl7.org/fhir/us/core/StructureDefinition/us-core-head-circumference"]},"status":"final","category":[{"coding":[{"system":"http://terminology.hl7.org/CodeSystem/observation-category","code":"vital-signs","display":"Vital Signs"}]}],"code":{"coding":[{"system":"http://loinc.org","code":"9843-4"}]},"subject":{"reference":"Patient/ea7cc7bf-c0bc-4670-8357-13f2eb067288"},"effectiveDateTime":"2022-11-13T00:00:00+00:00","valueQuantity":{"value":8.3,"unit":"Inch","system":"http://unitsofmeasure.org","code":"[in_i]"}}},{"fullUrl":"Observation/f15f3635-be44-4f1b-bf72-f206aa34280b","resource":{"resourceType":"Observation","id":"f15f3635-be44-4f1b-bf72-f206aa34280b","meta":{"profile":["http://hl7.org/fhir/us/core/StructureDefinition/us-core-head-circumference"]},"status":"final","category":[{"coding":[{"system":"http://terminology.hl7.org/CodeSystem/observation-category","code":"vital-signs","display":"Vital Signs"}]}],"code":{"coding":[{"system":"http://loinc.org","code":"9843-4"}]},"subject":{"reference":"Patient/ea7cc7bf-c0bc-4670-8357-13f2eb067288"},"effectiveDateTime":"2022-09-12T00:00:00+00:00","valueQuantity":{"value":6.6,"unit":"Inch","system":"http://unitsofmeasure.org","code":"[in_i]"}}},{"fullUrl":"Observation/6e47ff3c-2407-4f79-9608-a38f70668519","resource":{"resourceType":"Observation","id":"6e47ff3c-2407-4f79-9608-a38f70668519","meta":{"profile":["http://hl7.org/fhir/us/core/StructureDefinition/us-core-body-height"]},"status":"final","category":[{"coding":[{"system":"http://terminology.hl7.org/CodeSystem/observation-category","code":"vital-signs","display":"Vital Signs"}]}],"code":{"coding":[{"system":"http://loinc.org","code":"8302-2"}]},"subject":{"reference":"Patient/ea7cc7bf-c0bc-4670-8357-13f2eb067288"},"effectiveDateTime":"2022-03-01T00:00:00+00:00","valueQuantity":{"value":67,"unit":"Inch","system":"http://unitsofmeasure.org","code":"[in_i]"}}},{"fullUrl":"Observation/176c5e69-faf2-4cc2-8816-ef06112d1054","resource":{"resourceType":"Observation","id":"176c5e69-faf2-4cc2-8816-ef06112d1054","meta":{"profile":["http://hl7.org/fhir/us/core/StructureDefinition/us-core-body-height"]},"status":"final","category":[{"coding":[{"system":"http://terminology.hl7.org/CodeSystem/observation-category","code":"vital-signs","display":"Vital Signs"}]}],"code":{"coding":[{"system":"http://loinc.org","code":"8302-2"}]},"subject":{"reference":"Patient/ea7cc7bf-c0bc-4670-8357-13f2eb067288"},"effectiveDateTime":"2022-05-14T00:00:00+00:00","valueQuantity":{"value":62.5,"unit":"Inch","system":"http://unitsofmeasure.org","code":"[in_i]"}}},{"fullUrl":"Observation/1c2b2a24-2a4b-43a7-96ea-d817ea99f9c2","resource":{"resourceType":"Observation","id":"1c2b2a24-2a4b-43a7-96ea-d817ea99f9c2","meta":{"profile":["http://hl7.org/fhir/us/core/StructureDefinition/us-core-body-weight"]},"status":"final","category":[{"coding":[{"system":"http://terminology.hl7.org/CodeSystem/observation-category","code":"vital-signs","display":"Vital Signs"}]}],"code":{"coding":[{"system":"http://loinc.org","code":"29463-7"}]},"subject":{"reference":"Patient/ea7cc7bf-c0bc-4670-8357-13f2eb067288"},"effectiveDateTime":"2022-12-26T00:00:00+00:00","valueQuantity":{"value":138.89,"unit":"kilogram","system":"http://unitsofmeasure.org","code":"kg"}}},{"fullUrl":"Observation/2d0906b9-699f-436a-834d-04e84e7bee1a","resource":{"resourceType":"Observation","id":"2d0906b9-699f-436a-834d-04e84e7bee1a","meta":{"profile":["http://hl7.org/fhir/us/core/StructureDefinition/us-core-body-weight"]},"status":"final","category":[{"coding":[{"system":"http://terminology.hl7.org/CodeSystem/observation-category","code":"vital-signs","display":"Vital Signs"}]}],"code":{"coding":[{"system":"http://loinc.org","code":"29463-7"}]},"subject":{"reference":"Patient/ea7cc7bf-c0bc-4670-8357-13f2eb067288"},"effectiveDateTime":"2022-01-23T00:00:00+00:00","valueQuantity":{"value":103.28,"unit":"kilogram","system":"http://unitsofmeasure.org","code":"kg"}}},{"fullUrl":"Observation/ff2796f3-f915-40b7-a825-e89e828c483e","resource":{"resourceType":"Observation","id":"ff2796f3-f915-40b7-a825-e89e828c483e","meta":{"profile":["http://hl7.org/fhir/us/core/StructureDefinition/us-core-body-temperature"]},"status":"final","category":[{"coding":[{"system":"http://terminology.hl7.org/CodeSystem/observation-category","code":"vital-signs","display":"Vital Signs"}]}],"code":{"coding":[{"system":"http://loinc.org","code":"8310-5"}]},"subject":{"reference":"Patient/ea7cc7bf-c0bc-4670-8357-13f2eb067288"},"effectiveDateTime":"2022-03-09T00:00:00+00:00","valueQuantity":{"value":46.84,"unit":"Degrees Fahrenheit","system":"http://unitsofmeasure.org","code":"[degF]"}}},{"fullUrl":"Observation/667c4650-9e5c-4e8b-8754-e883b0a43f5a","resource":{"resourceType":"Observation","id":"667c4650-9e5c-4e8b-8754-e883b0a43f5a","meta":{"profile":["http://hl7.org/fhir/us/core/StructureDefinition/us-core-body-temperature"]},"status":"final","category":[{"coding":[{"system":"http://terminology.hl7.org/CodeSystem/observation-category","code":"vital-signs","display":"Vital Signs"}]}],"code":{"coding":[{"system":"http://loinc.org","code":"8310-5"}]},"subject":{"reference":"Patient/ea7cc7bf-c0bc-4670-8357-13f2eb067288"},"effectiveDateTime":"2022-11-11T00:00:00+00:00","valueQuantity":{"value":95.41,"unit":"Degrees Fahrenheit","system":"http://unitsofmeasure.org","code":"[degF]"}}},{"fullUrl":"Observation/6c68d017-066d-48cf-931c-090949be6613","resource":{"resourceType":"Observation","id":"6c68d017-066d-48cf-931c-090949be6613","meta":{"profile":["http://hl7.org/fhir/us/core/StructureDefinition/us-core-heart-rate"]},"status":"final","category":[{"coding":[{"system":"http://terminology.hl7.org/CodeSystem/observation-category","code":"vital-signs","display":"Vital Signs"}]}],"code":{"coding":[{"system":"http://loinc.org","code":"8867-4"}]},"subject":{"reference":"Patient/ea7cc7bf-c0bc-4670-8357-13f2eb067288"},"effectiveDateTime":"2022-06-08T00:00:00+00:00","valueQuantity":{"value":99.3,"unit":"Per Minute","system":"http://unitsofmeasure.org","code":"/min"}}},{"fullUrl":"Observation/591f7218-d5ca-4e3a-b153-500cb4f9957a","resource":{"resourceType":"Observation","id":"591f7218-d5ca-4e3a-b153-500cb4f9957a","meta":{"profile":["http://hl7.org/fhir/us/core/StructureDefinition/us-core-heart-rate"]},"status":"final","category":[{"coding":[{"system":"http://terminology.hl7.org/CodeSystem/observation-category","code":"vital-signs","display":"Vital Signs"}]}],"code":{"coding":[{"system":"http://loinc.org","code":"8867-4"}]},"subject":{"reference":"Patient/ea7cc7bf-c0bc-4670-8357-13f2eb067288"},"effectiveDateTime":"2022-05-24T00:00:00+00:00","valueQuantity":{"value":97.8,"unit":"Per Minute","system":"http://unitsofmeasure.org","code":"/min"}}},{"fullUrl":"Organization/06053945-268a-463a-bc74-2b1624a0566a","resource":{"resourceType":"Organization","id":"06053945-268a-463a-bc74-2b1624a0566a","meta":{"profile":["http://hl7.org/fhir/us/core/StructureDefinition/us-core-organization"]},"active":true,"name":"West, Walker and Shah","telecom":[{"system":"phone","value":"710.171.9755x54920","use":"mobile"}],"address":[{"use":"work","line":["362 Hernandez Mill Apt. 639"],"city":"Grantfort","state":"MA","postalCode":"06697"}]}},{"fullUrl":"Patient/b12eec79-82d4-4788-9cd2-42b613eb7ccb","resource":{"resourceType":"Patient","id":"b12eec79-82d4-4788-9cd2-42b613eb7ccb","meta":{"profile":["http://hl7.org/fhir/us/core/StructureDefinition/us-core-patient"]},"extension":[{"extension":[{"url":"ombCategory","valueCoding":{"system":"http://terminology.hl7.org/CodeSystem/v3-NullFlavor","code":"UNK","display":"unknown"}},{"url":"text","valueString":"unknown"}],"url":"http://hl7.org/fhir/us/core/StructureDefinition/us-core-race"},{"extension":[{"url":"ombCategory","valueCoding":{"system":"urn:oid:2.16.840.1.113883.6.238","code":"2186-5","display":"Not Hispanic or Latino"}},{"url":"text","valueString":"Not Hispanic or Latino"}],"url":"http://hl7.org/fhir/us/core/StructureDefinition/us-core-ethnicity"}],"identifier":[{"type":{"coding":[{"system":"http://terminology.hl7.org/CodeSystem/v2-0203","code":"MR"}]},"system":"urn:fhirgen:mrn","value":"716-37-3574"},{"system":"http://hl7.org/fhir/sid/us-ssn","value":"842-04-4306"}],"name":[{"use":"official","family":"Chambers","given":["James"]},{"use":"maiden","family":"Pitts"}],"telecom":[{"system":"phone","value":"070-618-1410x853","use":"home"},{"system":"email","value":"richardblanchard@yahoo.com","use":"work"}],"gender":"male","birthDate":"1980-06-22","address":[{"use":"home","line":["2812 Randy Union"],"city":"South Juliemouth","state":"OH","postalCode":"64160"},{"use":"old","line":["779 Wilson Islands"],"city":"Penahaven","state":"NM","postalCode":"19748"}],"maritalStatus":{"coding":[{"system":"http://terminology.hl7.org/CodeSystem/v3-MaritalStatus","code":"I","display":"Interlocutory"}]}}},{"fullUrl":"Observation/afbe7d2c-79ab-43a8-a08e-bdc63e92f13f","resource":{"resourceType":"Observation","id":"afbe7d2c-79ab-43a8-a08e-bdc63e92f13f","meta":{"profile":["http://hl7.org/fhir/us/core/StructureDefinition/us-core-observation-lab"]},"status":"final","category":[{"coding":[{"system":"http://terminology.hl7.org/CodeSystem/observation-category","code":"laboratory","display":"Laboratory"}]}],"code":{"coding":[{"system":"http://loinc.org","code":"87925-4"}]},"subject":{"reference":"Patient/b12eec79-82d4-4788-9cd2-42b613eb7ccb"},"effectiveDateTime":"2022-05-24T00:00:00+00:00","valueRatio":{"numerator":{"value":1},"denominator":{"value":32}}}},{"fullUrl":"Observation/e64212ab-09b2-4566-a0cc-b8e67a8f24dc","resource":{"resourceType":"Observation","id":"e64212ab-09b2-4566-a0cc-b8e67a8f24dc","meta":{"profile":["http://hl7.org/fhir/us/core/StructureDefinition/us-core-observation-lab"]},"status":"final","category":[{"coding":[{"system":"http://terminology.hl7.org/CodeSystem/observation-category","code":"laboratory","display":"Laboratory"}]}],"code":{"coding":[{"system":"http://loinc.org","code":"5394-2"}]},"subject":{"reference":"Patient/b12eec79-82d4-4788-9cd2-42b613eb7ccb"},"effectiveDateTime":"2022-03-02T00:00:00+00:00","valueRatio":{"numerator":{"value":1},"denominator":{"value":32}}}},{"fullUrl":"Observation/3a5c2537-6b10-4957-baeb-ae849cc5aba2","resource":{"resourceType":"Observation","id":"3a5c2537-6b10-4957-baeb-ae849cc5aba2","meta":{"profile":["http://hl7.org/fhir/us/core/StructureDefinition/us-core-observation-lab"]},"status":"final","category":[{"coding":[{"system":"http://terminology.hl7.org/CodeSystem/observation-category","code":"laboratory","display":"Laboratory"}]}],"code":{"coding":[{"system":"http://loinc.org","code":"51475-2"}]},"subject":{"reference":"Patient/b12eec79-82d4-4788-9cd2-42b613eb7ccb"},"effectiveDateTime":"2022-03-25T00:00:00+00:00","valueRatio":{"numerator":{"value":1},"denominator":{"value":64}}}},{"fullUrl":"Condition/2ba7bb90-28ef-471e-a0d2-4cac866ea90f","resource":{"resourceType":"Condition","id":"2ba7bb90-28ef-471e-a0d2-4cac866ea90f","meta":{"profile":["http://hl7.org/fhir/us/core/StructureDefinition/us-core-condition"]},"clinicalStatus":{"coding":[{"system":"http://terminology.hl7.org/CodeSystem/condition-clinical","code":"active","display":"Active"}]},"category":[{"coding":[{"system":"http://terminology.hl7.org/CodeSystem/condition-category","code":"problem-list-item"}]}],"code":{"coding":[{"system":"http://snomed.info/sct","code":"44882003"}]},"subject":{"reference":"Patient/b12eec79-82d4-4788-9cd2-42b613eb7ccb"},"onsetDateTime":"2022-06-21T00:00:00+00:00"}},{"fullUrl":"Condition/84ed9d6a-fd26-47f5-bcc8-82ba7603063b","resource":{"resourceType":"Condition","id":"84ed9d6a-fd26-47f5-bcc8-82ba7603063b","meta":{"profile":["http://hl7.org/fhir/us/core/StructureDefinition/us-core-condition"]},"clinicalStatus":{"coding":[{"system":"http://terminology.hl7.org/CodeSystem/condition-clinical","code":"active","display":"Active"}]},"category":[{"coding":[{"system":"http://terminology.hl7.org/CodeSystem/condition-category","code":"problem-list-item"}]}],"code":{"coding":[{"system":"http://snomed.info/sct","code":"44882003"}]},"subject":{"reference":"Patient/b12eec79-82d4-4788-9cd2-42b613eb7ccb"},"onsetDateTime":"2022-01-13T00:00:00+00:00"}},{"fullUrl":"Condition/25d5e0b4-53e0-4861-90c8-aec48fb25261","resource":{"resourceType":"Condition","id":"25d5e0b4-53e0-4861-90c8-aec48fb25261","meta":{"profile":["http://hl7.org/fhir/us/core/StructureDefinition/us-core-condition"]},"clinicalStatus":{"coding":[{"system":"http://terminology.hl7.org/CodeSystem/condition-clinical","code":"active","display":"Active"}]},"category":[{"coding":[{"system":"http://terminology.hl7.org/CodeSystem/condition-category","code":"problem-list-item"}]}],"code":{"coding":[{"system":"http://snomed.info/sct","code":"709977002"}]},"subject":{"reference":"Patient/b12eec79-82d4-4788-9cd2-42b613eb7ccb"},"onsetDateTime":"2022-12-30T00:00:00+00:00"}},{"fullUrl":"Condition/de972801-e3bf-408b-9d4a-980d880d7ca3","resource":{"resourceType":"Condition","id":"de972801-e3bf-408b-9d4a-980d880d7ca3","meta":{"profile":["http://hl7.org/fhir/us/core/StructureDefinition/us-core-condition"]},"clinicalStatus":{"coding":[{"system":"http://terminology.hl7.org/CodeSystem/condition-clinical","code":"active","display":"Active"}]},"category":[{"coding":[{"system":"http://terminology.hl7.org/CodeSystem/condition-category","code":"problem-list-item"}]}],"code":{"coding":[{"system":"http://snomed.info/sct","code":"91554004"}]},"subject":{"reference":"Patient/b12eec79-82d4-4788-9cd2-42b613eb7ccb"},"onsetDateTime":"2022-05-25T00:00:00+00:00"}},{"fullUrl":"Condition/00a93025-37fb-47aa-a93d-820f3e21a3e9","resource":{"resourceType":"Condition","id":"00a93025-37fb-47aa-a93d-820f3e21a3e9","meta":{"profile":["http://hl7.org/fhir/us/core/StructureDefinition/us-core-condition"]},"clinicalStatus":{"coding":[{"system":"http://terminology.hl7.org/CodeSystem/condition-clinical","code":"active","display":"Active"}]},"category":[{"coding":[{"system":"http://terminology.hl7.org/CodeSystem/condition-category","code":"problem-list-item"}]}],"code":{"coding":[{"system":"http://snomed.info/sct","code":"418290006"}]},"subject":{"reference":"Patient/b12eec79-82d4-4788-9cd2-42b613eb7ccb"},"onsetDateTime":"2022-06-28T00:00:00+00:00"}},{"fullUrl":"Condition/46c46218-a29b-4459-a6e0-0f61a6515812","resource":{"resourceType":"Condition","id":"46c46218-a29b-4459-a6e0-0f61a6515812","meta":{"profile":["http://hl7.org/fhir/us/core/StructureDefinition/us-core-condition"]},"clinicalStatus":{"coding":[{"system":"http://terminology.hl7.org/CodeSystem/condition-clinical","code":"active","display":"Active"}]},"category":[{"coding":[{"system":"http://terminology.hl7.org/CodeSystem/condition-category","code":"problem-list-item"}]}],"code":{"coding":[{"system":"http://snomed.info/sct","code":"736686006"}]},"subject":{"reference":"Patient/b12eec79-82d4-4788-9cd2-42b613eb7ccb"},"onsetDateTime":"2022-08-23T00:00:00+00:00"}},{"fullUrl":"Observation/1f72ddc2-ec42-4e14-9162-045169e3abdf","resource":{"resourceType":"Observation","id":"1f72ddc2-ec42-4e14-9162-045169e3abdf","meta":{"profile":["http://hl7.org/fhir/us/core/StructureDefinition/us-core-observation-lab"]},"status":"final","category":[{"coding":[{"system":"http://terminology.hl7.org/CodeSystem/observation-category","code":"laboratory","display":"Laboratory"}]}],"code":{"coding":[{"system":"http://loinc.org","code":"804-5"}]},"subject":{"reference":"Patient/b12eec79-82d4-4788-9cd2-42b613eb7ccb"},"effectiveDateTime":"2022-07-11T00:00:00+00:00","valueQuantity":{"value":10.5}}},{"fullUrl":"Observation/5804b4f5-1383-4c15-9f47-348d9923be7d","resource":{"resourceType":"Observation","id":"5804b4f5-1383-4c15-9f47-348d9923be7d","meta":{"profile":["http://hl7.org/fhir/us/core/StructureDefinition/us-core-observation-lab"]},"status":"final","category":[{"coding":[{"system":"http://terminology.hl7.org/CodeSystem/observation-category","code":"laboratory","display":"Laboratory"}]}],"code":{"coding":[{"system":"http://loinc.org","code":"6690-2"}]},"subject":{"reference":"Patient/b12eec79-82d4-4788-9cd2-42b613eb7ccb"},"effectiveDateTime":"2022-01-29T00:00:00+00:00","valueQuantity":{"value":7.1}}},{"fullUrl":"Observation/3f5c64af-9924-4092-81aa-be7b7858679a","resource":{"resourceType":"Observation","id":"3f5c64af-9924-4092-81aa-be7b7858679a","meta":{"profile":["http://hl7.org/fhir/us/core/StructureDefinition/us-core-observation-lab"]},"status":"final","category":[{"coding":[{"system":"http://terminology.hl7.org/CodeSystem/observation-category","code":"laboratory","display":"Laboratory"}]}],"code":{"coding":[{"system":"http://loinc.org","code":"804-5"}]},"subject":{"reference":"Patient/b12eec79-82d4-4788-9cd2-42b613eb7ccb"},"effectiveDateTime":"2022-06-02T00:00:00+00:00","valueQuantity":{"value":8.3}}},{"fullUrl":"Observation/d013a3da-dd77-4ed9-8c90-8808c671224c","resource":{"resourceType":"Observation","id":"d013a3da-dd77-4ed9-8c90-8808c671224c","meta":{"profile":["http://hl7.org/fhir/us/core/StructureDefinition/us-core-bmi"]},"status":"final","category":[{"coding":[{"system":"http://terminology.hl7.org/CodeSystem/observation-category","code":"vital-signs","display":"Vital Signs"}]}],"code":{"coding":[{"system":"http://loinc.org","code":"39156-5"}]},"subject":{"reference":"Patient/b12eec79-82d4-4788-9cd2-42b613eb7ccb"},"effectiveDateTime":"2022-08-12T00:00:00+00:00","valueQuantity":{"value":20.79,"unit":"kg/m2","system":"http://unitsofmeasure.org","code":"kg/m2"}}},{"fullUrl":"Observation/6498501a-6dcd-4c14-b9f1-41400719d081","resource":{"resourceType":"Observation","id":"6498501a-6dcd-4c14-b9f1-41400719d081","meta":{"profile":["http://hl7.org/fhir/us/core/StructureDefinition/us-core-bmi"]},"status":"final","category":[{"coding":[{"system":"http://terminology.hl7.org/CodeSystem/observation-category","code":"vital-signs","display":"Vital Signs"}]}],"code":{"coding":[{"system":"http://loinc.org","code":"39156-5"}]},"subject":{"reference":"Patient/b12eec79-82d4-4788-9cd2-42b613eb7ccb"},"effectiveDateTime":"2022-10-07T00:00:00+00:00","valueQuantity":{"value":15.95,"unit":"kg/m2","system":"http://unitsofmeasure.org","code":"kg/m2"}}},{"fullUrl":"Observation/4e05a3c5-4429-4f12-87e5-d6180de846e8","resource":{"resourceType":"Observation","id":"4e05a3c5-4429-4f12-87e5-d6180de846e8","meta":{"profile":["http://hl7.org/fhir/us/core/StructureDefinition/us-core-head-circumference"]},"status":"final","category":[{"coding":[{"system":"http://terminology.hl7.org/CodeSystem/observation-category","code":"vital-signs","display":"Vital Signs"}]}],"code":{"coding":[{"system":"http://loinc.org","code":"9843-4"}]},"subject":{"reference":"Patient/b12eec79-82d4-4788-9cd2-42b613eb7ccb"},"effectiveDateTime":"2022-05-05T00:00:00+00:00","valueQuantity":{"value":9.7,"unit":"Inch","system":"http://unitsofmeasure.org","code":"[in_i]"}}},{"fullUrl":"Observation/829686cf-ee33-4730-9a0b-6d00238e54d6","resource":{"resourceType":"Observation","id":"829686cf-ee33-4730-9a0b-6d00238e54d6","meta":{"profile":["http://hl7.org/fhir/us/core/StructureDefinition/us-core-body-height"]},"status":"final","category":[{"coding":[{"system":"http://terminology.hl7.org/CodeSystem/observation-category","code":"vital-signs","display":"Vital Signs"}]}],"code":{"coding":[{"system":"http://loinc.org","code":"8302-2"}]},"subject":{"reference":"Patient/b12eec79-82d4-4788-9cd2-42b613eb7ccb"},"effectiveDateTime":"2022-08-04T00:00:00+00:00","valueQuantity":{"value":76.2,"unit":"Inch","system":"http://unitsofmeasure.org","code":"[in_i]"}}},{"fullUrl":"Observation/923f31eb-0497-408e-bae8-156b5b944017","resource":{"resourceType":"Observation","id":"923f31eb-0497-408e-bae8-156b5b944017","meta":{"profile":["http://hl7.org/fhir/us/core/StructureDefinition/us-core-body-weight"]},"status":"final","category":[{"coding":[{"system":"http://terminology.hl7.org/CodeSystem/observation-category","code":"vital-signs","display":"Vital Signs"}]}],"code":{"coding":[{"system":"http://loinc.org","code":"29463-7"}]},"subject":{"reference":"Patient/b12eec79-82d4-4788-9cd2-42b613eb7ccb"},"effectiveDateTime":"2022-04-05T00:00:00+00:00","valueQuantity":{"value":88.46,"unit":"kilogram","system":"http://unitsofmeasure.org","code":"kg"}}},{"fullUrl":"Observation/96692727-927a-45af-92cf-cc454f01e24c","resource":{"resourceType":"Observation","id":"96692727-927a-45af-92cf-cc454f01e24c","meta":{"profile":["http://hl7.org/fhir/us/core/StructureDefinition/us-core-body-weight"]},"status":"final","category":[{"coding":[{"system":"http://terminology.hl7.org/CodeSystem/observation-category","code":"vital-signs","display":"Vital Signs"}]}],"code":{"coding":[{"system":"http://loinc.org","code":"29463-7"}]},"subject":{"reference":"Patient/b12eec79-82d4-4788-9cd2-42b613eb7ccb"},"effectiveDateTime":"2022-05-24T00:00:00+00:00","valueQuantity":{"value":20.88,"unit":"kilogram","system":"http://unitsofmeasure.org","code":"kg"}}},{"fullUrl":"Observation/427157a7-f53b-4d1d-a86c-34c501f48597","resource":{"resourceType":"Observation","id":"427157a7-f53b-4d1d-a86c-34c501f48597","meta":{"profile":["http://hl7.org/fhir/us/core/StructureDefinition/us-core-body-temperature"]},"status":"final","category":[{"coding":[{"system":"http://terminology.hl7.org/CodeSystem/observation-category","code":"vital-signs","display":"Vital Signs"}]}],"code":{"coding":[{"system":"http://loinc.org","code":"8310-5"}]},"subject":{"reference":"Patient/b12eec79-82d4-4788-9cd2-42b613eb7ccb"},"effectiveDateTime":"2022-10-05T00:00:00+00:00","valueQuantity":{"value":38.25,"unit":"Degrees Fahrenheit","system":"http://unitsofmeasure.org","code":"[degF]"}}},{"fullUrl":"Observation/e42e342f-e083-4e86-9105-3ffdb9bf4d35","resource":{"resourceType":"Observation","id":"e42e342f-e083-4e86-9105-3ffdb9bf4d35","meta":{"profile":["http://hl7.org/fhir/us/core/StructureDefinition/us-core-heart-rate"]},"status":"final","category":[{"coding":[{"system":"http://terminology.hl7.org/CodeSystem/observation-category","code":"vital-signs","display":"Vital Signs"}]}],"code":{"coding":[{"system":"http://loinc.org","code":"8867-4"}]},"subject":{"reference":"Patient/b12eec79-82d4-4788-9cd2-42b613eb7ccb"},"effectiveDateTime":"2022-04-03T00:00:00+00:00","valueQuantity":{"value":101.7,"unit":"Per Minute","system":"http://unitsofmeasure.org","code":"/min"}}},{"fullUrl":"Observation/6f496b0d-ddae-4089-a34d-540baed5caeb","resource":{"resourceType":"Observation","id":"6f496b0d-ddae-4089-a34d-540baed5caeb","meta":{"profile":["http://hl7.org/fhir/us/core/StructureDefinition/us-core-heart-rate"]},"status":"final","category":[{"coding":[{"system":"http://terminology.hl7.org/CodeSystem/observation-category","code":"vital-signs","display":"Vital Signs"}]}],"code":{"coding":[{"system":"http://loinc.org","code":"8867-4"}]},"subject":{"reference":"Patient/b12eec79-82d4-4788-9cd2-42b613eb7ccb"},"effectiveDateTime":"2022-11-02T00:00:00+00:00","valueQuantity":{"value":97.8,"unit":"Per Minute","system":"http://unitsofmeasure.org","code":"/min"}}},{"fullUrl":"Organization/048f15e5-114a-4d0a-b7f7-f3551310de85","resource":{"resourceType":"Organization","id":"048f15e5-114a-4d0a-b7f7-f3551310de85","meta":{"profile":["http://hl7.org/fhir/us/core/StructureDefinition/us-core-organization"]},"active":true,"name":"Hernandez-Williams","telecom":[{"system":"phone","value":"324-188-0890","use":"mobile"}],"address":[{"use":"work","line":["2457 Barbara Street Suite 557"],"city":"West Ronald","state":"WI","postalCode":"29736"}]}},{"fullUrl":"Patient/7f1a1b00-8016-47b7-b7be-c7ae8226a8b0","resource":{"resourceType":"Patient","id":"7f1a1b00-8016-47b7-b7be-c7ae8226a8b0","meta":{"profile":["http://hl7.org/fhir/us/core/StructureDefinition/us-core-patient"]},"extension":[{"extension":[{"url":"ombCategory","valueCoding":{"system":"urn:oid:2.16.840.1.113883.6.238","code":"2054-5","display":"Black or African American"}},{"url":"text","valueString":"Black or African American"}],"url":"http://hl7.org/fhir/us/core/StructureDefinition/us-core-race"},{"extension":[{"url":"ombCategory","valueCoding":{"system":"urn:oid:2.16.840.1.113883.6.238","code":"2135-2","display":"Hispanic or Latino"}},{"url":"text","valueString":"Hispanic or Latino"}],"url":"http://hl7.org/fhir/us/core/StructureDefinition/us-core-ethnicity"}],"identifier":[{"type":{"coding":[{"system":"http://terminology.hl7.org/CodeSystem/v2-0203","code":"MR"}]},"system":"urn:fhirgen:mrn","value":"191-86-0536"},{"system":"http://hl7.org/fhir/sid/us-ssn","value":"665-28-7601"}],"name":[{"use":"official","family":"Finley","given":["Sally"]},{"use":"maiden","family":"Ingram"}],"telecom":[{"system":"phone","value":"645.995.8584x59046","use":"work"},{"system":"email","value":"andrewdouglas@hotmail.com","use":"work"}],"gender":"female","birthDate":"1973-12-17","address":[{"use":"home","line":["960 Melissa Isle Apt. 491"],"city":"Arnoldside","state":"VA","postalCode":"84898"},{"use":"old","line":["46986 Dawson Port Suite 766"],"city":"New Michael","state":"CT","postalCode":"33928"}],"maritalStatus":{"coding":[{"system":"http://terminology.hl7.org/CodeSystem/v3-MaritalStatus","code":"W","display":"Widowed"}]}}},{"fullUrl":"Observation/4048268c-08aa-418d-9c79-a4f3496e98fd","resource":{"resourceType":"Observation","id":"4048268c-08aa-418d-9c79-a4f3496e98fd","meta":{"profile":["http://hl7.org/fhir/us/core/StructureDefinition/us-core-observation-lab"]},"status":"final","category":[{"coding":[{"system":"http://terminology.hl7.org/CodeSystem/observation-category","code":"laboratory","display":"Laboratory"}]}],"code":{"coding":[{"system":"http://loinc.org","code":"50690-7"}]},"subject":{"reference":"Patient/7f1a1b00-8016-47b7-b7be-c7ae8226a8b0"},"effectiveDateTime":"2022-03-07T00:00:00+00:00","valueRatio":{"numerator":{"value":1},"denominator":{"value":64}}}},{"fullUrl":"Observation/29278dc1-15dc-49eb-8a7b-afc2a7e043dc","resource":{"resourceType":"Observation","id":"29278dc1-15dc-49eb-8a7b-afc2a7e043dc","meta":{"profile":["http://hl7.org/fhir/us/core/StructureDefinition/us-core-observation-lab"]},"status":"final","category":[{"coding":[{"system":"http://terminology.hl7.org/CodeSystem/observation-category","code":"laboratory","display":"Laboratory"}]}],"code":{"coding":[{"system":"http://loinc.org","code":"22590-4"}]},"subject":{"reference":"Patient/7f1a1b00-8016-47b7-b7be-c7ae8226a8b0"},"effectiveDateTime":"2022-11-22T00:00:00+00:00","valueRatio":{"numerator":{"value":1},"denominator":{"value":32}}}},{"fullUrl":"Condition/9e849676-0033-4222-bc0b-b9be4ab98485","resource":{"resourceType":"Condition","id":"9e849676-0033-4222-bc0b-b9be4ab98485","meta":{"profile":["http://hl7.org/fhir/us/core/StructureDefinition/us-core-condition"]},"clinicalStatus":{"coding":[{"system":"http://terminology.hl7.org/CodeSystem/condition-clinical","code":"active","display":"Active"}]},"category":[{"coding":[{"system":"http://terminology.hl7.org/CodeSystem/condition-category","code":"problem-list-item"}]}],"code":{"coding":[{"system":"http://snomed.info/sct","code":"418290006"}]},"subject":{"reference":"Patient/7f1a1b00-8016-47b7-b7be-c7ae8226a8b0"},"onsetDateTime":"2022-06-17T00:00:00+00:00"}},{"fullUrl":"Condition/4eb17edd-2b7f-4b04-bae2-b7d004ac3253","resource":{"resourceType":"Condition","id":"4eb17edd-2b7f-4b04-bae2-b7d004ac3253","meta":{"profile":["http://hl7.org/fhir/us/core/StructureDefinition/us-core-condition"]},"clinicalStatus":{"coding":[{"system":"http://terminology.hl7.org/CodeSystem/condition-clinical","code":"active","display":"Active"}]},"category":[{"coding":[{"system":"http://terminology.hl7.org/CodeSystem/condition-category","code":"problem-list-item"}]}],"code":{"coding":[{"system":"http://snomed.info/sct","code":"736686006"}]},"subject":{"reference":"Patient/7f1a1b00-8016-47b7-b7be-c7ae8226a8b0"},"onsetDateTime":"2022-08-05T00:00:00+00:00"}},{"fullUrl":"Condition/b297436d-e08b-4d14-85ca-a412ae9931d9","resource":{"resourceType":"Condition","id":"b297436d-e08b-4d14-85ca-a412ae9931d9","meta":{"profile":["http://hl7.org/fhir/us/core/StructureDefinition/us-core-condition"]},"clinicalStatus":{"coding":[{"system":"http://terminology.hl7.org/CodeSystem/condition-clinical","code":"active","display":"Active"}]},"category":[{"coding":[{"system":"http://terminology.hl7.org/CodeSystem/condition-category","code":"problem-list-item"}]}],"code":{"coding":[{"system":"http://snomed.info/sct","code":"709977002"}]},"subject":{"reference":"Patient/7f1a1b00-8016-47b7-b7be-c7ae8226a8b0"},"onsetDateTime":"2022-02-16T00:00:00+00:00"}},{"fullUrl":"Observation/b66c76ba-271f-412a-afee-b30236d029f5","resource":{"resourceType":"Observation","id":"b66c76ba-271f-412a-afee-b30236d029f5","meta":{"profile":["http://hl7.org/fhir/us/core/StructureDefinition/us-core-observation-lab"]},"status":"final","category":[{"coding":[{"system":"http://terminology.hl7.org/CodeSystem/observation-category","code":"laboratory","display":"Laboratory"}]}],"code":{"coding":[{"system":"http://loinc.org","code":"49498-9"}]},"subject":{"reference":"Patient/7f1a1b00-8016-47b7-b7be-c7ae8226a8b0"},"effectiveDateTime":"2022-01-06T00:00:00+00:00","valueQuantity":{"value":9.8}}},{"fullUrl":"Observation/a1fddeb2-00a5-4add-a3ed-817e32fc5e21","resource":{"resourceType":"Observation","id":"a1fddeb2-00a5-4add-a3ed-817e32fc5e21","meta":{"profile":["http://hl7.org/fhir/us/core/StructureDefinition/us-core-observation-lab"]},"status":"final","category":[{"coding":[{"system":"http://terminology.hl7.org/CodeSystem/observation-category","code":"laboratory","display":"Laboratory"}]}],"code":{"coding":[{"system":"http://loinc.org","code":"804-5"}]},"subject":{"reference":"Patient/7f1a1b00-8016-47b7-b7be-c7ae8226a8b0"},"effectiveDateTime":"2022-05-09T00:00:00+00:00","valueQuantity":{"value":6.1}}},{"fullUrl":"Observation/c184e9d0-0bd2-49a8-aeb8-f26c398183f6","resource":{"resourceType":"Observation","id":"c184e9d0-0bd2-49a8-aeb8-f26c398183f6","meta":{"profile":["http://hl7.org/fhir/us/core/StructureDefinition/us-core-bmi"]},"status":"final","category":[{"coding":[{"system":"http://terminology.hl7.org/CodeSystem/observation-category","code":"vital-signs","display":"Vital Signs"}]}],"code":{"coding":[{"system":"http://loinc.org","code":"39156-5"}]},"subject":{"reference":"Patient/7f1a1b00-8016-47b7-b7be-c7ae8226a8b0"},"effectiveDateTime":"2022-07-04T00:00:00+00:00","valueQuantity":{"value":21.35,"unit":"kg/m2","system":"http://unitsofmeasure.org","code":"kg/m2"}}},{"fullUrl":"Observation/5fa9cb9c-9dca-4a52-a599-79b8553c6cd8","resource":{"resourceType":"Observation","id":"5fa9cb9c-9dca-4a52-a599-79b8553c6cd8","meta":{"profile":["http://hl7.org/fhir/us/core/StructureDefinition/us-core-head-circumference"]},"status":"final","category":[{"coding":[{"system":"http://terminology.hl7.org/CodeSystem/observation-category","code":"vital-signs","display":"Vital Signs"}]}],"code":{"coding":[{"system":"http://loinc.org","code":"9843-4"}]},"subject":{"reference":"Patient/7f1a1b00-8016-47b7-b7be-c7ae8226a8b0"},"effectiveDateTime":"2022-10-05T00:00:00+00:00","valueQuantity":{"value":5.5,"unit":"Inch","system":"http://unitsofmeasure.org","code":"[in_i]"}}},{"fullUrl":"Observation/2d9f3dbd-933c-4a84-a059-02c699195b6f","resource":{"resourceType":"Observation","id":"2d9f3dbd-933c-4a84-a059-02c699195b6f","meta":{"profile":["http://hl7.org/fhir/us/core/StructureDefinition/us-core-body-height"]},"status":"final","category":[{"coding":[{"system":"http://terminology.hl7.org/CodeSystem/observation-category","code":"vital-signs","display":"Vital Signs"}]}],"code":{"coding":[{"system":"http://loinc.org","code":"8302-2"}]},"subject":{"reference":"Patient/7f1a1b00-8016-47b7-b7be-c7ae8226a8b0"},"effectiveDateTime":"2022-06-02T00:00:00+00:00","valueQuantity":{"value":80.8,"unit":"Inch","system":"http://unitsofmeasure.org","code":"[in_i]"}}},{"fullUrl":"Observation/33353860-7d59-4821-82af-7a8f989bff99","resource":{"resourceType":"Observation","id":"33353860-7d59-4821-82af-7a8f989bff99","meta":{"profile":["http://hl7.org/fhir/us/core/StructureDefinition/us-core-body-height"]},"status":"final","category":[{"coding":[{"system":"http://terminology.hl7.org/CodeSystem/observation-category","code":"vital-signs","display":"Vital Signs"}]}],"code":{"coding":[{"system":"http://loinc.org","code":"8302-2"}]},"subject":{"reference":"Patient/7f1a1b00-8016-47b7-b7be-c7ae8226a8b0"},"effectiveDateTime":"2022-08-27T00:00:00+00:00","valueQuantity":{"value":79.3,"unit":"Inch","system":"http://unitsofmeasure.org","code":"[in_i]"}}},{"fullUrl":"Observation/18563d5b-1ea0-493f-86cc-4cfc8b72f1f1","resource":{"resourceType":"Observation","id":"18563d5b-1ea0-493f-86cc-4cfc8b72f1f1","meta":{"profile":["http://hl7.org/fhir/us/core/StructureDefinition/us-core-body-weight"]},"status":"final","category":[{"coding":[{"system":"http://terminology.hl7.org/CodeSystem/observation-category","code":"vital-signs","display":"Vital Signs"}]}],"code":{"coding":[{"system":"http://loinc.org","code":"29463-7"}]},"subject":{"reference":"Patient/7f1a1b00-8016-47b7-b7be-c7ae8226a8b0"},"effectiveDateTime":"2022-07-24T00:00:00+00:00","valueQuantity":{"value":43.51,"unit":"kilogram","system":"http://unitsofmeasure.org","code":"kg"}}},{"fullUrl":"Observation/b0464438-fb65-4a2f-bcbc-2943d0ee82a5","resource":{"resourceType":"Observation","id":"b0464438-fb65-4a2f-bcbc-2943d0ee82a5","meta":{"profile":["http://hl7.org/fhir/us/core/StructureDefinition/us-core-body-weight"]},"status":"final","category":[{"coding":[{"system":"http://terminology.hl7.org/CodeSystem/observation-category","code":"vital-signs","display":"Vital Signs"}]}],"code":{"coding":[{"system":"http://loinc.org","code":"29463-7"}]},"subject":{"reference":"Patient/7f1a1b00-8016-47b7-b7be-c7ae8226a8b0"},"effectiveDateTime":"2022-08-20T00:00:00+00:00","valueQuantity":{"value":33.87,"unit":"kilogram","system":"http://unitsofmeasure.org","code":"kg"}}},{"fullUrl":"Observation/63d1ee5c-00af-4fda-9338-0d072642d064","resource":{"resourceType":"Observation","id":"63d1ee5c-00af-4fda-9338-0d072642d064","meta":{"profile":["http://hl7.org/fhir/us/core/StructureDefinition/us-core-body-temperature"]},"status":"final","category":[{"coding":[{"system":"http://terminology.hl7.org/CodeSystem/observation-category","code":"vital-signs","display":"Vital Signs"}]}],"code":{"coding":[{"system":"http://loinc.org","code":"8310-5"}]},"subject":{"reference":"Patient/7f1a1b00-8016-47b7-b7be-c7ae8226a8b0"},"effectiveDateTime":"2022-04-06T00:00:00+00:00","valueQuantity":{"value":77.54,"unit":"Degrees Fahrenheit","system":"http://unitsofmeasure.org","code":"[degF]"}}},{"fullUrl":"Observation/a5a419f9-2ec2-4a25-90c0-66784b383099","resource":{"resourceType":"Observation","id":"a5a419f9-2ec2-4a25-90c0-66784b383099","meta":{"profile":["http://hl7.org/fhir/us/core/StructureDefinition/us-core-heart-rate"]},"status":"final","category":[{"coding":[{"system":"http://terminology.hl7.org/CodeSystem/observation-category","code":"vital-signs","display":"Vital Signs"}]}],"code":{"coding":[{"system":"http://loinc.org","code":"8867-4"}]},"subject":{"reference":"Patient/7f1a1b00-8016-47b7-b7be-c7ae8226a8b0"},"effectiveDateTime":"2022-05-12T00:00:00+00:00","valueQuantity":{"value":98.7,"unit":"Per Minute","system":"http://unitsofmeasure.org","code":"/min"}}},{"fullUrl":"Observation/20dbeee5-bb99-4de3-b994-cbdd0cd74504","resource":{"resourceType":"Observation","id":"20dbeee5-bb99-4de3-b994-cbdd0cd74504","meta":{"profile":["http://hl7.org/fhir/us/core/StructureDefinition/us-core-heart-rate"]},"status":"final","category":[{"coding":[{"system":"http://terminology.hl7.org/CodeSystem/observation-category","code":"vital-signs","display":"Vital Signs"}]}],"code":{"coding":[{"system":"http://loinc.org","code":"8867-4"}]},"subject":{"reference":"Patient/7f1a1b00-8016-47b7-b7be-c7ae8226a8b0"},"effectiveDateTime":"2022-07-04T00:00:00+00:00","valueQuantity":{"value":95.7,"unit":"Per Minute","system":"http://unitsofmeasure.org","code":"/min"}}},{"fullUrl":"Organization/3df5df53-c0c2-448b-b663-1c9c0e6a0d7c","resource":{"resourceType":"Organization","id":"3df5df53-c0c2-448b-b663-1c9c0e6a0d7c","meta":{"profile":["http://hl7.org/fhir/us/core/StructureDefinition/us-core-organization"]},"active":true,"name":"Brown-Hull","telecom":[{"system":"phone","value":"864.190.7197","use":"work"}],"address":[{"use":"work","line":["40110 White Parkway Apt. 182"],"city":"Lake Andrefurt","state":"WA","postalCode":"75631"}]}},{"fullUrl":"Patient/d051fe77-141f-4692-88a8-d3d6e29988d1","resource":{"resourceType":"Patient","id":"d051fe77-141f-4692-88a8-d3d6e29988d1","meta":{"profile":["http://hl7.org/fhir/us/core/StructureDefinition/us-core-patient"]},"extension":[{"extension":[{"url":"ombCategory","valueCoding":{"system":"http://terminology.hl7.org/CodeSystem/v3-NullFlavor","code":"ASKU","display":"asked but unknown"}},{"url":"text","valueString":"asked but unknown"}],"url":"http://hl7.org/fhir/us/core/StructureDefinition/us-core-race"},{"extension":[{"url":"ombCategory","valueCoding":{"system":"urn:oid:2.16.840.1.113883.6.238","code":"2135-2","display":"Hispanic or Latino"}},{"url":"text","valueString":"Hispanic or Latino"}],"url":"http://hl7.org/fhir/us/core/StructureDefinition/us-core-ethnicity"}],"identifier":[{"type":{"coding":[{"system":"http://terminology.hl7.org/CodeSystem/v2-0203","code":"MR"}]},"system":"urn:fhirgen:mrn","value":"800-08-1455"},{"system":"http://hl7.org/fhir/sid/us-ssn","value":"192-12-1325"}],"name":[{"use":"official","family":"Paul","given":["Michelle"]},{"use":"maiden","family":"Sims"}],"telecom":[{"system":"phone","value":"410-308-6982x98008","use":"home"},{"system":"email","value":"lisa28@gmail.com","use":"mobile"}],"gender":"female","birthDate":"1982-09-27","address":[{"use":"home","line":["4430 Michael Lakes"],"city":"Jamestown","state":"NY","postalCode":"35847"},{"use":"old","line":["752 Maurice Springs"],"city":"Carrollview","state":"ID","postalCode":"23394"}],"maritalStatus":{"coding":[{"system":"http://terminology.hl7.org/CodeSystem/v3-MaritalStatus","code":"P","display":"Polygamous"}]}}},{"fullUrl":"Observation/ad3541e8-49e2-40d6-bc8c-38ee7ead76f2","resource":{"resourceType":"Observation","id":"ad3541e8-49e2-40d6-bc8c-38ee7ead76f2","meta":{"profile":["http://hl7.org/fhir/us/core/StructureDefinition/us-core-observation-lab"]},"status":"final","category":[{"coding":[{"system":"http://terminology.hl7.org/CodeSystem/observation-category","code":"laboratory","display":"Laboratory"}]}],"code":{"coding":[{"system":"http://loinc.org","code":"47476-7"}]},"subject":{"reference":"Patient/d051fe77-141f-4692-88a8-d3d6e29988d1"},"effectiveDateTime":"2022-09-14T00:00:00+00:00","valueRatio":{"numerator":{"value":1},"denominator":{"value":64}}}},{"fullUrl":"Observation/7d917027-6f95-4ced-adda-e0b6f6b03c5a","resource":{"resourceType":"Observation","id":"7d917027-6f95-4ced-adda-e0b6f6b03c5a","meta":{"profile":["http://hl7.org/fhir/us/core/StructureDefinition/us-core-observation-lab"]},"status":"final","category":[{"coding":[{"system":"http://terminology.hl7.org/CodeSystem/observation-category","code":"laboratory","display":"Laboratory"}]}],"code":{"coding":[{"system":"http://loinc.org","code":"26009-1"}]},"subject":{"reference":"Patient/d051fe77-141f-4692-88a8-d3d6e29988d1"},"effectiveDateTime":"2022-05-01T00:00:00+00:00","valueRatio":{"numerator":{"value":1},"denominator":{"value":64}}}},{"fullUrl":"Condition/bd49fdd3-1403-41ee-b601-1d981eee58d7","resource":{"resourceType":"Condition","id":"bd49fdd3-1403-41ee-b601-1d981eee58d7","meta":{"profile":["http://hl7.org/fhir/us/core/StructureDefinition/us-core-condition"]},"clinicalStatus":{"coding":[{"system":"http://terminology.hl7.org/CodeSystem/condition-clinical","code":"active","display":"Active"}]},"category":[{"coding":[{"system":"http://terminology.hl7.org/CodeSystem/condition-category","code":"problem-list-item"}]}],"code":{"coding":[{"system":"http://snomed.info/sct","code":"91554004"}]},"subject":{"reference":"Patient/d051fe77-141f-4692-88a8-d3d6e29988d1"},"onsetDateTime":"2022-07-04T00:00:00+00:00"}},{"fullUrl":"Condition/33254e98-3911-404e-bedd-dd95b5003e98","resource":{"resourceType":"Condition","id":"33254e98-3911-404e-bedd-dd95b5003e98","meta":{"profile":["http://hl7.org/fhir/us/core/StructureDefinition/us-core-condition"]},"clinicalStatus":{"coding":[{"system":"http://terminology.hl7.org/CodeSystem/condition-clinical","code":"active","display":"Active"}]},"category":[{"coding":[{"system":"http://terminology.hl7.org/CodeSystem/condition-category","code":"problem-list-item"}]}],"code":{"coding":[{"system":"http://snomed.info/sct","code":"736686006"}]},"subject":{"reference":"Patient/d051fe77-141f-4692-88a8-d3d6e29988d1"},"onsetDateTime":"2022-01-01T00:00:00+00:00"}},{"fullUrl":"Condition/d5668358-e0f4-44cb-bb30-1b4e8d3ad515","resource":{"resourceType":"Condition","id":"d5668358-e0f4-44cb-bb30-1b4e8d3ad515","meta":{"profile":["http://hl7.org/fhir/us/core/StructureDefinition/us-core-condition"]},"clinicalStatus":{"coding":[{"system":"http://terminology.hl7.org/CodeSystem/condition-clinical","code":"active","display":"Active"}]},"category":[{"coding":[{"system":"http://terminology.hl7.org/CodeSystem/condition-category","code":"problem-list-item"}]}],"code":{"coding":[{"system":"http://snomed.info/sct","code":"418290006"}]},"subject":{"reference":"Patient/d051fe77-141f-4692-88a8-d3d6e29988d1"},"onsetDateTime":"2022-04-17T00:00:00+00:00"}},{"fullUrl":"Condition/56729866-2979-4de6-8c27-f54aff2a8818","resource":{"resourceType":"Condition","id":"56729866-2979-4de6-8c27-f54aff2a8818","meta":{"profile":["http://hl7.org/fhir/us/core/StructureDefinition/us-core-condition"]},"clinicalStatus":{"coding":[{"system":"http://terminology.hl7.org/CodeSystem/condition-clinical","code":"active","display":"Active"}]},"category":[{"coding":[{"system":"http://terminology.hl7.org/CodeSystem/condition-category","code":"problem-list-item"}]}],"code":{"coding":[{"system":"http://snomed.info/sct","code":"44882003"}]},"subject":{"reference":"Patient/d051fe77-141f-4692-88a8-d3d6e29988d1"},"onsetDateTime":"2022-08-26T00:00:00+00:00"}},{"fullUrl":"Condition/9ebd3352-b57f-45c5-8203-abf3ea01957a","resource":{"resourceType":"Condition","id":"9ebd3352-b57f-45c5-8203-abf3ea01957a","meta":{"profile":["http://hl7.org/fhir/us/core/StructureDefinition/us-core-condition"]},"clinicalStatus":{"coding":[{"system":"http://terminology.hl7.org/CodeSystem/condition-clinical","code":"active","display":"Active"}]},"category":[{"coding":[{"system":"http://terminology.hl7.org/CodeSystem/condition-category","code":"problem-list-item"}]}],"code":{"coding":[{"system":"http://snomed.info/sct","code":"44882003"}]},"subject":{"reference":"Patient/d051fe77-141f-4692-88a8-d3d6e29988d1"},"onsetDateTime":"2022-08-26T00:00:00+00:00"}},{"fullUrl":"Condition/0799ca34-3b0b-4ba5-9019-c9573b1657f4","resource":{"resourceType":"Condition","id":"0799ca34-3b0b-4ba5-9019-c9573b1657f4","meta":{"profile":["http://hl7.org/fhir/us/core/StructureDefinition/us-core-condition"]},"clinicalStatus":{"coding":[{"system":"http://terminology.hl7.org/CodeSystem/condition-clinical","code":"active","display":"Active"}]},"category":[{"coding":[{"system":"http://terminology.hl7.org/CodeSystem/condition-category","code":"problem-list-item"}]}],"code":{"coding":[{"system":"http://snomed.info/sct","code":"709977002"}]},"subject":{"reference":"Patient/d051fe77-141f-4692-88a8-d3d6e29988d1"},"onsetDateTime":"2022-01-19T00:00:00+00:00"}},{"fullUrl":"Condition/347325fe-0544-4c0f-bdb3-4fae231a9f30","resource":{"resourceType":"Condition","id":"347325fe-0544-4c0f-bdb3-4fae231a9f30","meta":{"profile":["http://hl7.org/fhir/us/core/StructureDefinition/us-core-condition"]},"clinicalStatus":{"coding":[{"system":"http://terminology.hl7.org/CodeSystem/condition-clinical","code":"active","display":"Active"}]},"category":[{"coding":[{"system":"http://terminology.hl7.org/CodeSystem/condition-category","code":"problem-list-item"}]}],"code":{"coding":[{"system":"http://snomed.info/sct","code":"44882003"}]},"subject":{"reference":"Patient/d051fe77-141f-4692-88a8-d3d6e29988d1"},"onsetDateTime":"2022-04-17T00:00:00+00:00"}},{"fullUrl":"Observation/1ecc4a93-cd72-46e0-999f-aeac77d26633","resource":{"resourceType":"Observation","id":"1ecc4a93-cd72-46e0-999f-aeac77d26633","meta":{"profile":["http://hl7.org/fhir/us/core/StructureDefinition/us-core-observation-lab"]},"status":"final","category":[{"coding":[{"system":"http://terminology.hl7.org/CodeSystem/observation-category","code":"laboratory","display":"Laboratory"}]}],"code":{"coding":[{"system":"http://loinc.org","code":"49498-9"}]},"subject":{"reference":"Patient/d051fe77-141f-4692-88a8-d3d6e29988d1"},"effectiveDateTime":"2022-12-13T00:00:00+00:00","valueQuantity":{"value":5.7}}},{"fullUrl":"Observation/361a0e49-159d-4b9e-b835-647e93406730","resource":{"resourceType":"Observation","id":"361a0e49-159d-4b9e-b835-647e93406730","meta":{"profile":["http://hl7.org/fhir/us/core/StructureDefinition/us-core-observation-lab"]},"status":"final","category":[{"coding":[{"system":"http://terminology.hl7.org/CodeSystem/observation-category","code":"laboratory","display":"Laboratory"}]}],"code":{"coding":[{"system":"http://loinc.org","code":"804-5"}]},"subject":{"reference":"Patient/d051fe77-141f-4692-88a8-d3d6e29988d1"},"effectiveDateTime":"2022-01-18T00:00:00+00:00","valueQuantity":{"value":5.3}}},{"fullUrl":"Observation/397deb5d-0650-4096-b6c5-2e278dab0a5a","resource":{"resourceType":"Observation","id":"397deb5d-0650-4096-b6c5-2e278dab0a5a","meta":{"profile":["http://hl7.org/fhir/us/core/StructureDefinition/us-core-bmi"]},"status":"final","category":[{"coding":[{"system":"http://terminology.hl7.org/CodeSystem/observation-category","code":"vital-signs","display":"Vital Signs"}]}],"code":{"coding":[{"system":"http://loinc.org","code":"39156-5"}]},"subject":{"reference":"Patient/d051fe77-141f-4692-88a8-d3d6e29988d1"},"effectiveDateTime":"2022-08-16T00:00:00+00:00","valueQuantity":{"value":23.97,"unit":"kg/m2","system":"http://unitsofmeasure.org","code":"kg/m2"}}},{"fullUrl":"Observation/ed158d9c-08b5-4437-a758-cdf73bc6d381","resource":{"resourceType":"Observation","id":"ed158d9c-08b5-4437-a758-cdf73bc6d381","meta":{"profile":["http://hl7.org/fhir/us/core/StructureDefinition/us-core-head-circumference"]},"status":"final","category":[{"coding":[{"system":"http://terminology.hl7.org/CodeSystem/observation-category","code":"vital-signs","display":"Vital Signs"}]}],"code":{"coding":[{"system":"http://loinc.org","code":"9843-4"}]},"subject":{"reference":"Patient/d051fe77-141f-4692-88a8-d3d6e29988d1"},"effectiveDateTime":"2022-07-06T00:00:00+00:00","valueQuantity":{"value":2.3,"unit":"Inch","system":"http://unitsofmeasure.org","code":"[in_i]"}}},{"fullUrl":"Observation/0df80806-92a4-4ebc-8ad2-1b6bf3798731","resource":{"resourceType":"Observation","id":"0df80806-92a4-4ebc-8ad2-1b6bf3798731","meta":{"profile":["http://hl7.org/fhir/us/core/StructureDefinition/us-core-head-circumference"]},"status":"final","category":[{"coding":[{"system":"http://terminology.hl7.org/CodeSystem/observation-category","code":"vital-signs","display":"Vital Signs"}]}],"code":{"coding":[{"system":"http://loinc.org","code":"9843-4"}]},"subject":{"reference":"Patient/d051fe77-141f-4692-88a8-d3d6e29988d1"},"effectiveDateTime":"2022-07-16T00:00:00+00:00","valueQuantity":{"value":7.6,"unit":"Inch","system":"http://unitsofmeasure.org","code":"[in_i]"}}},{"fullUrl":"Observation/adf47c69-4d84-4006-aac1-973495865f7a","resource":{"resourceType":"Observation","id":"adf47c69-4d84-4006-aac1-973495865f7a","meta":{"profile":["http://hl7.org/fhir/us/core/StructureDefinition/us-core-body-height"]},"status":"final","category":[{"coding":[{"system":"http://terminology.hl7.org/CodeSystem/observation-category","code":"vital-signs","display":"Vital Signs"}]}],"code":{"coding":[{"system":"http://loinc.org","code":"8302-2"}]},"subject":{"reference":"Patient/d051fe77-141f-4692-88a8-d3d6e29988d1"},"effectiveDateTime":"2022-05-11T00:00:00+00:00","valueQuantity":{"value":64.3,"unit":"Inch","system":"http://unitsofmeasure.org","code":"[in_i]"}}},{"fullUrl":"Observation/1e588ca8-bc16-4e51-aa8d-c19fd775dd20","resource":{"resourceType":"Observation","id":"1e588ca8-bc16-4e51-aa8d-c19fd775dd20","meta":{"profile":["http://hl7.org/fhir/us/core/StructureDefinition/us-core-body-weight"]},"status":"final","category":[{"coding":[{"system":"http://terminology.hl7.org/CodeSystem/observation-category","code":"vital-signs","display":"Vital Signs"}]}],"code":{"coding":[{"system":"http://loinc.org","code":"29463-7"}]},"subject":{"reference":"Patient/d051fe77-141f-4692-88a8-d3d6e29988d1"},"effectiveDateTime":"2022-10-02T00:00:00+00:00","valueQuantity":{"value":132.12,"unit":"kilogram","system":"http://unitsofmeasure.org","code":"kg"}}},{"fullUrl":"Observation/c7549674-8ed7-429f-bf61-f7dd500c0e18","resource":{"resourceType":"Observation","id":"c7549674-8ed7-429f-bf61-f7dd500c0e18","meta":{"profile":["http://hl7.org/fhir/us/core/StructureDefinition/us-core-body-weight"]},"status":"final","category":[{"coding":[{"system":"http://terminology.hl7.org/CodeSystem/observation-category","code":"vital-signs","display":"Vital Signs"}]}],"code":{"coding":[{"system":"http://loinc.org","code":"29463-7"}]},"subject":{"reference":"Patient/d051fe77-141f-4692-88a8-d3d6e29988d1"},"effectiveDateTime":"2022-03-29T00:00:00+00:00","valueQuantity":{"value":106.35,"unit":"kilogram","system":"http://unitsofmeasure.org","code":"kg"}}},{"fullUrl":"Observation/584d1599-1030-42f8-b142-cfe64e434d18","resource":{"resourceType":"Observation","id":"584d1599-1030-42f8-b142-cfe64e434d18","meta":{"profile":["http://hl7.org/fhir/us/core/StructureDefinition/us-core-body-temperature"]},"status":"final","category":[{"coding":[{"system":"http://terminology.hl7.org/CodeSystem/observation-category","code":"vital-signs","display":"Vital Signs"}]}],"code":{"coding":[{"system":"http://loinc.org","code":"8310-5"}]},"subject":{"reference":"Patient/d051fe77-141f-4692-88a8-d3d6e29988d1"},"effectiveDateTime":"2022-08-31T00:00:00+00:00","valueQuantity":{"value":84.69,"unit":"Degrees Fahrenheit","system":"http://unitsofmeasure.org","code":"[degF]"}}},{"fullUrl":"Observation/418d1bbb-6a43-4979-b884-b2d854063cb9","resource":{"resourceType":"Observation","id":"418d1bbb-6a43-4979-b884-b2d854063cb9","meta":{"profile":["http://hl7.org/fhir/us/core/StructureDefinition/us-core-heart-rate"]},"status":"final","category":[{"coding":[{"system":"http://terminology.hl7.org/CodeSystem/observation-category","code":"vital-signs","display":"Vital Signs"}]}],"code":{"coding":[{"system":"http://loinc.org","code":"8867-4"}]},"subject":{"reference":"Patient/d051fe77-141f-4692-88a8-d3d6e29988d1"},"effectiveDateTime":"2022-04-01T00:00:00+00:00","valueQuantity":{"value":95.5,"unit":"Per Minute","system":"http://unitsofmeasure.org","code":"/min"}}},{"fullUrl":"Organization/09ee5576-30cb-4782-93c6-4fae44c42761","resource":{"resourceType":"Organization","id":"09ee5576-30cb-4782-93c6-4fae44c42761","meta":{"profile":["http://hl7.org/fhir/us/core/StructureDefinition/us-core-organization"]},"active":true,"name":"Wood PLC","telecom":[{"system":"phone","value":"728.851.9846x33402","use":"home"}],"address":[{"use":"work","line":["887 Jackson Isle Suite 892"],"city":"Leside","state":"VA","postalCode":"73248"}]}},{"fullUrl":"Patient/7c101d01-b6f0-490f-be71-51864d0ca053","resource":{"resourceType":"Patient","id":"7c101d01-b6f0-490f-be71-51864d0ca053","meta":{"profile":["http://hl7.org/fhir/us/core/StructureDefinition/us-core-patient"]},"extension":[{"extension":[{"url":"ombCategory","valueCoding":{"system":"urn:oid:2.16.840.1.113883.6.238","code":"2076-8","display":"Native Hawaiian or Other Pacific Islander"}},{"url":"text","valueString":"Native Hawaiian or Other Pacific Islander"}],"url":"http://hl7.org/fhir/us/core/StructureDefinition/us-core-race"},{"extension":[{"url":"ombCategory","valueCoding":{"system":"urn:oid:2.16.840.1.113883.6.238","code":"2186-5","display":"Not Hispanic or Latino"}},{"url":"text","valueString":"Not Hispanic or Latino"}],"url":"http://hl7.org/fhir/us/core/StructureDefinition/us-core-ethnicity"}],"identifier":[{"type":{"coding":[{"system":"http://terminology.hl7.org/CodeSystem/v2-0203","code":"MR"}]},"system":"urn:fhirgen:mrn","value":"459-89-6893"},{"system":"http://hl7.org/fhir/sid/us-ssn","value":"670-68-7170"}],"name":[{"use":"official","family":"Gaines","given":["Tamara"]},{"use":"maiden","family":"Sandoval"}],"telecom":[{"system":"phone","value":"001-343-111-8688x18815","use":"home"},{"system":"email","value":"angelarose@gmail.com","use":"work"}],"gender":"other","birthDate":"1983-10-29","address":[{"use":"home","line":["2415 Christopher View"],"city":"Paulton","state":"LA","postalCode":"33974"},{"use":"old","line":["1386 Jason Mission"],"city":"Clintonmouth","state":"RI","postalCode":"49658"}],"maritalStatus":{"coding":[{"system":"http://terminology.hl7.org/CodeSystem/v3-MaritalStatus","code":"M","display":"Married"}]}}},{"fullUrl":"Observation/4a006628-cb75-4171-88a5-2a799dac727c","resource":{"resourceType":"Observation","id":"4a006628-cb75-4171-88a5-2a799dac727c","meta":{"profile":["http://hl7.org/fhir/us/core/StructureDefinition/us-core-observation-lab"]},"status":"final","category":[{"coding":[{"system":"http://terminology.hl7.org/CodeSystem/observation-category","code":"laboratory","display":"Laboratory"}]}],"code":{"coding":[{"system":"http://loinc.org","code":"47235-7"}]},"subject":{"reference":"Patient/7c101d01-b6f0-490f-be71-51864d0ca053"},"effectiveDateTime":"2022-01-03T00:00:00+00:00","valueRatio":{"numerator":{"value":1},"denominator":{"value":32}}}},{"fullUrl":"Observation/172bd199-c4be-4c72-8854-365efb8767ed","resource":{"resourceType":"Observation","id":"172bd199-c4be-4c72-8854-365efb8767ed","meta":{"profile":["http://hl7.org/fhir/us/core/StructureDefinition/us-core-observation-lab"]},"status":"final","category":[{"coding":[{"system":"http://terminology.hl7.org/CodeSystem/observation-category","code":"laboratory","display":"Laboratory"}]}],"code":{"coding":[{"system":"http://loinc.org","code":"47235-7"}]},"subject":{"reference":"Patient/7c101d01-b6f0-490f-be71-51864d0ca053"},"effectiveDateTime":"2022-02-18T00:00:00+00:00","valueRatio":{"numerator":{"value":1},"denominator":{"value":32}}}},{"fullUrl":"Observation/0302fa6e-2cc3-432e-b4a9-e908c6a1959a","resource":{"resourceType":"Observation","id":"0302fa6e-2cc3-432e-b4a9-e908c6a1959a","meta":{"profile":["http://hl7.org/fhir/us/core/StructureDefinition/us-core-observation-lab"]},"status":"final","category":[{"coding":[{"system":"http://terminology.hl7.org/CodeSystem/observation-category","code":"laboratory","display":"Laboratory"}]}],"code":{"coding":[{"system":"http://loinc.org","code":"50695-6"}]},"subject":{"reference":"Patient/7c101d01-b6f0-490f-be71-51864d0ca053"},"effectiveDateTime":"2022-10-08T00:00:00+00:00","valueRatio":{"numerator":{"value":1},"denominator":{"value":32}}}},{"fullUrl":"Condition/fb7aec9e-91df-4d92-a9b6-98c3ea4e7e1a","resource":{"resourceType":"Condition","id":"fb7aec9e-91df-4d92-a9b6-98c3ea4e7e1a","meta":{"profile":["http://hl7.org/fhir/us/core/StructureDefinition/us-core-condition"]},"clinicalStatus":{"coding":[{"system":"http://terminology.hl7.org/CodeSystem/condition-clinical","code":"active","display":"Active"}]},"category":[{"coding":[{"system":"http://terminology.hl7.org/CodeSystem/condition-category","code":"problem-list-item"}]}],"code":{"coding":[{"system":"http://snomed.info/sct","code":"736686006"}]},"subject":{"reference":"Patient/7c101d01-b6f0-490f-be71-51864d0ca053"},"onsetDateTime":"2022-06-28T00:00:00+00:00"}},{"fullUrl":"Condition/447c635b-9b16-4dcb-bf5b-7fc0c4e4eaf8","resource":{"resourceType":"Condition","id":"447c635b-9b16-4dcb-bf5b-7fc0c4e4eaf8","meta":{"profile":["http://hl7.org/fhir/us/core/StructureDefinition/us-core-condition"]},"clinicalStatus":{"coding":[{"system":"http://terminology.hl7.org/CodeSystem/condition-clinical","code":"active","display":"Active"}]},"category":[{"coding":[{"system":"http://terminology.hl7.org/CodeSystem/condition-category","code":"problem-list-item"}]}],"code":{"coding":[{"system":"http://snomed.info/sct","code":"418290006"}]},"subject":{"reference":"Patient/7c101d01-b6f0-490f-be71-51864d0ca053"},"onsetDateTime":"2022-03-24T00:00:00+00:00"}},{"fullUrl":"Condition/d901186a-1238-48a4-8328-35e72dc67da8","resource":{"resourceType":"Condition","id":"d901186a-1238-48a4-8328-35e72dc67da8","meta":{"profile":["http://hl7.org/fhir/us/core/StructureDefinition/us-core-condition"]},"clinicalStatus":{"coding":[{"system":"http://terminology.hl7.org/CodeSystem/condition-clinical","code":"active","display":"Active"}]},"category":[{"coding":[{"system":"http://terminology.hl7.org/CodeSystem/condition-category","code":"problem-list-item"}]}],"code":{"coding":[{"system":"http://snomed.info/sct","code":"736686006"}]},"subject":{"reference":"Patient/7c101d01-b6f0-490f-be71-51864d0ca053"},"onsetDateTime":"2022-12-30T00:00:00+00:00"}},{"fullUrl":"Observation/6390a4da-9814-4758-a244-c3a6b66e7712","resource":{"resourceType":"Observation","id":"6390a4da-9814-4758-a244-c3a6b66e7712","meta":{"profile":["http://hl7.org/fhir/us/core/StructureDefinition/us-core-observation-lab"]},"status":"final","category":[{"coding":[{"system":"http://terminology.hl7.org/CodeSystem/observation-category","code":"laboratory","display":"Laboratory"}]}],"code":{"coding":[{"system":"http://loinc.org","code":"26464-8"}]},"subject":{"reference":"Patient/7c101d01-b6f0-490f-be71-51864d0ca053"},"effectiveDateTime":"2022-02-16T00:00:00+00:00","valueQuantity":{"value":9.5}}},{"fullUrl":"Observation/4d70b0f6-b3de-4da4-950e-c8d10815debf","resource":{"resourceType":"Observation","id":"4d70b0f6-b3de-4da4-950e-c8d10815debf","meta":{"profile":["http://hl7.org/fhir/us/core/StructureDefinition/us-core-observation-lab"]},"status":"final","category":[{"coding":[{"system":"http://terminology.hl7.org/CodeSystem/observation-category","code":"laboratory","display":"Laboratory"}]}],"code":{"coding":[{"system":"http://loinc.org","code":"6690-2"}]},"subject":{"reference":"Patient/7c101d01-b6f0-490f-be71-51864d0ca053"},"effectiveDateTime":"2022-12-01T00:00:00+00:00","valueQuantity":{"value":8.9}}},{"fullUrl":"Observation/0f2b0725-1c4b-4eb8-8f32-2d1975575bbd","resource":{"resourceType":"Observation","id":"0f2b0725-1c4b-4eb8-8f32-2d1975575bbd","meta":{"profile":["http://hl7.org/fhir/us/core/StructureDefinition/us-core-bmi"]},"status":"final","category":[{"coding":[{"system":"http://terminology.hl7.org/CodeSystem/observation-category","code":"vital-signs","display":"Vital Signs"}]}],"code":{"coding":[{"system":"http://loinc.org","code":"39156-5"}]},"subject":{"reference":"Patient/7c101d01-b6f0-490f-be71-51864d0ca053"},"effectiveDateTime":"2022-01-19T00:00:00+00:00","valueQuantity":{"value":17.86,"unit":"kg/m2","system":"http://unitsofmeasure.org","code":"kg/m2"}}},{"fullUrl":"Observation/ddc7052a-d85b-4657-8ef0-3dee49e82f12","resource":{"resourceType":"Observation","id":"ddc7052a-d85b-4657-8ef0-3dee49e82f12","meta":{"profile":["http://hl7.org/fhir/us/core/StructureDefinition/us-core-head-circumference"]},"status":"final","category":[{"coding":[{"system":"http://terminology.hl7.org/CodeSystem/observation-category","code":"vital-signs","display":"Vital Signs"}]}],"code":{"coding":[{"system":"http://loinc.org","code":"9843-4"}]},"subject":{"reference":"Patient/7c101d01-b6f0-490f-be71-51864d0ca053"},"effectiveDateTime":"2022-10-18T00:00:00+00:00","valueQuantity":{"value":3,"unit":"Inch","system":"http://unitsofmeasure.org","code":"[in_i]"}}},{"fullUrl":"Observation/b217c4e9-996f-4e92-8503-9d4f1a6c642b","resource":{"resourceType":"Observation","id":"b217c4e9-996f-4e92-8503-9d4f1a6c642b","meta":{"profile":["http://hl7.org/fhir/us/core/StructureDefinition/us-core-body-height"]},"status":"final","category":[{"coding":[{"system":"http://terminology.hl7.org/CodeSystem/observation-category","code":"vital-signs","display":"Vital Signs"}]}],"code":{"coding":[{"system":"http://loinc.org","code":"8302-2"}]},"subject":{"reference":"Patient/7c101d01-b6f0-490f-be71-51864d0ca053"},"effectiveDateTime":"2022-06-06T00:00:00+00:00","valueQuantity":{"value":65.8,"unit":"Inch","system":"http://unitsofmeasure.org","code":"[in_i]"}}},{"fullUrl":"Observation/7645cfec-c2fb-46d9-8d1d-36bcb8e8e6d5","resource":{"resourceType":"Observation","id":"7645cfec-c2fb-46d9-8d1d-36bcb8e8e6d5","meta":{"profile":["http://hl7.org/fhir/us/core/StructureDefinition/us-core-body-height"]},"status":"final","category":[{"coding":[{"system":"http://terminology.hl7.org/CodeSystem/observation-category","code":"vital-signs","display":"Vital Signs"}]}],"code":{"coding":[{"system":"http://loinc.org","code":"8302-2"}]},"subject":{"reference":"Patient/7c101d01-b6f0-490f-be71-51864d0ca053"},"effectiveDateTime":"2022-03-23T00:00:00+00:00","valueQuantity":{"value":68.5,"unit":"Inch","system":"http://unitsofmeasure.org","code":"[in_i]"}}},{"fullUrl":"Observation/e14f1ab1-885e-44db-b05f-27159d884e7b","resource":{"resourceType":"Observation","id":"e14f1ab1-885e-44db-b05f-27159d884e7b","meta":{"profile":["http://hl7.org/fhir/us/core/StructureDefinition/us-core-body-weight"]},"status":"final","category":[{"coding":[{"system":"http://terminology.hl7.org/CodeSystem/observation-category","code":"vital-signs","display":"Vital Signs"}]}],"code":{"coding":[{"system":"http://loinc.org","code":"29463-7"}]},"subject":{"reference":"Patient/7c101d01-b6f0-490f-be71-51864d0ca053"},"effectiveDateTime":"2022-12-08T00:00:00+00:00","valueQuantity":{"value":149.22,"unit":"kilogram","system":"http://unitsofmeasure.org","code":"kg"}}},{"fullUrl":"Observation/b45f91e8-ef97-4e6b-b6c7-c1a0219d77f4","resource":{"resourceType":"Observation","id":"b45f91e8-ef97-4e6b-b6c7-c1a0219d77f4","meta":{"profile":["http://hl7.org/fhir/us/core/StructureDefinition/us-core-body-temperature"]},"status":"final","category":[{"coding":[{"system":"http://terminology.hl7.org/CodeSystem/observation-category","code":"vital-signs","display":"Vital Signs"}]}],"code":{"coding":[{"system":"http://loinc.org","code":"8310-5"}]},"subject":{"reference":"Patient/7c101d01-b6f0-490f-be71-51864d0ca053"},"effectiveDateTime":"2022-09-04T00:00:00+00:00","valueQuantity":{"value":58.67,"unit":"Degrees Fahrenheit","system":"http://unitsofmeasure.org","code":"[degF]"}}},{"fullUrl":"Observation/d7da6726-b553-4db7-8f93-f53e17e578ca","resource":{"resourceType":"Observation","id":"d7da6726-b553-4db7-8f93-f53e17e578ca","meta":{"profile":["http://hl7.org/fhir/us/core/StructureDefinition/us-core-body-temperature"]},"status":"final","category":[{"coding":[{"system":"http://terminology.hl7.org/CodeSystem/observation-category","code":"vital-signs","display":"Vital Signs"}]}],"code":{"coding":[{"system":"http://loinc.org","code":"8310-5"}]},"subject":{"reference":"Patient/7c101d01-b6f0-490f-be71-51864d0ca053"},"effectiveDateTime":"2022-02-24T00:00:00+00:00","valueQuantity":{"value":123.95,"unit":"Degrees Fahrenheit","system":"http://unitsofmeasure.org","code":"[degF]"}}},{"fullUrl":"Observation/43819063-12cf-45ba-a11e-ac56457af322","resource":{"resourceType":"Observation","id":"43819063-12cf-45ba-a11e-ac56457af322","meta":{"profile":["http://hl7.org/fhir/us/core/StructureDefinition/us-core-heart-rate"]},"status":"final","category":[{"coding":[{"system":"http://terminology.hl7.org/CodeSystem/observation-category","code":"vital-signs","display":"Vital Signs"}]}],"code":{"coding":[{"system":"http://loinc.org","code":"8867-4"}]},"subject":{"reference":"Patient/7c101d01-b6f0-490f-be71-51864d0ca053"},"effectiveDateTime":"2022-07-23T00:00:00+00:00","valueQuantity":{"value":100.1,"unit":"Per Minute","system":"http://unitsofmeasure.org","code":"/min"}}},{"fullUrl":"Organization/e66e95df-7c98-438d-b5c2-67ea16d6b561","resource":{"resourceType":"Organization","id":"e66e95df-7c98-438d-b5c2-67ea16d6b561","meta":{"profile":["http://hl7.org/fhir/us/core/StructureDefinition/us-core-organization"]},"active":true,"name":"Garcia Ltd","telecom":[{"system":"phone","value":"+1-682-617-0459","use":"home"}],"address":[{"use":"work","line":["9461 Reyes Port Suite 059"],"city":"Scottview","state":"ID","postalCode":"70319"}]}}]}