{"resourceType":"Bundle","id":"5a9bc735-1440-49a0-a496-45683dbc702a","type":"transaction","entry":[{"fullUrl":"Patient/476a6731-f2cc-4a19-b61f-24b9c79cdfcf","resource":{"resourceType":"Patient","id":"476a6731-f2cc-4a19-b61f-24b9c79cdfcf","identifier":[{"type":{"coding":[{"system":"http://terminology.hl7.org/CodeSystem/v2-0203","code":"MR"}]},"system":"urn:fhirgen:mrn","value":"716-28-2812"}],"name":[{"family":"Bridges","given":["John"]}],"telecom":[{"system":"phone","value":"001-748-018-4121x068","use":"home"}],"gender":"male","birthDate":"1946-04-30","address":[{"line":["8433 Roberts Oval Apt. 970"],"city":"Kathrynshire","state":"New Mexico","postalCode":"49495"}]},"request":{"method":"POST","url":"Patient"}},{"fullUrl":"Observation/40c5aa5a-9543-4eb9-baf4-4c7113bdef27","resource":{"resourceType":"Observation","id":"40c5aa5a-9543-4eb9-baf4-4c7113bdef27","status":"final","code":{"coding":[{"system":"http://loinc.org","code":"51475-2"}]},"subject":{"reference":"Patient/476a6731-f2cc-4a19-b61f-24b9c79cdfcf"},"effectiveDateTime":"2022-02-24T00:00:00+00:00","valueRatio":{"numerator":{"value":1},"denominator":{"value":32}}},"request":{"method":"POST","url":"Observation"}},{"fullUrl":"Observation/31c1a86f-bfd1-4de7-8a94-0b8ef21a01a0","resource":{"resourceType":"Observation","id":"31c1a86f-bfd1-4de7-8a94-0b8ef21a01a0","status":"final","code":{"coding":[{"system":"http://loinc.org","code":"47235-7"}]},"subject":{"reference":"Patient/476a6731-f2cc-4a19-b61f-24b9c79cdfcf"},"effectiveDateTime":"2022-09-25T00:00:00+00:00","valueRatio":{"numerator":{"value":1},"denominator":{"value":32}}},"request":{"method":"POST","url":"Observation"}},{"fullUrl":"Condition/4c3cece8-361a-41e0-a2c7-7477437189dc","resource":{"resourceType":"Condition","id":"4c3cece8-361a-41e0-a2c7-7477437189dc","code":{"coding":[{"system":"http://snomed.info/sct","code":"30746006"}]},"subject":{"reference":"Patient/476a6731-f2cc-4a19-b61f-24b9c79cdfcf"},"onsetDateTime":"2022-09-12T00:00:00+00:00"},"request":{"method":"POST","url":"Condition"}},{"fullUrl":"Condition/2f98cb81-0880-4de7-8969-c1b1cb0a687a","resource":{"resourceType":"Condition","id":"2f98cb81-0880-4de7-8969-c1b1cb0a687a","code":{"coding":[{"system":"http://snomed.info/sct","code":"248980004"}]},"subject":{"reference":"Patient/476a6731-f2cc-4a19-b61f-24b9c79cdfcf"},"onsetDateTime":"2022-07-30T00:00:00+00:00"},"request":{"method":"POST","url":"Condition"}},{"fullUrl":"Condition/bc78c40d-450e-4a4a-b208-3837f9226ea3","resource":{"resourceType":"Condition","id":"bc78c40d-450e-4a4a-b208-3837f9226ea3","code":{"coding":[{"system":"http://snomed.info/sct","code":"198199009"}]},"subject":{"reference":"Patient/476a6731-f2cc-4a19-b61f-24b9c79cdfcf"},"onsetDateTime":"2022-04-01T00:00:00+00:00"},"request":{"method":"POST","url":"Condition"}},{"fullUrl":"Condition/5a8d8269-3166-4677-9961-0f44fdc79afb","resource":{"resourceType":"Condition","id":"5a8d8269-3166-4677-9961-0f44fdc79afb","code":{"coding":[{"system":"http://snomed.info/sct","code":"271939006"}]},"subject":{"reference":"Patient/476a6731-f2cc-4a19-b61f-24b9c79cdfcf"},"onsetDateTime":"2022-05-05T00:00:00+00:00"},"request":{"method":"POST","url":"Condition"}},{"fullUrl":"Condition/27644dc6-148b-4f4f-8aa4-889547cee0f2","resource":{"resourceType":"Condition","id":"27644dc6-148b-4f4f-8aa4-889547cee0f2","code":{"coding":[{"system":"http://snomed.info/sct","code":"18165001"}]},"subject":{"reference":"Patient/476a6731-f2cc-4a19-b61f-24b9c79cdfcf"},"onsetDateTime":"2022-10-08T00:00:00+00:00"},"request":{"method":"POST","url":"Condition"}},{"fullUrl":"Observation/4e6e974f-26b7-43ef-b379-76399dcd1fb4","resource":{"resourceType":"Observation","id":"4e6e974f-26b7-43ef-b379-76399dcd1fb4","status":"final","code":{"coding":[{"system":"http://loinc.org","code":"6690-2"}]},"subject":{"reference":"Patient/476a6731-f2cc-4a19-b61f-24b9c79cdfcf"},"effectiveDateTime":"2022-04-03T00:00:00+00:00","valueQuantity":{"value":5}},"request":{"method":"POST","url":"Observation"}},{"fullUrl":"Observation/010380be-9cab-4ee3-89f6-80fe56c494c5","resource":{"resourceType":"Observation","id":"010380be-9cab-4ee3-89f6-80fe56c494c5","status":"final","code":{"coding":[{"system":"http://loinc.org","code":"26464-8"}]},"subject":{"reference":"Patient/476a6731-f2cc-4a19-b61f-24b9c79cdfcf"},"effectiveDateTime":"2022-12-21T00:00:00+00:00","valueQuantity":{"value":5.4}},"request":{"method":"POST","url":"Observation"}},{"fullUrl":"Observation/4796c8ca-ce31-4320-8e13-c315d738306d","resource":{"resourceType":"Observation","id":"4796c8ca-ce31-4320-8e13-c315d738306d","status":"final","code":{"coding":[{"system":"http://loinc.org","code":"49498-9"}]},"subject":{"reference":"Patient/476a6731-f2cc-4a19-b61f-24b9c79cdfcf"},"effectiveDateTime":"2022-01-28T00:00:00+00:00"},"request":{"method":"POST","url":"Observation"}},{"fullUrl":"Observation/262ac7c7-ab17-416f-86b6-74471ec7d5b2","resource":{"resourceType":"Observation","id":"262ac7c7-ab17-416f-86b6-74471ec7d5b2","status":"final","code":{"coding":[{"system":"http://loinc.org","code":"49498-9"}]},"subject":{"reference":"Patient/476a6731-f2cc-4a19-b61f-24b9c79cdfcf"},"effectiveDateTime":"2022-07-27T00:00:00+00:00"},"request":{"method":"POST","url":"Observation"}},{"fullUrl":"Procedure/42110eaf-a45c-44b2-bd55-e95ab28632e9","resource":{"resourceType":"Procedure","id":"42110eaf-a45c-44b2-bd55-e95ab28632e9","status":"completed","code":{"coding":[{"system":"http://snomed.info/sct","code":"189009"}]},"subject":{"reference":"Patient/476a6731-f2cc-4a19-b61f-24b9c79cdfcf"},"performedDateTime":"2022-06-27T00:00:00+00:00"},"request":{"method":"POST","url":"Procedure"}},{"fullUrl":"Procedure/bcb90ba6-be03-4b0f-b3fc-e79440fd5f6e","resource":{"resourceType":"Procedure","id":"bcb90ba6-be03-4b0f-b3fc-e79440fd5f6e","status":"completed","code":{"coding":[{"system":"http://snomed.info/sct","code":"115006"}]},"subject":{"reference":"Patient/476a6731-f2cc-4a19-b61f-24b9c79cdfcf"},"performedDateTime":"2022-08-31T00:00:00+00:00"},"request":{"method":"POST","url":"Procedure"}},{"fullUrl":"Procedure/14ae7603-727f-45bc-b7bb-16e08e5973fb","resource":{"resourceType":"Procedure","id":"14ae7603-727f-45bc-b7bb-16e08e5973fb","status":"completed","code":{"coding":[{"system":"http://snomed.info/sct","code":"104001"}]},"subject":{"reference":"Patient/476a6731-f2cc-4a19-b61f-24b9c79cdfcf"},"performedDateTime":"2022-12-26T00:00:00+00:00"},"request":{"method":"POST","url":"Procedure"}},{"fullUrl":"MedicationStatement/1d6ba642-0d7d-4853-a8ff-7938c48980fb","resource":{"resourceType":"MedicationStatement","id":"1d6ba642-0d7d-4853-a8ff-7938c48980fb","status":"completed","medicationCodeableConcept":{"coding":[{"system":"http://www.nlm.nih.gov/research/umls/rxnorm","code":"8698"}]},"subject":{"reference":"Patient/476a6731-f2cc-4a19-b61f-24b9c79cdfcf"},"effectiveDateTime":"2022-12-07T00:00:00+00:00","dosage":[{"doseAndRate":[{"doseQuantity":{"value":2,"unit":"TAB","system":"http://terminology.hl7.org/CodeSystem/v3-orderableDrugForm","code":"TAB"}}]}]},"request":{"method":"POST","url":"MedicationStatement"}},{"fullUrl":"MedicationStatement/1f14ad53-7736-487f-82ff-ab668598b01a","resource":{"resourceType":"MedicationStatement","id":"1f14ad53-7736-487f-82ff-ab668598b01a","status":"completed","medicationCodeableConcept":{"coding":[{"system":"http://www.nlm.nih.gov/research/umls/rxnorm","code":"18631"}]},"subject":{"reference":"Patient/476a6731-f2cc-4a19-b61f-24b9c79cdfcf"},"effectiveDateTime":"2022-09-04T00:00:00+00:00","dosage":[{"doseAndRate":[{"doseQuantity":{"value":1,"unit":"TAB","system":"http://terminology.hl7.org/CodeSystem/v3-orderableDrugForm","code":"TAB"}}]}]},"request":{"method":"POST","url":"MedicationStatement"}},{"fullUrl":"MedicationStatement/c6dd7ab8-0480-42a0-9efb-3b1c926d4bb8","resource":{"resourceType":"MedicationStatement","id":"c6dd7ab8-0480-42a0-9efb-3b1c926d4bb8","status":"completed","medicationCodeableConcept":{"coding":[{"system":"http://www.nlm.nih.gov/research/umls/rxnorm","code":"18631"}]},"subject":{"reference":"Patient/476a6731-f2cc-4a19-b61f-24b9c79cdfcf"},"effectiveDateTime":"2022-11-26T00:00:00+00:00","dosage":[{"doseAndRate":[{"doseQuantity":{"value":1,"unit":"TAB","system":"http://terminology.hl7.org/CodeSystem/v3-orderableDrugForm","code":"TAB"}}]}]},"request":{"method":"POST","url":"MedicationStatement"}},{"fullUrl":"MedicationStatement/28a7809f-a87d-4b36-b5d7-f5088174eed6","resource":{"resourceType":"MedicationStatement","id":"28a7809f-a87d-4b36-b5d7-f5088174eed6","status":"completed","medicationCodeableConcept":{"coding":[{"system":"http://www.nlm.nih.gov/research/umls/rxnorm","code":"7980"}]},"subject":{"reference":"Patient/476a6731-f2cc-4a19-b61f-24b9c79cdfcf"},"effectiveDateTime":"2022-02-25T00:00:00+00:00","dosage":[{"doseAndRate":[{"doseQuantity":{"value":2,"unit":"TAB","system":"http://terminology.hl7.org/CodeSystem/v3-orderableDrugForm","code":"TAB"}}]}]},"request":{"method":"POST","url":"MedicationStatement"}},{"fullUrl":"MedicationStatement/bcb772c2-94f9-4800-91a6-ea5cf73f2e70","resource":{"resourceType":"MedicationStatement","id":"bcb772c2-94f9-4800-91a6-ea5cf73f2e70","status":"completed","medicationCodeableConcept":{"coding":[{"system":"http://www.nlm.nih.gov/research/umls/rxnorm","code":"3640"}]},"subject":{"reference":"Patient/476a6731-f2cc-4a19-b61f-24b9c79cdfcf"},"effectiveDateTime":"2022-07-14T00:00:00+00:00","dosage":[{"doseAndRate":[{"doseQuantity":{"value":4.4,"unit":"TAB","system":"http://terminology.hl7.org/CodeSystem/v3-orderableDrugForm","code":"TAB"}}]}]},"request":{"method":"POST","url":"MedicationStatement"}},{"fullUrl":"Encounter/110e4f34-da1f-491d-a1f0-46a5a2971f2b","resource":{"resourceType":"Encounter","id":"110e4f34-da1f-491d-a1f0-46a5a2971f2b","status":"finished","class":{"system":"http://terminology.hl7.org/CodeSystem/v3-ActCode","code":"IMP","display":"inpatient encounter"},"type":[{"coding":[{"system":"http://terminology.hl7.org/CodeSystem/encounter-type","code":"OKI"}]}],"subject":{"reference":"Patient/476a6731-f2cc-4a19-b61f-24b9c79cdfcf"},"period":{"start":"2022-02-21T00:00:00+00:00","end":"2022-02-22T00:00:00+00:00"}},"request":{"method":"POST","url":"Encounter"}},{"fullUrl":"Encounter/b88aca3f-acd4-4206-9673-adb7cb946504","resource":{"resourceType":"Encounter","id":"b88aca3f-acd4-4206-9673-adb7cb946504","status":"finished","class":{"system":"http://terminology.hl7.org/CodeSystem/v3-ActCode","code":"IMP","display":"inpatient encounter"},"type":[{"coding":[{"system":"http://terminology.hl7.org/CodeSystem/encounter-type","code":"ADMS"}]}],"subject":{"reference":"Patient/476a6731-f2cc-4a19-b61f-24b9c79cdfcf"},"period":{"start":"2022-07-21T00:00:00+00:00","end":"2022-07-22T00:00:00+00:00"}},"request":{"method":"POST","url":"Encounter"}},{"fullUrl":"Encounter/12324605-2004-4e44-9829-fad9c0015da4","resource":{"resourceType":"Encounter","id":"12324605-2004-4e44-9829-fad9c0015da4","status":"finished","class":{"system":"http://terminology.hl7.org/CodeSystem/v3-ActCode","code":"IMP","display":"inpatient encounter"},"type":[{"coding":[{"system":"http://terminology.hl7.org/CodeSystem/encounter-type","code":"CCS60"}]}],"subject":{"reference":"Patient/476a6731-f2cc-4a19-b61f-24b9c79cdfcf"},"period":{"start":"2022-08-18T00:00:00+00:00","end":"2022-08-26T00:00:00+00:00"}},"request":{"method":"POST","url":"Encounter"}},{"fullUrl":"Encounter/1b2574f4-78fe-4fa4-9b6a-bef62f2285b2","resource":{"resourceType":"Encounter","id":"1b2574f4-78fe-4fa4-9b6a-bef62f2285b2","status":"finished","class":{"system":"http://terminology.hl7.org/CodeSystem/v3-ActCode","code":"ACUTE","display":"inpatient acute"},"type":[{"coding":[{"system":"http://terminology.hl7.org/CodeSystem/encounter-type","code":"BD/BM-clin"}]}],"subject":{"reference":"Patient/476a6731-f2cc-4a19-b61f-24b9c79cdfcf"},"period":{"start":"2022-03-05T00:00:00+00:00","end":"2022-03-13T00:00:00+00:00"}},"request":{"method":"POST","url":"Encounter"}},{"fullUrl":"Encounter/802d2e21-75df-4bc0-be54-937c4d48cb9c","resource":{"resourceType":"Encounter","id":"802d2e21-75df-4bc0-be54-937c4d48cb9c","status":"finished","class":{"system":"http://terminology.hl7.org/CodeSystem/v3-ActCode","code":"PRENC","display":"pre-admission"},"type":[{"coding":[{"system":"http://terminology.hl7.org/CodeSystem/encounter-type","code":"CCS60"}]}],"subject":{"reference":"Patient/476a6731-f2cc-4a19-b61f-24b9c79cdfcf"},"period":{"start":"2022-09-04T00:00:00+00:00","end":"2022-09-06T00:00:00+00:00"}},"request":{"method":"POST","url":"Encounter"}},{"fullUrl":"Encounter/b383cf80-5734-4fb6-a6fb-9e09ae032bcb","resource":{"resourceType":"Encounter","id":"b383cf80-5734-4fb6-a6fb-9e09ae032bcb","status":"finished","class":{"system":"http://terminology.hl7.org/CodeSystem/v3-ActCode","code":"FLD","display":"field"},"type":[{"coding":[{"system":"http://terminology.hl7.org/CodeSystem/encounter-type","code":"ADMS"}]}],"subject":{"reference":"Patient/476a6731-f2cc-4a19-b61f-24b9c79cdfcf"},"period":{"start":"2022-01-08T00:00:00+00:00","end":"2022-01-15T00:00:00+00:00"}},"request":{"method":"POST","url":"Encounter"}},{"fullUrl":"Patient/d379045b-8088-43a1-8e12-30760e0b09ae","resource":{"resourceType":"Patient","id":"d379045b-8088-43a1-8e12-30760e0b09ae","identifier":[{"type":{"coding":[{"system":"http://terminology.hl7.org/CodeSystem/v2-0203","code":"MR"}]},"system":"urn:fhirgen:mrn","value":"668-93-2844"}],"name":[{"family":"Rodriguez","given":["Sean"]}],"telecom":[{"system":"phone","value":"001-666-940-1845x68645","use":"home"}],"gender":"male","birthDate":"1964-08-30","address":[{"line":["469 Meyer Pine"],"city":"Aliciachester","state":"Ohio","postalCode":"22976"}]},"request":{"method":"POST","url":"Patient"}},{"fullUrl":"Observation/ddc1d900-6519-4749-991d-341e406f7d42","resource":{"resourceType":"Observation","id":"ddc1d900-6519-4749-991d-341e406f7d42","status":"final","code":{"coding":[{"system":"http://loinc.org","code":"5394-2"}]},"subject":{"reference":"Patient/d379045b-8088-43a1-8e12-30760e0b09ae"},"effectiveDateTime":"2022-01-22T00:00:00+00:00","valueRatio":{"numerator":{"value":1},"denominator":{"value":4}}},"request":{"method":"POST","url":"Observation"}},{"fullUrl":"Observation/696519d4-cbef-4b69-914a-8ec07fb1067b","resource":{"resourceType":"Observation","id":"696519d4-cbef-4b69-914a-8ec07fb1067b","status":"final","code":{"coding":[{"system":"http://loinc.org","code":"31146-4"}]},"subject":{"reference":"Patient/d379045b-8088-43a1-8e12-30760e0b09ae"},"effectiveDateTime":"2022-07-14T00:00:00+00:00","valueRatio":{"numerator":{"value":1},"denominator":{"value":4}}},"request":{"method":"POST","url":"Observation"}},{"fullUrl":"Observation/a5baf2a4-8389-4ec2-b531-20b6e17e24c4","resource":{"resourceType":"Observation","id":"a5baf2a4-8389-4ec2-b531-20b6e17e24c4","status":"final","code":{"coding":[{"system":"http://loinc.org","code":"26009-1"}]},"subject":{"reference":"Patient/d379045b-8088-43a1-8e12-30760e0b09ae"},"effectiveDateTime":"2022-03-04T00:00:00+00:00","valueRatio":{"numerator":{"value":1},"denominator":{"value":64}}},"request":{"method":"POST","url":"Observation"}},{"fullUrl":"Condition/0328d4be-458e-40b7-b53d-2e3d54399dba","resource":{"resourceType":"Condition","id":"0328d4be-458e-40b7-b53d-2e3d54399dba","code":{"coding":[{"system":"http://snomed.info/sct","code":"736686006"}]},"subject":{"reference":"Patient/d379045b-8088-43a1-8e12-30760e0b09ae"},"onsetDateTime":"2022-01-09T00:00:00+00:00"},"request":{"method":"POST","url":"Condition"}},{"fullUrl":"Condition/37bfb1b7-a5df-435f-b3d1-25ed80de4bb0","resource":{"resourceType":"Condition","id":"37bfb1b7-a5df-435f-b3d1-25ed80de4bb0","code":{"coding":[{"system":"http://snomed.info/sct","code":"79342006"}]},"subject":{"reference":"Patient/d379045b-8088-43a1-8e12-30760e0b09ae"},"onsetDateTime":"2022-04-14T00:00:00+00:00"},"request":{"method":"POST","url":"Condition"}},{"fullUrl":"Condition/6fe55188-1679-47d2-96a6-082d9e0352f4","resource":{"resourceType":"Condition","id":"6fe55188-1679-47d2-96a6-082d9e0352f4","code":{"coding":[{"system":"http://snomed.info/sct","code":"71315007"}]},"subject":{"reference":"Patient/d379045b-8088-43a1-8e12-30760e0b09ae"},"onsetDateTime":"2022-07-16T00:00:00+00:00"},"request":{"method":"POST","url":"Condition"}},{"fullUrl":"Condition/b01bbbdb-b9b3-41aa-91fd-91d59f1c8045","resource":{"resourceType":"Condition","id":"b01bbbdb-b9b3-41aa-91fd-91d59f1c8045","code":{"coding":[{"system":"http://snomed.info/sct","code":"271939006"}]},"subject":{"reference":"Patient/d379045b-8088-43a1-8e12-30760e0b09ae"},"onsetDateTime":"2022-02-28T00:00:00+00:00"},"request":{"method":"POST","url":"Condition"}},{"fullUrl":"Condition/89361ba7-1706-48aa-bf97-33463f29bcde","resource":{"resourceType":"Condition","id":"89361ba7-1706-48aa-bf97-33463f29bcde","code":{"coding":[{"system":"http://snomed.info/sct","code":"30746006"}]},"subject":{"reference":"Patient/d379045b-8088-43a1-8e12-30760e0b09ae"},"onsetDateTime":"2022-08-19T00:00:00+00:00"},"request":{"method":"POST","url":"Condition"}},{"fullUrl":"Condition/e6906873-e024-442b-a7bb-76d5f20410bf","resource":{"resourceType":"Condition","id":"e6906873-e024-442b-a7bb-76d5f20410bf","code":{"coding":[{"system":"http://snomed.info/sct","code":"297123002"}]},"subject":{"reference":"Patient/d379045b-8088-43a1-8e12-30760e0b09ae"},"onsetDateTime":"2022-04-23T00:00:00+00:00"},"request":{"method":"POST","url":"Condition"}},{"fullUrl":"Condition/a278a32d-3151-49fc-92ca-ef5b281400fa","resource":{"resourceType":"Condition","id":"a278a32d-3151-49fc-92ca-ef5b281400fa","code":{"coding":[{"system":"http://snomed.info/sct","code":"3951002"}]},"subject":{"reference":"Patient/d379045b-8088-43a1-8e12-30760e0b09ae"},"onsetDateTime":"2022-11-14T00:00:00+00:00"},"request":{"method":"POST","url":"Condition"}},{"fullUrl":"Observation/eb0564b5-d75f-48fb-a8b5-87cfc9cff61d","resource":{"resourceType":"Observation","id":"eb0564b5-d75f-48fb-a8b5-87cfc9cff61d","status":"final","code":{"coding":[{"system":"http://www.ama-assn.org/go/cpt","code":"85048"}]},"subject":{"reference":"Patient/d379045b-8088-43a1-8e12-30760e0b09ae"},"effectiveDateTime":"2022-05-17T00:00:00+00:00","valueQuantity":{"value":6.8}},"request":{"method":"POST","url":"Observation"}},{"fullUrl":"Observation/f6c57478-eabe-4dd5-90cc-c3ed26d584c0","resource":{"resourceType":"Observation","id":"f6c57478-eabe-4dd5-90cc-c3ed26d584c0","status":"final","code":{"coding":[{"system":"http://www.ama-assn.org/go/cpt","code":"85048"}]},"subject":{"reference":"Patient/d379045b-8088-43a1-8e12-30760e0b09ae"},"effectiveDateTime":"2022-12-14T00:00:00+00:00","valueQuantity":{"value":8.9}},"request":{"method":"POST","url":"Observation"}},{"fullUrl":"Observation/bb4d0a84-5635-4ba8-a824-087819669cfb","resource":{"resourceType":"Observation","id":"bb4d0a84-5635-4ba8-a824-087819669cfb","status":"final","code":{"coding":[{"system":"http://loinc.org","code":"49498-9"}]},"subject":{"reference":"Patient/d379045b-8088-43a1-8e12-30760e0b09ae"},"effectiveDateTime":"2022-09-05T00:00:00+00:00"},"request":{"method":"POST","url":"Observation"}},{"fullUrl":"Observation/4a232e20-7709-4abd-a65e-43a66131fc83","resource":{"resourceType":"Observation","id":"4a232e20-7709-4abd-a65e-43a66131fc83","status":"final","code":{"coding":[{"system":"http://loinc.org","code":"49498-9"}]},"subject":{"reference":"Patient/d379045b-8088-43a1-8e12-30760e0b09ae"},"effectiveDateTime":"2022-11-02T00:00:00+00:00"},"request":{"method":"POST","url":"Observation"}},{"fullUrl":"Procedure/a815f20a-4593-4c39-b776-3cc655c7f48a","resource":{"resourceType":"Procedure","id":"a815f20a-4593-4c39-b776-3cc655c7f48a","status":"completed","code":{"coding":[{"system":"http://snomed.info/sct","code":"189009"}]},"subject":{"reference":"Patient/d379045b-8088-43a1-8e12-30760e0b09ae"},"performedDateTime":"2022-08-01T00:00:00+00:00"},"request":{"method":"POST","url":"Procedure"}},{"fullUrl":"Procedure/28d2be95-3b50-444c-baa2-677eea046c0d","resource":{"resourceType":"Procedure","id":"28d2be95-3b50-444c-baa2-677eea046c0d","status":"completed","code":{"coding":[{"system":"http://snomed.info/sct","code":"146005"}]},"subject":{"reference":"Patient/d379045b-8088-43a1-8e12-30760e0b09ae"},"performedDateTime":"2022-07-19T00:00:00+00:00"},"request":{"method":"POST","url":"Procedure"}},{"fullUrl":"Procedure/ee410d6e-4d34-4cde-acf4-0a4fe888ea2a","resource":{"resourceType":"Procedure","id":"ee410d6e-4d34-4cde-acf4-0a4fe888ea2a","status":"completed","code":{"coding":[{"system":"http://snomed.info/sct","code":"115006"}]},"subject":{"reference":"Patient/d379045b-8088-43a1-8e12-30760e0b09ae"},"performedDateTime":"2022-09-19T00:00:00+00:00"},"request":{"method":"POST","url":"Procedure"}},{"fullUrl":"MedicationStatement/f8f13d4e-7775-493f-9839-81a07e6469ed","resource":{"resourceType":"MedicationStatement","id":"f8f13d4e-7775-493f-9839-81a07e6469ed","status":"completed","medicationCodeableConcept":{"coding":[{"system":"http://www.nlm.nih.gov/research/umls/rxnorm","code":"2193"}]},"subject":{"reference":"Patient/d379045b-8088-43a1-8e12-30760e0b09ae"},"effectiveDateTime":"2022-06-02T00:00:00+00:00","dosage":[{"doseAndRate":[{"doseQuantity":{"value":1,"unit":"TAB","system":"http://terminology.hl7.org/CodeSystem/v3-orderableDrugForm","code":"TAB"}}]}]},"request":{"method":"POST","url":"MedicationStatement"}},{"fullUrl":"MedicationStatement/d5f53810-484a-44ff-b55f-731e9574bf36","resource":{"resourceType":"MedicationStatement","id":"d5f53810-484a-44ff-b55f-731e9574bf36","status":"completed","medicationCodeableConcept":{"coding":[{"system":"http://www.nlm.nih.gov/research/umls/rxnorm","code":"7984"}]},"subject":{"reference":"Patient/d379045b-8088-43a1-8e12-30760e0b09ae"},"effectiveDateTime":"2022-07-09T00:00:00+00:00","dosage":[{"doseAndRate":[{"doseQuantity":{"value":2,"unit":"TAB","system":"http://terminology.hl7.org/CodeSystem/v3-orderableDrugForm","code":"TAB"}}]}]},"request":{"method":"POST","url":"MedicationStatement"}},{"fullUrl":"MedicationStatement/55c9231b-e20f-47bb-b9fb-8fc61bfc07e7","resource":{"resourceType":"MedicationStatement","id":"55c9231b-e20f-47bb-b9fb-8fc61bfc07e7","status":"completed","medicationCodeableConcept":{"coding":[{"system":"http://www.nlm.nih.gov/research/umls/rxnorm","code":"8698"}]},"subject":{"reference":"Patient/d379045b-8088-43a1-8e12-30760e0b09ae"},"effectiveDateTime":"2022-05-18T00:00:00+00:00","dosage":[{"doseAndRate":[{"doseQuantity":{"value":2,"unit":"TAB","system":"http://terminology.hl7.org/CodeSystem/v3-orderableDrugForm","code":"TAB"}}]}]},"request":{"method":"POST","url":"MedicationStatement"}},{"fullUrl":"MedicationStatement/c2ebe75d-8ce7-42d0-9de7-11c3321d1a13","resource":{"resourceType":"MedicationStatement","id":"c2ebe75d-8ce7-42d0-9de7-11c3321d1a13","status":"completed","medicationCodeableConcept":{"coding":[{"system":"http://www.nlm.nih.gov/research/umls/rxnorm","code":"2193"}]},"subject":{"reference":"Patient/d379045b-8088-43a1-8e12-30760e0b09ae"},"effectiveDateTime":"2022-06-24T00:00:00+00:00","dosage":[{"doseAndRate":[{"doseQuantity":{"value":2,"unit":"TAB","system":"http://terminology.hl7.org/CodeSystem/v3-orderableDrugForm","code":"TAB"}}]}]},"request":{"method":"POST","url":"MedicationStatement"}},{"fullUrl":"MedicationStatement/a8f06bf1-7a60-4963-bc26-fb05f2bb0e29","resource":{"resourceType":"MedicationStatement","id":"a8f06bf1-7a60-4963-bc26-fb05f2bb0e29","status":"completed","medicationCodeableConcept":{"coding":[{"system":"http://www.nlm.nih.gov/research/umls/rxnorm","code":"10395"}]},"subject":{"reference":"Patient/d379045b-8088-43a1-8e12-30760e0b09ae"},"effectiveDateTime":"2022-07-11T00:00:00+00:00","dosage":[{"doseAndRate":[{"doseQuantity":{"value":1,"unit":"TAB","system":"http://terminology.hl7.org/CodeSystem/v3-orderableDrugForm","code":"TAB"}}]}]},"request":{"method":"POST","url":"MedicationStatement"}},{"fullUrl":"MedicationStatement/639224f8-68ca-4e8f-9f09-d8f3da37aa5e","resource":{"resourceType":"MedicationStatement","id":"639224f8-68ca-4e8f-9f09-d8f3da37aa5e","status":"completed","medicationCodeableConcept":{"coding":[{"system":"http://www.nlm.nih.gov/research/umls/rxnorm","code":"18631"}]},"subject":{"reference":"Patient/d379045b-8088-43a1-8e12-30760e0b09ae"},"effectiveDateTime":"2022-06-19T00:00:00+00:00","dosage":[{"doseAndRate":[{"doseQuantity":{"value":1,"unit":"TAB","system":"http://terminology.hl7.org/CodeSystem/v3-orderableDrugForm","code":"TAB"}}]}]},"request":{"method":"POST","url":"MedicationStatement"}},{"fullUrl":"MedicationStatement/79e97688-4063-4f47-ac85-e7d6ec5c4fb6","resource":{"resourceType":"MedicationStatement","id":"79e97688-4063-4f47-ac85-e7d6ec5c4fb6","status":"completed","medicationCodeableConcept":{"coding":[{"system":"http://www.nlm.nih.gov/research/umls/rxnorm","code":"2193"}]},"subject":{"reference":"Patient/d379045b-8088-43a1-8e12-30760e0b09ae"},"effectiveDateTime":"2022-09-29T00:00:00+00:00","dosage":[{"doseAndRate":[{"doseQuantity":{"value":5.2,"unit":"TAB","system":"http://terminology.hl7.org/CodeSystem/v3-orderableDrugForm","code":"TAB"}}]}]},"request":{"method":"POST","url":"MedicationStatement"}},{"fullUrl":"MedicationStatement/f1731592-8d97-429c-977b-910d1c9c6df4","resource":{"resourceType":"MedicationStatement","id":"f1731592-8d97-429c-977b-910d1c9c6df4","status":"completed","medicationCodeableConcept":{"coding":[{"system":"http://www.nlm.nih.gov/research/umls/rxnorm","code":"10395"}]},"subject":{"reference":"Patient/d379045b-8088-43a1-8e12-30760e0b09ae"},"effectiveDateTime":"2022-10-01T00:00:00+00:00","dosage":[{"doseAndRate":[{"doseQuantity":{"value":4.6,"unit":"TAB","system":"http://terminology.hl7.org/CodeSystem/v3-orderableDrugForm","code":"TAB"}}]}]},"request":{"method":"POST","url":"MedicationStatement"}},{"fullUrl":"MedicationStatement/819bc1c5-b284-45ed-a61e-cf0bc97aaba3","resource":{"resourceType":"MedicationStatement","id":"819bc1c5-b284-45ed-a61e-cf0bc97aaba3","status":"completed","medicationCodeableConcept":{"coding":[{"system":"http://www.nlm.nih.gov/research/umls/rxnorm","code":"10395"}]},"subject":{"reference":"Patient/d379045b-8088-43a1-8e12-30760e0b09ae"},"effectiveDateTime":"2022-02-18T00:00:00+00:00","dosage":[{"doseAndRate":[{"doseQuantity":{"value":4.5,"unit":"TAB","system":"http://terminology.hl7.org/CodeSystem/v3-orderableDrugForm","code":"TAB"}}]}]},"request":{"method":"POST","url":"MedicationStatement"}},{"fullUrl":"Encounter/d1f36cdb-0203-45a1-b494-015f73a84402","resource":{"resourceType":"Encounter","id":"d1f36cdb-0203-45a1-b494-015f73a84402","status":"finished","class":{"system":"http://terminology.hl7.org/CodeSystem/v3-ActCode","code":"IMP","display":"inpatient encounter"},"type":[{"coding":[{"system":"http://terminology.hl7.org/CodeSystem/encounter-type","code":"BD/BM-clin"}]}],"subject":{"reference":"Patient/d379045b-8088-43a1-8e12-30760e0b09ae"},"period":{"start":"2022-11-25T00:00:00+00:00","end":"2022-11-30T00:00:00+00:00"}},"request":{"method":"POST","url":"Encounter"}},{"fullUrl":"Encounter/7dc92751-0984-4a42-a518-f8e4e0e8866f","resource":{"resourceType":"Encounter","id":"7dc92751-0984-4a42-a518-f8e4e0e8866f","status":"finished","class":{"system":"http://terminology.hl7.org/CodeSystem/v3-ActCode","code":"IMP","display":"inpatient encounter"},"type":[{"coding":[{"system":"http://terminology.hl7.org/CodeSystem/encounter-type","code":"BD/BM-clin"}]}],"subject":{"reference":"Patient/d379045b-8088-43a1-8e12-30760e0b09ae"},"period":{"start":"2022-07-24T00:00:00+00:00","end":"2022-08-02T00:00:00+00:00"}},"request":{"method":"POST","url":"Encounter"}},{"fullUrl":"Encounter/da2cfc03-38ca-41d6-9118-ee5253bee69b","resource":{"resourceType":"Encounter","id":"da2cfc03-38ca-41d6-9118-ee5253bee69b","status":"finished","class":{"system":"http://terminology.hl7.org/CodeSystem/v3-ActCode","code":"VR","display":"virtual"},"type":[{"coding":[{"system":"http://terminology.hl7.org/CodeSystem/encounter-type","code":"ADMS"}]}],"subject":{"reference":"Patient/d379045b-8088-43a1-8e12-30760e0b09ae"},"period":{"start":"2022-06-02T00:00:00+00:00","end":"2022-06-03T00:00:00+00:00"}},"request":{"method":"POST","url":"Encounter"}},{"fullUrl":"Encounter/070a9c9f-7b4f-4c76-a66c-b66f6679dbf1","resource":{"resourceType":"Encounter","id":"070a9c9f-7b4f-4c76-a66c-b66f6679dbf1","status":"finished","class":{"system":"http://terminology.hl7.org/CodeSystem/v3-ActCode","code":"IMP","display":"inpatient encounter"},"type":[{"coding":[{"system":"http://terminology.hl7.org/CodeSystem/encounter-type","code":"OKI"}]}],"subject":{"reference":"Patient/d379045b-8088-43a1-8e12-30760e0b09ae"},"period":{"start":"2022-08-03T00:00:00+00:00","end":"2022-08-06T00:00:00+00:00"}},"request":{"method":"POST","url":"Encounter"}},{"fullUrl":"Encounter/99d4472d-ba09-4f22-8627-73e52dc71169","resource":{"resourceType":"Encounter","id":"99d4472d-ba09-4f22-8627-73e52dc71169","status":"finished","class":{"system":"http://terminology.hl7.org/CodeSystem/v3-ActCode","code":"IMP","display":"inpatient encounter"},"type":[{"coding":[{"system":"http://terminology.hl7.org/CodeSystem/encounter-type","code":"ADMS"}]}],"subject":{"reference":"Patient/d379045b-8088-43a1-8e12-30760e0b09ae"},"period":{"start":"2022-04-09T00:00:00+00:00","end":"2022-04-16T00:00:00+00:00"}},"request":{"method":"POST","url":"Encounter"}},{"fullUrl":"Patient/2325213f-bec9-4fd9-9036-e8bf5d369e6c","resource":{"resourceType":"Patient","id":"2325213f-bec9-4fd9-9036-e8bf5d369e6c","identifier":[{"type":{"coding":[{"system":"http://terminology.hl7.org/CodeSystem/v2-0203","code":"MR"}]},"system":"urn:fhirgen:mrn","value":"758-91-3539"}],"name":[{"family":"Baird","given":["Nancy"]}],"telecom":[{"system":"phone","value":"(699)393-8722","use":"home"}],"gender":"female","birthDate":"1954-01-16","address":[{"line":["203 Taylor Keys Apt. 658"],"city":"Kaufmanfort","state":"Arizona","postalCode":"78055"}]},"request":{"method":"POST","url":"Patient"}},{"fullUrl":"Observation/691e762d-522f-48cf-8b47-17b9af96b031","resource":{"resourceType":"Observation","id":"691e762d-522f-48cf-8b47-17b9af96b031","status":"final","code":{"coding":[{"system":"http://loinc.org","code":"50695-6"}]},"subject":{"reference":"Patient/2325213f-bec9-4fd9-9036-e8bf5d369e6c"},"effectiveDateTime":"2022-09-06T00:00:00+00:00","valueRatio":{"numerator":{"value":1},"denominator":{"value":32}}},"request":{"method":"POST","url":"Observation"}},{"fullUrl":"Observation/e1d57014-8be2-4707-a69b-23a1684a0ea5","resource":{"resourceType":"Observation","id":"e1d57014-8be2-4707-a69b-23a1684a0ea5","status":"final","code":{"coding":[{"system":"http://loinc.org","code":"22590-4"}]},"subject":{"reference":"Patient/2325213f-bec9-4fd9-9036-e8bf5d369e6c"},"effectiveDateTime":"2022-02-08T00:00:00+00:00","valueRatio":{"numerator":{"value":1},"denominator":{"value":32}}},"request":{"method":"POST","url":"Observation"}},{"fullUrl":"Condition/d9248a46-689c-4472-a52a-083c3c4bd560","resource":{"resourceType":"Condition","id":"d9248a46-689c-4472-a52a-083c3c4bd560","code":{"coding":[{"system":"http://snomed.info/sct","code":"709977002"}]},"subject":{"reference":"Patient/2325213f-bec9-4fd9-9036-e8bf5d369e6c"},"onsetDateTime":"2022-01-15T00:00:00+00:00"},"request":{"method":"POST","url":"Condition"}},{"fullUrl":"Condition/ba917e2b-67bd-43a9-a841-90c9afeec1e8","resource":{"resourceType":"Condition","id":"ba917e2b-67bd-43a9-a841-90c9afeec1e8","code":{"coding":[{"system":"http://snomed.info/sct","code":"91554004"}]},"subject":{"reference":"Patient/2325213f-bec9-4fd9-9036-e8bf5d369e6c"},"onsetDateTime":"2022-06-12T00:00:00+00:00"},"request":{"method":"POST","url":"Condition"}},{"fullUrl":"Condition/cb9427a1-fa13-4378-be5e-6be926841d97","resource":{"resourceType":"Condition","id":"cb9427a1-fa13-4378-be5e-6be926841d97","code":{"coding":[{"system":"http://snomed.info/sct","code":"71315007"}]},"subject":{"reference":"Patient/2325213f-bec9-4fd9-9036-e8bf5d369e6c"},"onsetDateTime":"2022-02-03T00:00:00+00:00"},"request":{"method":"POST","url":"Condition"}},{"fullUrl":"Condition/1cc72b39-4c3e-4f6a-84b8-090e9fd98540","resource":{"resourceType":"Condition","id":"1cc72b39-4c3e-4f6a-84b8-090e9fd98540","code":{"coding":[{"system":"http://snomed.info/sct","code":"271939006"}]},"subject":{"reference":"Patient/2325213f-bec9-4fd9-9036-e8bf5d369e6c"},"onsetDateTime":"2022-07-18T00:00:00+00:00"},"request":{"method":"POST","url":"Condition"}},{"fullUrl":"Condition/c6a2f008-51ac-422e-8a28-0fdba638729c","resource":{"resourceType":"Condition","id":"c6a2f008-51ac-422e-8a28-0fdba638729c","code":{"coding":[{"system":"http://snomed.info/sct","code":"18165001"}]},"subject":{"reference":"Patient/2325213f-bec9-4fd9-9036-e8bf5d369e6c"},"onsetDateTime":"2022-12-16T00:00:00+00:00"},"request":{"method":"POST","url":"Condition"}},{"fullUrl":"Condition/1d7ec605-f3f2-482e-a531-2d95d51a7961","resource":{"resourceType":"Condition","id":"1d7ec605-f3f2-482e-a531-2d95d51a7961","code":{"coding":[{"system":"http://snomed.info/sct","code":"198199009"}]},"subject":{"reference":"Patient/2325213f-bec9-4fd9-9036-e8bf5d369e6c"},"onsetDateTime":"2022-07-17T00:00:00+00:00"},"request":{"method":"POST","url":"Condition"}},{"fullUrl":"Observation/48fac4b6-9785-4cf2-ad55-bc85bb312fa5","resource":{"resourceType":"Observation","id":"48fac4b6-9785-4cf2-ad55-bc85bb312fa5","status":"final","code":{"coding":[{"system":"http://loinc.org","code":"26464-8"}]},"subject":{"reference":"Patient/2325213f-bec9-4fd9-9036-e8bf5d369e6c"},"effectiveDateTime":"2022-12-25T00:00:00+00:00","valueQuantity":{"value":8.9}},"request":{"method":"POST","url":"Observation"}},{"fullUrl":"Observation/2a422fc6-20a9-40ca-872f-73852a37ae4f","resource":{"resourceType":"Observation","id":"2a422fc6-20a9-40ca-872f-73852a37ae4f","status":"final","code":{"coding":[{"system":"http://www.ama-assn.org/go/cpt","code":"85048"}]},"subject":{"reference":"Patient/2325213f-bec9-4fd9-9036-e8bf5d369e6c"},"effectiveDateTime":"2022-08-14T00:00:00+00:00","valueQuantity":{"value":7.9}},"request":{"method":"POST","url":"Observation"}},{"fullUrl":"Observation/6c0e895a-0c16-4a78-8170-421c22590017","resource":{"resourceType":"Observation","id":"6c0e895a-0c16-4a78-8170-421c22590017","status":"final","code":{"coding":[{"system":"http://loinc.org","code":"49498-9"}]},"subject":{"reference":"Patient/2325213f-bec9-4fd9-9036-e8bf5d369e6c"},"effectiveDateTime":"2022-07-01T00:00:00+00:00"},"request":{"method":"POST","url":"Observation"}},{"fullUrl":"Observation/92bdc7c1-8c85-4f7a-be01-f24e481d971e","resource":{"resourceType":"Observation","id":"92bdc7c1-8c85-4f7a-be01-f24e481d971e","status":"final","code":{"coding":[{"system":"http://loinc.org","code":"49498-9"}]},"subject":{"reference":"Patient/2325213f-bec9-4fd9-9036-e8bf5d369e6c"},"effectiveDateTime":"2022-06-10T00:00:00+00:00"},"request":{"method":"POST","url":"Observation"}},{"fullUrl":"Procedure/193ecb1b-fb17-4903-9cea-7e37842cf19e","resource":{"resourceType":"Procedure","id":"193ecb1b-fb17-4903-9cea-7e37842cf19e","status":"completed","code":{"coding":[{"system":"http://snomed.info/sct","code":"146005"}]},"subject":{"reference":"Patient/2325213f-bec9-4fd9-9036-e8bf5d369e6c"},"performedDateTime":"2022-10-15T00:00:00+00:00"},"request":{"method":"POST","url":"Procedure"}},{"fullUrl":"Procedure/1a3eaf33-47d0-4c73-b41d-a26b5904b5cb","resource":{"resourceType":"Procedure","id":"1a3eaf33-47d0-4c73-b41d-a26b5904b5cb","status":"completed","code":{"coding":[{"system":"http://snomed.info/sct","code":"104001"}]},"subject":{"reference":"Patient/2325213f-bec9-4fd9-9036-e8bf5d369e6c"},"performedDateTime":"2022-05-03T00:00:00+00:00"},"request":{"method":"POST","url":"Procedure"}},{"fullUrl":"Procedure/da9bcbc4-44d9-4552-aef1-102032c6c4a9","resource":{"resourceType":"Procedure","id":"da9bcbc4-44d9-4552-aef1-102032c6c4a9","status":"completed","code":{"coding":[{"system":"http://snomed.info/sct","code":"189009"}]},"subject":{"reference":"Patient/2325213f-bec9-4fd9-9036-e8bf5d369e6c"},"performedDateTime":"2022-08-06T00:00:00+00:00"},"request":{"method":"POST","url":"Procedure"}},{"fullUrl":"MedicationStatement/bf34a73a-42b2-4f9a-a14e-d55d4cfcc0df","resource":{"resourceType":"MedicationStatement","id":"bf34a73a-42b2-4f9a-a14e-d55d4cfcc0df","status":"completed","medicationCodeableConcept":{"coding":[{"system":"http://www.nlm.nih.gov/research/umls/rxnorm","code":"2193"}]},"subject":{"reference":"Patient/2325213f-bec9-4fd9-9036-e8bf5d369e6c"},"effectiveDateTime":"2022-05-09T00:00:00+00:00","dosage":[{"doseAndRate":[{"doseQuantity":{"value":2,"unit":"TAB","system":"http://terminology.hl7.org/CodeSystem/v3-orderableDrugForm","code":"TAB"}}]}]},"request":{"method":"POST","url":"MedicationStatement"}},{"fullUrl":"MedicationStatement/3770bf7e-0026-42cb-a66c-54c8ebd17124","resource":{"resourceType":"MedicationStatement","id":"3770bf7e-0026-42cb-a66c-54c8ebd17124","status":"completed","medicationCodeableConcept":{"coding":[{"system":"http://www.nlm.nih.gov/research/umls/rxnorm","code":"7980"}]},"subject":{"reference":"Patient/2325213f-bec9-4fd9-9036-e8bf5d369e6c"},"effectiveDateTime":"2022-02-12T00:00:00+00:00","dosage":[{"doseAndRate":[{"doseQuantity":{"value":1,"unit":"TAB","system":"http://terminology.hl7.org/CodeSystem/v3-orderableDrugForm","code":"TAB"}}]}]},"request":{"method":"POST","url":"MedicationStatement"}},{"fullUrl":"MedicationStatement/8df8490f-a9ec-4506-9497-f562c4d32c4d","resource":{"resourceType":"MedicationStatement","id":"8df8490f-a9ec-4506-9497-f562c4d32c4d","status":"completed","medicationCodeableConcept":{"coding":[{"system":"http://www.nlm.nih.gov/research/umls/rxnorm","code":"10395"}]},"subject":{"reference":"Patient/2325213f-bec9-4fd9-9036-e8bf5d369e6c"},"effectiveDateTime":"2022-08-01T00:00:00+00:00","dosage":[{"doseAndRate":[{"doseQuantity":{"value":2,"unit":"TAB","system":"http://terminology.hl7.org/CodeSystem/v3-orderableDrugForm","code":"TAB"}}]}]},"request":{"method":"POST","url":"MedicationStatement"}},{"fullUrl":"MedicationStatement/15bfec26-5010-4d6f-b619-bede47e21188","resource":{"resourceType":"MedicationStatement","id":"15bfec26-5010-4d6f-b619-bede47e21188","status":"completed","medicationCodeableConcept":{"coding":[{"system":"http://www.nlm.nih.gov/research/umls/rxnorm","code":"7984"}]},"subject":{"reference":"Patient/2325213f-bec9-4fd9-9036-e8bf5d369e6c"},"effectiveDateTime":"2022-05-12T00:00:00+00:00","dosage":[{"doseAndRate":[{"doseQuantity":{"value":1,"unit":"TAB","system":"http://terminology.hl7.org/CodeSystem/v3-orderableDrugForm","code":"TAB"}}]}]},"request":{"method":"POST","url":"MedicationStatement"}},{"fullUrl":"MedicationStatement/98d49c16-4f3d-4201-9edc-1b0239432908","resource":{"resourceType":"MedicationStatement","id":"98d49c16-4f3d-4201-9edc-1b0239432908","status":"completed","medicationCodeableConcept":{"coding":[{"system":"http://www.nlm.nih.gov/research/umls/rxnorm","code":"7984"}]},"subject":{"reference":"Patient/2325213f-bec9-4fd9-9036-e8bf5d369e6c"},"effectiveDateTime":"2022-04-06T00:00:00+00:00","dosage":[{"doseAndRate":[{"doseQuantity":{"value":2,"unit":"TAB","system":"http://terminology.hl7.org/CodeSystem/v3-orderableDrugForm","code":"TAB"}}]}]},"request":{"method":"POST","url":"MedicationStatement"}},{"fullUrl":"MedicationStatement/ff076bf0-db79-482c-ac6f-874bd0c8bb91","resource":{"resourceType":"MedicationStatement","id":"ff076bf0-db79-482c-ac6f-874bd0c8bb91","status":"completed","medicationCodeableConcept":{"coding":[{"system":"http://www.nlm.nih.gov/research/umls/rxnorm","code":"7984"}]},"subject":{"reference":"Patient/2325213f-bec9-4fd9-9036-e8bf5d369e6c"},"effectiveDateTime":"2022-01-30T00:00:00+00:00","dosage":[{"doseAndRate":[{"doseQuantity":{"value":5.7,"unit":"TAB","system":"http://terminology.hl7.org/CodeSystem/v3-orderableDrugForm","code":"TAB"}}]}]},"request":{"method":"POST","url":"MedicationStatement"}},{"fullUrl":"MedicationStatement/873c26ca-18c3-493c-82ae-41740ff27975","resource":{"resourceType":"MedicationStatement","id":"873c26ca-18c3-493c-82ae-41740ff27975","status":"completed","medicationCodeableConcept":{"coding":[{"system":"http://www.nlm.nih.gov/research/umls/rxnorm","code":"7984"}]},"subject":{"reference":"Patient/2325213f-bec9-4fd9-9036-e8bf5d369e6c"},"effectiveDateTime":"2022-07-28T00:00:00+00:00","dosage":[{"doseAndRate":[{"doseQuantity":{"value":3.6,"unit":"TAB","system":"http://terminology.hl7.org/CodeSystem/v3-orderableDrugForm","code":"TAB"}}]}]},"request":{"method":"POST","url":"MedicationStatement"}},{"fullUrl":"MedicationStatement/4a4dfdd3-a23d-4184-b6ca-4ca3a862eecb","resource":{"resourceType":"MedicationStatement","id":"4a4dfdd3-a23d-4184-b6ca-4ca3a862eecb","status":"completed","medicationCodeableConcept":{"coding":[{"system":"http://www.nlm.nih.gov/research/umls/rxnorm","code":"10395"}]},"subject":{"reference":"Patient/2325213f-bec9-4fd9-9036-e8bf5d369e6c"},"effectiveDateTime":"2022-07-13T00:00:00+00:00","dosage":[{"doseAndRate":[{"doseQuantity":{"value":3.3,"unit":"TAB","system":"http://terminology.hl7.org/CodeSystem/v3-orderableDrugForm","code":"TAB"}}]}]},"request":{"method":"POST","url":"MedicationStatement"}},{"fullUrl":"MedicationStatement/d6cdd5d1-b515-4e53-9107-0282546371d0","resource":{"resourceType":"MedicationStatement","id":"d6cdd5d1-b515-4e53-9107-0282546371d0","status":"completed","medicationCodeableConcept":{"coding":[{"system":"http://www.nlm.nih.gov/research/umls/rxnorm","code":"10395"}]},"subject":{"reference":"Patient/2325213f-bec9-4fd9-9036-e8bf5d369e6c"},"effectiveDateTime":"2022-09-09T00:00:00+00:00","dosage":[{"doseAndRate":[{"doseQuantity":{"value":5.8,"unit":"TAB","system":"http://terminology.hl7.org/CodeSystem/v3-orderableDrugForm","code":"TAB"}}]}]},"request":{"method":"POST","url":"MedicationStatement"}},{"fullUrl":"MedicationStatement/5d3d396e-1868-44ea-8c93-4dc96ec1e0fd","resource":{"resourceType":"MedicationStatement","id":"5d3d396e-1868-44ea-8c93-4dc96ec1e0fd","status":"completed","medicationCodeableConcept":{"coding":[{"system":"http://www.nlm.nih.gov/research/umls/rxnorm","code":"10395"}]},"subject":{"reference":"Patient/2325213f-bec9-4fd9-9036-e8bf5d369e6c"},"effectiveDateTime":"2022-03-13T00:00:00+00:00","dosage":[{"doseAndRate":[{"doseQuantity":{"value":5.1,"unit":"TAB","system":"http://terminology.hl7.org/CodeSystem/v3-orderableDrugForm","code":"TAB"}}]}]},"request":{"method":"POST","url":"MedicationStatement"}},{"fullUrl":"MedicationStatement/8d960114-d4ac-43c2-8633-1b4df9dc5320","resource":{"resourceType":"MedicationStatement","id":"8d960114-d4ac-43c2-8633-1b4df9dc5320","status":"completed","medicationCodeableConcept":{"coding":[{"system":"http://www.nlm.nih.gov/research/umls/rxnorm","code":"7984"}]},"subject":{"reference":"Patient/2325213f-bec9-4fd9-9036-e8bf5d369e6c"},"effectiveDateTime":"2022-05-07T00:00:00+00:00","dosage":[{"doseAndRate":[{"doseQuantity":{"value":6.8,"unit":"TAB","system":"http://terminology.hl7.org/CodeSystem/v3-orderableDrugForm","code":"TAB"}}]}]},"request":{"method":"POST","url":"MedicationStatement"}},{"fullUrl":"MedicationStatement/1fc266c6-7f10-4a95-a451-3d7d584964b6","resource":{"resourceType":"MedicationStatement","id":"1fc266c6-7f10-4a95-a451-3d7d584964b6","status":"completed","medicationCodeableConcept":{"coding":[{"system":"http://www.nlm.nih.gov/research/umls/rxnorm","code":"18631"}]},"subject":{"reference":"Patient/2325213f-bec9-4fd9-9036-e8bf5d369e6c"},"effectiveDateTime":"2022-09-08T00:00:00+00:00","dosage":[{"doseAndRate":[{"doseQuantity":{"value":3.3,"unit":"TAB","system":"http://terminology.hl7.org/CodeSystem/v3-orderableDrugForm","code":"TAB"}}]}]},"request":{"method":"POST","url":"MedicationStatement"}},{"fullUrl":"Encounter/036ea43b-7b8e-473f-9f1f-feba87da12fd","resource":{"resourceType":"Encounter","id":"036ea43b-7b8e-473f-9f1f-feba87da12fd","status":"finished","class":{"system":"http://terminology.hl7.org/CodeSystem/v3-ActCode","code":"IMP","display":"inpatient encounter"},"type":[{"coding":[{"system":"http://terminology.hl7.org/CodeSystem/encounter-type","code":"OKI"}]}],"subject":{"reference":"Patient/2325213f-bec9-4fd9-9036-e8bf5d369e6c"},"period":{"start":"2022-01-06T00:00:00+00:00","end":"2022-01-06T00:00:00+00:00"}},"request":{"method":"POST","url":"Encounter"}},{"fullUrl":"Encounter/bfcc2308-656f-403d-962b-476dd89da17f","resource":{"resourceType":"Encounter","id":"bfcc2308-656f-403d-962b-476dd89da17f","status":"finished","class":{"system":"http://terminology.hl7.org/CodeSystem/v3-ActCode","code":"IMP","display":"inpatient encounter"},"type":[{"coding":[{"system":"http://terminology.hl7.org/CodeSystem/encounter-type","code":"OKI"}]}],"subject":{"reference":"Patient/2325213f-bec9-4fd9-9036-e8bf5d369e6c"},"period":{"start":"2022-06-03T00:00:00+00:00","end":"2022-06-09T00:00:00+00:00"}},"request":{"method":"POST","url":"Encounter"}},{"fullUrl":"Encounter/98ccec9d-8102-4261-818c-479d24f275b0","resource":{"resourceType":"Encounter","id":"98ccec9d-8102-4261-818c-479d24f275b0","status":"finished","class":{"system":"http://terminology.hl7.org/CodeSystem/v3-ActCode","code":"FLD","display":"field"},"type":[{"coding":[{"system":"http://terminology.hl7.org/CodeSystem/encounter-type","code":"BD/BM-clin"}]}],"subject":{"reference":"Patient/2325213f-bec9-4fd9-9036-e8bf5d369e6c"},"period":{"start":"2022-07-12T00:00:00+00:00","end":"2022-07-21T00:00:00+00:00"}},"request":{"method":"POST","url":"Encounter"}},{"fullUrl":"Encounter/b3d05fd2-fb05-47be-b240-6bdc112e6b60","resource":{"resourceType":"Encounter","id":"b3d05fd2-fb05-47be-b240-6bdc112e6b60","status":"finished","class":{"system":"http://terminology.hl7.org/CodeSystem/v3-ActCode","code":"AMB","display":"ambulatory"},"type":[{"coding":[{"system":"http://terminology.hl7.org/CodeSystem/encounter-type","code":"ADMS"}]}],"subject":{"reference":"Patient/2325213f-bec9-4fd9-9036-e8bf5d369e6c"},"period":{"start":"2022-05-19T00:00:00+00:00","end":"2022-05-23T00:00:00+00:00"}},"request":{"method":"POST","url":"Encounter"}},{"fullUrl":"Encounter/558f4872-d265-4e1f-9df1-ba421a90e9e6","resource":{"resourceType":"Encounter","id":"558f4872-d265-4e1f-9df1-ba421a90e9e6","status":"finished","class":{"system":"http://terminology.hl7.org/CodeSystem/v3-ActCode","code":"IMP","display":"inpatient encounter"},"type":[{"coding":[{"system":"http://terminology.hl7.org/CodeSystem/encounter-type","code":"ADMS"}]}],"subject":{"reference":"Patient/2325213f-bec9-4fd9-9036-e8bf5d369e6c"},"period":{"start":"2022-06-20T00:00:00+00:00","end":"2022-06-26T00:00:00+00:00"}},"request":{"method":"POST","url":"Encounter"}},{"fullUrl":"Patient/75cfbc71-0e3f-4a9b-853b-fb3804c45bcd","resource":{"resourceType":"Patient","id":"75cfbc71-0e3f-4a9b-853b-fb3804c45bcd","identifier":[{"type":{"coding":[{"system":"http://terminology.hl7.org/CodeSystem/v2-0203","code":"MR"}]},"system":"urn:fhirgen:mrn","value":"070-44-4720"}],"name":[{"family":"Brandt","given":["Donna"]}],"telecom":[{"system":"phone","value":"(901)722-9086x2383","use":"home"}],"gender":"female","birthDate":"1993-04-13","address":[{"line":["120 Kenneth Knoll"],"city":"South Jefferymouth","state":"Iowa","postalCode":"87558"}]},"request":{"method":"POST","url":"Patient"}},{"fullUrl":"Observation/afffe275-86a8-42c9-8b2e-b2b683da5860","resource":{"resourceType":"Observation","id":"afffe275-86a8-42c9-8b2e-b2b683da5860","status":"final","code":{"coding":[{"system":"http://loinc.org","code":"31146-4"}]},"subject":{"reference":"Patient/75cfbc71-0e3f-4a9b-853b-fb3804c45bcd"},"effectiveDateTime":"2022-07-02T00:00:00+00:00","valueRatio":{"numerator":{"value":1},"denominator":{"value":32}}},"request":{"method":"POST","url":"Observation"}},{"fullUrl":"Observation/04fb1e3e-55d6-4e3a-89d6-51c70881e9e4","resource":{"resourceType":"Observation","id":"04fb1e3e-55d6-4e3a-89d6-51c70881e9e4","status":"final","code":{"coding":[{"system":"http://loinc.org","code":"51475-2"}]},"subject":{"reference":"Patient/75cfbc71-0e3f-4a9b-853b-fb3804c45bcd"},"effectiveDateTime":"2022-08-07T00:00:00+00:00","valueRatio":{"numerator":{"value":1},"denominator":{"value":32}}},"request":{"method":"POST","url":"Observation"}},{"fullUrl":"Observation/063ee1f5-ef68-4b65-98a9-f857c9d09cbf","resource":{"resourceType":"Observation","id":"063ee1f5-ef68-4b65-98a9-f857c9d09cbf","status":"final","code":{"coding":[{"system":"http://loinc.org","code":"47235-7"}]},"subject":{"reference":"Patient/75cfbc71-0e3f-4a9b-853b-fb3804c45bcd"},"effectiveDateTime":"2022-07-26T00:00:00+00:00","valueRatio":{"numerator":{"value":1},"denominator":{"value":4}}},"request":{"method":"POST","url":"Observation"}},{"fullUrl":"Condition/11573c1e-15e2-44c2-a789-fe3b0fa4b9e7","resource":{"resourceType":"Condition","id":"11573c1e-15e2-44c2-a789-fe3b0fa4b9e7","code":{"coding":[{"system":"http://snomed.info/sct","code":"79342006"}]},"subject":{"reference":"Patient/75cfbc71-0e3f-4a9b-853b-fb3804c45bcd"},"onsetDateTime":"2022-12-01T00:00:00+00:00"},"request":{"method":"POST","url":"Condition"}},{"fullUrl":"Condition/d0d5f503-bedf-48ed-a505-336ddffc8b7b","resource":{"resourceType":"Condition","id":"d0d5f503-bedf-48ed-a505-336ddffc8b7b","code":{"coding":[{"system":"http://snomed.info/sct","code":"56317004"}]},"subject":{"reference":"Patient/75cfbc71-0e3f-4a9b-853b-fb3804c45bcd"},"onsetDateTime":"2022-04-17T00:00:00+00:00"},"request":{"method":"POST","url":"Condition"}},{"fullUrl":"Condition/bff8525b-8952-4d54-9c09-5f80b06a0d55","resource":{"resourceType":"Condition","id":"bff8525b-8952-4d54-9c09-5f80b06a0d55","code":{"coding":[{"system":"http://snomed.info/sct","code":"405737000"}]},"subject":{"reference":"Patient/75cfbc71-0e3f-4a9b-853b-fb3804c45bcd"},"onsetDateTime":"2022-07-13T00:00:00+00:00"},"request":{"method":"POST","url":"Condition"}},{"fullUrl":"Condition/c340e68a-e5ed-4929-b65b-0b0072dae60f","resource":{"resourceType":"Condition","id":"c340e68a-e5ed-4929-b65b-0b0072dae60f","code":{"coding":[{"system":"http://snomed.info/sct","code":"271939006"}]},"subject":{"reference":"Patient/75cfbc71-0e3f-4a9b-853b-fb3804c45bcd"},"onsetDateTime":"2022-04-15T00:00:00+00:00"},"request":{"method":"POST","url":"Condition"}},{"fullUrl":"Condition/84aca872-afea-4e99-9b5d-31051c88b200","resource":{"resourceType":"Condition","id":"84aca872-afea-4e99-9b5d-31051c88b200","code":{"coding":[{"system":"http://snomed.info/sct","code":"271939006"}]},"subject":{"reference":"Patient/75cfbc71-0e3f-4a9b-853b-fb3804c45bcd"},"onsetDateTime":"2022-04-27T00:00:00+00:00"},"request":{"method":"POST","url":"Condition"}},{"fullUrl":"Observation/8a8d0a00-4427-4827-a48d-c9e710b9d6d7","resource":{"resourceType":"Observation","id":"8a8d0a00-4427-4827-a48d-c9e710b9d6d7","status":"final","code":{"coding":[{"system":"http://loinc.org","code":"26464-8"}]},"subject":{"reference":"Patient/75cfbc71-0e3f-4a9b-853b-fb3804c45bcd"},"effectiveDateTime":"2022-10-15T00:00:00+00:00","valueQuantity":{"value":4.8}},"request":{"method":"POST","url":"Observation"}},{"fullUrl":"Observation/a5dbe46d-4708-44ca-a324-d4125a4c425d","resource":{"resourceType":"Observation","id":"a5dbe46d-4708-44ca-a324-d4125a4c425d","status":"final","code":{"coding":[{"system":"http://www.ama-assn.org/go/cpt","code":"85048"}]},"subject":{"reference":"Patient/75cfbc71-0e3f-4a9b-853b-fb3804c45bcd"},"effectiveDateTime":"2022-10-07T00:00:00+00:00","valueQuantity":{"value":6.1}},"request":{"method":"POST","url":"Observation"}},{"fullUrl":"Observation/4c556755-fd06-429e-a9a6-b1351f5caa33","resource":{"resourceType":"Observation","id":"4c556755-fd06-429e-a9a6-b1351f5caa33","status":"final","code":{"coding":[{"system":"http://loinc.org","code":"49498-9"}]},"subject":{"reference":"Patient/75cfbc71-0e3f-4a9b-853b-fb3804c45bcd"},"effectiveDateTime":"2022-10-26T00:00:00+00:00"},"request":{"method":"POST","url":"Observation"}},{"fullUrl":"Observation/74d03105-5810-49ff-9a65-f31e050c6634","resource":{"resourceType":"Observation","id":"74d03105-5810-49ff-9a65-f31e050c6634","status":"final","code":{"coding":[{"system":"http://loinc.org","code":"49498-9"}]},"subject":{"reference":"Patient/75cfbc71-0e3f-4a9b-853b-fb3804c45bcd"},"effectiveDateTime":"2022-07-22T00:00:00+00:00"},"request":{"method":"POST","url":"Observation"}},{"fullUrl":"Observation/a8676b9a-b3fc-42e9-bc00-2845f41bf746","resource":{"resourceType":"Observation","id":"a8676b9a-b3fc-42e9-bc00-2845f41bf746","status":"final","code":{"coding":[{"system":"http://loinc.org","code":"49498-9"}]},"subject":{"reference":"Patient/75cfbc71-0e3f-4a9b-853b-fb3804c45bcd"},"effectiveDateTime":"2022-01-08T00:00:00+00:00"},"request":{"method":"POST","url":"Observation"}},{"fullUrl":"Procedure/659ac9cc-ca60-4319-89ed-0d4fa4ca6598","resource":{"resourceType":"Procedure","id":"659ac9cc-ca60-4319-89ed-0d4fa4ca6598","status":"completed","code":{"coding":[{"system":"http://snomed.info/sct","code":"146005"}]},"subject":{"reference":"Patient/75cfbc71-0e3f-4a9b-853b-fb3804c45bcd"},"performedDateTime":"2022-12-11T00:00:00+00:00"},"request":{"method":"POST","url":"Procedure"}},{"fullUrl":"Procedure/60c6bb70-c6e4-4fbf-a81f-e0e5597e1439","resource":{"resourceType":"Procedure","id":"60c6bb70-c6e4-4fbf-a81f-e0e5597e1439","status":"completed","code":{"coding":[{"system":"http://snomed.info/sct","code":"189009"}]},"subject":{"reference":"Patient/75cfbc71-0e3f-4a9b-853b-fb3804c45bcd"},"performedDateTime":"2022-07-25T00:00:00+00:00"},"request":{"method":"POST","url":"Procedure"}},{"fullUrl":"Procedure/0acf9259-b5c8-462e-b945-6b3cce6b4b7e","resource":{"resourceType":"Procedure","id":"0acf9259-b5c8-462e-b945-6b3cce6b4b7e","status":"completed","code":{"coding":[{"system":"http://snomed.info/sct","code":"115006"}]},"subject":{"reference":"Patient/75cfbc71-0e3f-4a9b-853b-fb3804c45bcd"},"performedDateTime":"2022-05-12T00:00:00+00:00"},"request":{"method":"POST","url":"Procedure"}},{"fullUrl":"MedicationStatement/c4fa509f-f4ba-4282-a62a-fd96802ae48b","resource":{"resourceType":"MedicationStatement","id":"c4fa509f-f4ba-4282-a62a-fd96802ae48b","status":"completed","medicationCodeableConcept":{"coding":[{"system":"http://www.nlm.nih.gov/research/umls/rxnorm","code":"7984"}]},"subject":{"reference":"Patient/75cfbc71-0e3f-4a9b-853b-fb3804c45bcd"},"effectiveDateTime":"2022-06-03T00:00:00+00:00","dosage":[{"doseAndRate":[{"doseQuantity":{"value":2,"unit":"TAB","system":"http://terminology.hl7.org/CodeSystem/v3-orderableDrugForm","code":"TAB"}}]}]},"request":{"method":"POST","url":"MedicationStatement"}},{"fullUrl":"MedicationStatement/86bf2877-6cac-40e0-b1d7-4bd23c6793ba","resource":{"resourceType":"MedicationStatement","id":"86bf2877-6cac-40e0-b1d7-4bd23c6793ba","status":"completed","medicationCodeableConcept":{"coding":[{"system":"http://www.nlm.nih.gov/research/umls/rxnorm","code":"10395"}]},"subject":{"reference":"Patient/75cfbc71-0e3f-4a9b-853b-fb3804c45bcd"},"effectiveDateTime":"2022-04-03T00:00:00+00:00","dosage":[{"doseAndRate":[{"doseQuantity":{"value":1,"unit":"TAB","system":"http://terminology.hl7.org/CodeSystem/v3-orderableDrugForm","code":"TAB"}}]}]},"request":{"method":"POST","url":"MedicationStatement"}},{"fullUrl":"MedicationStatement/60a7ca9e-2751-4fc1-9375-1c0fafd7f9e3","resource":{"resourceType":"MedicationStatement","id":"60a7ca9e-2751-4fc1-9375-1c0fafd7f9e3","status":"completed","medicationCodeableConcept":{"coding":[{"system":"http://www.nlm.nih.gov/research/umls/rxnorm","code":"3640"}]},"subject":{"reference":"Patient/75cfbc71-0e3f-4a9b-853b-fb3804c45bcd"},"effectiveDateTime":"2022-03-18T00:00:00+00:00","dosage":[{"doseAndRate":[{"doseQuantity":{"value":1,"unit":"TAB","system":"http://terminology.hl7.org/CodeSystem/v3-orderableDrugForm","code":"TAB"}}]}]},"request":{"method":"POST","url":"MedicationStatement"}},{"fullUrl":"MedicationStatement/3f6fcd5c-9f6d-45ca-9c66-5fd8fab8e420","resource":{"resourceType":"MedicationStatement","id":"3f6fcd5c-9f6d-45ca-9c66-5fd8fab8e420","status":"completed","medicationCodeableConcept":{"coding":[{"system":"http://www.nlm.nih.gov/research/umls/rxnorm","code":"2193"}]},"subject":{"reference":"Patient/75cfbc71-0e3f-4a9b-853b-fb3804c45bcd"},"effectiveDateTime":"2022-10-29T00:00:00+00:00","dosage":[{"doseAndRate":[{"doseQuantity":{"value":2,"unit":"TAB","system":"http://terminology.hl7.org/CodeSystem/v3-orderableDrugForm","code":"TAB"}}]}]},"request":{"method":"POST","url":"MedicationStatement"}},{"fullUrl":"MedicationStatement/545df1bb-f02d-45d8-961c-ff64d839c567","resource":{"resourceType":"MedicationStatement","id":"545df1bb-f02d-45d8-961c-ff64d839c567","status":"completed","medicationCodeableConcept":{"coding":[{"system":"http://www.nlm.nih.gov/research/umls/rxnorm","code":"7980"}]},"subject":{"reference":"Patient/75cfbc71-0e3f-4a9b-853b-fb3804c45bcd"},"effectiveDateTime":"2022-04-03T00:00:00+00:00","dosage":[{"doseAndRate":[{"doseQuantity":{"value":2,"unit":"TAB","system":"http://terminology.hl7.org/CodeSystem/v3-orderableDrugForm","code":"TAB"}}]}]},"request":{"method":"POST","url":"MedicationStatement"}},{"fullUrl":"MedicationStatement/1832e1c4-baa4-4327-857e-2d8303423023","resource":{"resourceType":"MedicationStatement","id":"1832e1c4-baa4-4327-857e-2d8303423023","status":"completed","medicationCodeableConcept":{"coding":[{"system":"http://www.nlm.nih.gov/research/umls/rxnorm","code":"3640"}]},"subject":{"reference":"Patient/75cfbc71-0e3f-4a9b-853b-fb3804c45bcd"},"effectiveDateTime":"2022-08-04T00:00:00+00:00","dosage":[{"doseAndRate":[{"doseQuantity":{"value":1,"unit":"TAB","system":"http://terminology.hl7.org/CodeSystem/v3-orderableDrugForm","code":"TAB"}}]}]},"request":{"method":"POST","url":"MedicationStatement"}},{"fullUrl":"MedicationStatement/fa890765-931b-4781-8454-0f4957a28046","resource":{"resourceType":"MedicationStatement","id":"fa890765-931b-4781-8454-0f4957a28046","status":"completed","medicationCodeableConcept":{"coding":[{"system":"http://www.nlm.nih.gov/research/umls/rxnorm","code":"7980"}]},"subject":{"reference":"Patient/75cfbc71-0e3f-4a9b-853b-fb3804c45bcd"},"effectiveDateTime":"2022-09-23T00:00:00+00:00","dosage":[{"doseAndRate":[{"doseQuantity":{"value":2,"unit":"TAB","system":"http://terminology.hl7.org/CodeSystem/v3-orderableDrugForm","code":"TAB"}}]}]},"request":{"method":"POST","url":"MedicationStatement"}},{"fullUrl":"MedicationStatement/43313437-c4e4-40c6-8d85-a444c8052ce1","resource":{"resourceType":"MedicationStatement","id":"43313437-c4e4-40c6-8d85-a444c8052ce1","status":"completed","medicationCodeableConcept":{"coding":[{"system":"http://www.nlm.nih.gov/research/umls/rxnorm","code":"2193"}]},"subject":{"reference":"Patient/75cfbc71-0e3f-4a9b-853b-fb3804c45bcd"},"effectiveDateTime":"2022-05-04T00:00:00+00:00","dosage":[{"doseAndRate":[{"doseQuantity":{"value":3.7,"unit":"TAB","system":"http://terminology.hl7.org/CodeSystem/v3-orderableDrugForm","code":"TAB"}}]}]},"request":{"method":"POST","url":"MedicationStatement"}},{"fullUrl":"MedicationStatement/366b8e1b-f984-4cc3-8efa-369308db5566","resource":{"resourceType":"MedicationStatement","id":"366b8e1b-f984-4cc3-8efa-369308db5566","status":"completed","medicationCodeableConcept":{"coding":[{"system":"http://www.nlm.nih.gov/research/umls/rxnorm","code":"2193"}]},"subject":{"reference":"Patient/75cfbc71-0e3f-4a9b-853b-fb3804c45bcd"},"effectiveDateTime":"2022-05-22T00:00:00+00:00","dosage":[{"doseAndRate":[{"doseQuantity":{"value":3.8,"unit":"TAB","system":"http://terminology.hl7.org/CodeSystem/v3-orderableDrugForm","code":"TAB"}}]}]},"request":{"method":"POST","url":"MedicationStatement"}},{"fullUrl":"MedicationStatement/4d54a055-3e6a-4dfc-9380-83a0a7f4f53d","resource":{"resourceType":"MedicationStatement","id":"4d54a055-3e6a-4dfc-9380-83a0a7f4f53d","status":"completed","medicationCodeableConcept":{"coding":[{"system":"http://www.nlm.nih.gov/research/umls/rxnorm","code":"7980"}]},"subject":{"reference":"Patient/75cfbc71-0e3f-4a9b-853b-fb3804c45bcd"},"effectiveDateTime":"2022-02-23T00:00:00+00:00","dosage":[{"doseAndRate":[{"doseQuantity":{"value":6,"unit":"TAB","system":"http://terminology.hl7.org/CodeSystem/v3-orderableDrugForm","code":"TAB"}}]}]},"request":{"method":"POST","url":"MedicationStatement"}},{"fullUrl":"MedicationStatement/583af229-114f-433f-8bd8-3d33b14233da","resource":{"resourceType":"MedicationStatement","id":"583af229-114f-433f-8bd8-3d33b14233da","status":"completed","medicationCodeableConcept":{"coding":[{"system":"http://www.nlm.nih.gov/research/umls/rxnorm","code":"3640"}]},"subject":{"reference":"Patient/75cfbc71-0e3f-4a9b-853b-fb3804c45bcd"},"effectiveDateTime":"2022-07-09T00:00:00+00:00","dosage":[{"doseAndRate":[{"doseQuantity":{"value":3.6,"unit":"TAB","system":"http://terminology.hl7.org/CodeSystem/v3-orderableDrugForm","code":"TAB"}}]}]},"request":{"method":"POST","url":"MedicationStatement"}},{"fullUrl":"MedicationStatement/ff75bc6a-e79c-40f4-9d02-0826a6f72a75","resource":{"resourceType":"MedicationStatement","id":"ff75bc6a-e79c-40f4-9d02-0826a6f72a75","status":"completed","medicationCodeableConcept":{"coding":[{"system":"http://www.nlm.nih.gov/research/umls/rxnorm","code":"10395"}]},"subject":{"reference":"Patient/75cfbc71-0e3f-4a9b-853b-fb3804c45bcd"},"effectiveDateTime":"2022-04-08T00:00:00+00:00","dosage":[{"doseAndRate":[{"doseQuantity":{"value":6.9,"unit":"TAB","system":"http://terminology.hl7.org/CodeSystem/v3-orderableDrugForm","code":"TAB"}}]}]},"request":{"method":"POST","url":"MedicationStatement"}},{"fullUrl":"MedicationStatement/67714830-f09f-4799-bd70-a18c7d8d615a","resource":{"resourceType":"MedicationStatement","id":"67714830-f09f-4799-bd70-a18c7d8d615a","status":"completed","medicationCodeableConcept":{"coding":[{"system":"http://www.nlm.nih.gov/research/umls/rxnorm","code":"3640"}]},"subject":{"reference":"Patient/75cfbc71-0e3f-4a9b-853b-fb3804c45bcd"},"effectiveDateTime":"2022-10-09T00:00:00+00:00","dosage":[{"doseAndRate":[{"doseQuantity":{"value":4.7,"unit":"TAB","system":"http://terminology.hl7.org/CodeSystem/v3-orderableDrugForm","code":"TAB"}}]}]},"request":{"method":"POST","url":"MedicationStatement"}},{"fullUrl":"MedicationStatement/ee7d2c78-cb05-4fdf-b3e4-0d517ce8a5e2","resource":{"resourceType":"MedicationStatement","id":"ee7d2c78-cb05-4fdf-b3e4-0d517ce8a5e2","status":"completed","medicationCodeableConcept":{"coding":[{"system":"http://www.nlm.nih.gov/research/umls/rxnorm","code":"7980"}]},"subject":{"reference":"Patient/75cfbc71-0e3f-4a9b-853b-fb3804c45bcd"},"effectiveDateTime":"2022-01-07T00:00:00+00:00","dosage":[{"doseAndRate":[{"doseQuantity":{"value":6.8,"unit":"TAB","system":"http://terminology.hl7.org/CodeSystem/v3-orderableDrugForm","code":"TAB"}}]}]},"request":{"method":"POST","url":"MedicationStatement"}},{"fullUrl":"MedicationStatement/5d864f85-fbca-45d2-8e74-54263cfb8812","resource":{"resourceType":"MedicationStatement","id":"5d864f85-fbca-45d2-8e74-54263cfb8812","status":"completed","medicationCodeableConcept":{"coding":[{"system":"http://www.nlm.nih.gov/research/umls/rxnorm","code":"3640"}]},"subject":{"reference":"Patient/75cfbc71-0e3f-4a9b-853b-fb3804c45bcd"},"effectiveDateTime":"2022-03-24T00:00:00+00:00","dosage":[{"doseAndRate":[{"doseQuantity":{"value":4.6,"unit":"TAB","system":"http://terminology.hl7.org/CodeSystem/v3-orderableDrugForm","code":"TAB"}}]}]},"request":{"method":"POST","url":"MedicationStatement"}},{"fullUrl":"Encounter/8c62c06c-04ac-42b6-a968-2549619b54d9","resource":{"resourceType":"Encounter","id":"8c62c06c-04ac-42b6-a968-2549619b54d9","status":"finished","class":{"system":"http://terminology.hl7.org/CodeSystem/v3-ActCode","code":"IMP","display":"inpatient encounter"},"type":[{"coding":[{"system":"http://terminology.hl7.org/CodeSystem/encounter-type","code":"CCS60"}]}],"subject":{"reference":"Patient/75cfbc71-0e3f-4a9b-853b-fb3804c45bcd"},"period":{"start":"2022-05-29T00:00:00+00:00","end":"2022-06-07T00:00:00+00:00"}},"request":{"method":"POST","url":"Encounter"}},{"fullUrl":"Encounter/c5072c0b-6329-4ab0-ab1b-36301fcdabb0","resource":{"resourceType":"Encounter","id":"c5072c0b-6329-4ab0-ab1b-36301fcdabb0","status":"finished","class":{"system":"http://terminology.hl7.org/CodeSystem/v3-ActCode","code":"IMP","display":"inpatient encounter"},"type":[{"coding":[{"system":"http://terminology.hl7.org/CodeSystem/encounter-type","code":"ADMS"}]}],"subject":{"reference":"Patient/75cfbc71-0e3f-4a9b-853b-fb3804c45bcd"},"period":{"start":"2022-04-29T00:00:00+00:00","end":"2022-04-29T00:00:00+00:00"}},"request":{"method":"POST","url":"Encounter"}},{"fullUrl":"Encounter/caf82692-f4c5-4626-9e09-7d677bc21bb3","resource":{"resourceType":"Encounter","id":"caf82692-f4c5-4626-9e09-7d677bc21bb3","status":"finished","class":{"system":"http://terminology.hl7.org/CodeSystem/v3-ActCode","code":"OBSENC","display":"observation encounter"},"type":[{"coding":[{"system":"http://terminology.hl7.org/CodeSystem/encounter-type","code":"CCS60"}]}],"subject":{"reference":"Patient/75cfbc71-0e3f-4a9b-853b-fb3804c45bcd"},"period":{"start":"2022-09-07T00:00:00+00:00","end":"2022-09-16T00:00:00+00:00"}},"request":{"method":"POST","url":"Encounter"}},{"fullUrl":"Encounter/4baab18b-1e98-4aff-8ce4-197960044618","resource":{"resourceType":"Encounter","id":"4baab18b-1e98-4aff-8ce4-197960044618","status":"finished","class":{"system":"http://terminology.hl7.org/CodeSystem/v3-ActCode","code":"PRENC","display":"pre-admission"},"type":[{"coding":[{"system":"http://terminology.hl7.org/CodeSystem/encounter-type","code":"BD/BM-clin"}]}],"subject":{"reference":"Patient/75cfbc71-0e3f-4a9b-853b-fb3804c45bcd"},"period":{"start":"2022-10-09T00:00:00+00:00","end":"2022-10-15T00:00:00+00:00"}},"request":{"method":"POST","url":"Encounter"}},{"fullUrl":"Patient/129533e2-46cb-4ea7-a250-8485f23745d9","resource":{"resourceType":"Patient","id":"129533e2-46cb-4ea7-a250-8485f23745d9","identifier":[{"type":{"coding":[{"system":"http://terminology.hl7.org/CodeSystem/v2-0203","code":"MR"}]},"system":"urn:fhirgen:mrn","value":"047-73-5904"}],"name":[{"family":"Pearson","given":["Elizabeth"]}],"telecom":[{"system":"phone","value":"001-537-294-9253x316","use":"home"}],"gender":"other","birthDate":"1945-02-26","address":[{"line":["755 Lewis Summit"],"city":"North Joanne","state":"Kentucky","postalCode":"69018"}]},"request":{"method":"POST","url":"Patient"}},{"fullUrl":"Observation/ff8cfdf1-30b4-487d-8ca9-766d48d041e4","resource":{"resourceType":"Observation","id":"ff8cfdf1-30b4-487d-8ca9-766d48d041e4","status":"final","code":{"coding":[{"system":"http://loinc.org","code":"11084-1"}]},"subject":{"reference":"Patient/129533e2-46cb-4ea7-a250-8485f23745d9"},"effectiveDateTime":"2022-04-10T00:00:00+00:00","valueRatio":{"numerator":{"value":1},"denominator":{"value":64}}},"request":{"method":"POST","url":"Observation"}},{"fullUrl":"Observation/bc7ded01-f410-4775-904a-9e3b4f76de74","resource":{"resourceType":"Observation","id":"bc7ded01-f410-4775-904a-9e3b4f76de74","status":"final","code":{"coding":[{"system":"http://loinc.org","code":"31146-4"}]},"subject":{"reference":"Patient/129533e2-46cb-4ea7-a250-8485f23745d9"},"effectiveDateTime":"2022-04-07T00:00:00+00:00","valueRatio":{"numerator":{"value":1},"denominator":{"value":64}}},"request":{"method":"POST","url":"Observation"}},{"fullUrl":"Condition/b4604a4f-cf28-4d94-a366-bd80c2aaf251","resource":{"resourceType":"Condition","id":"b4604a4f-cf28-4d94-a366-bd80c2aaf251","code":{"coding":[{"system":"http://snomed.info/sct","code":"386661006"}]},"subject":{"reference":"Patient/129533e2-46cb-4ea7-a250-8485f23745d9"},"onsetDateTime":"2022-09-18T00:00:00+00:00"},"request":{"method":"POST","url":"Condition"}},{"fullUrl":"Condition/a007ddfd-6dd8-4620-995b-b60a2c7b204e","resource":{"resourceType":"Condition","id":"a007ddfd-6dd8-4620-995b-b60a2c7b204e","code":{"coding":[{"system":"http://snomed.info/sct","code":"418290006"}]},"subject":{"reference":"Patient/129533e2-46cb-4ea7-a250-8485f23745d9"},"onsetDateTime":"2022-02-15T00:00:00+00:00"},"request":{"method":"POST","url":"Condition"}},{"fullUrl":"Condition/4a796710-bdda-4305-a10d-b96709fad5e2","resource":{"resourceType":"Condition","id":"4a796710-bdda-4305-a10d-b96709fad5e2","code":{"coding":[{"system":"http://snomed.info/sct","code":"271807003"}]},"subject":{"reference":"Patient/129533e2-46cb-4ea7-a250-8485f23745d9"},"onsetDateTime":"2022-02-20T00:00:00+00:00"},"request":{"method":"POST","url":"Condition"}},{"fullUrl":"Observation/09532dd1-66df-46e5-a8ed-e957091a362f","resource":{"resourceType":"Observation","id":"09532dd1-66df-46e5-a8ed-e957091a362f","status":"final","code":{"coding":[{"system":"http://loinc.org","code":"6690-2"}]},"subject":{"reference":"Patient/129533e2-46cb-4ea7-a250-8485f23745d9"},"effectiveDateTime":"2022-11-13T00:00:00+00:00","valueQuantity":{"value":6.9}},"request":{"method":"POST","url":"Observation"}},{"fullUrl":"Observation/db0d76b7-2027-40f1-930d-de2097a5fbf0","resource":{"resourceType":"Observation","id":"db0d76b7-2027-40f1-930d-de2097a5fbf0","status":"final","code":{"coding":[{"system":"http://loinc.org","code":"6690-2"}]},"subject":{"reference":"Patient/129533e2-46cb-4ea7-a250-8485f23745d9"},"effectiveDateTime":"2022-07-27T00:00:00+00:00","valueQuantity":{"value":4.9}},"request":{"method":"POST","url":"Observation"}},{"fullUrl":"Observation/1d9623e1-b823-4e46-9ae0-47ca5331ced1","resource":{"resourceType":"Observation","id":"1d9623e1-b823-4e46-9ae0-47ca5331ced1","status":"final","code":{"coding":[{"system":"http://loinc.org","code":"49498-9"}]},"subject":{"reference":"Patient/129533e2-46cb-4ea7-a250-8485f23745d9"},"effectiveDateTime":"2022-10-10T00:00:00+00:00"},"request":{"method":"POST","url":"Observation"}},{"fullUrl":"Observation/a8a6ed71-629e-4681-9973-14329c942c70","resource":{"resourceType":"Observation","id":"a8a6ed71-629e-4681-9973-14329c942c70","status":"final","code":{"coding":[{"system":"http://loinc.org","code":"49498-9"}]},"subject":{"reference":"Patient/129533e2-46cb-4ea7-a250-8485f23745d9"},"effectiveDateTime":"2022-10-06T00:00:00+00:00"},"request":{"method":"POST","url":"Observation"}},{"fullUrl":"Procedure/ea1bb387-aaee-446e-8241-aa34662eabe6","resource":{"resourceType":"Procedure","id":"ea1bb387-aaee-446e-8241-aa34662eabe6","status":"completed","code":{"coding":[{"system":"http://snomed.info/sct","code":"115006"}]},"subject":{"reference":"Patient/129533e2-46cb-4ea7-a250-8485f23745d9"},"performedDateTime":"2022-11-27T00:00:00+00:00"},"request":{"method":"POST","url":"Procedure"}},{"fullUrl":"Procedure/02182ef4-0f4b-4443-be9b-0d0cae8ad531","resource":{"resourceType":"Procedure","id":"02182ef4-0f4b-4443-be9b-0d0cae8ad531","status":"completed","code":{"coding":[{"system":"http://snomed.info/sct","code":"115006"}]},"subject":{"reference":"Patient/129533e2-46cb-4ea7-a250-8485f23745d9"},"performedDateTime":"2022-12-23T00:00:00+00:00"},"request":{"method":"POST","url":"Procedure"}},{"fullUrl":"Procedure/0aa1d7b5-80b5-4cf7-ba54-81b9ddf30e85","resource":{"resourceType":"Procedure","id":"0aa1d7b5-80b5-4cf7-ba54-81b9ddf30e85","status":"completed","code":{"coding":[{"system":"http://snomed.info/sct","code":"146005"}]},"subject":{"reference":"Patient/129533e2-46cb-4ea7-a250-8485f23745d9"},"performedDateTime":"2022-03-26T00:00:00+00:00"},"request":{"method":"POST","url":"Procedure"}},{"fullUrl":"MedicationStatement/b5a51cf0-eb03-4ac6-bf36-e6b9d5986073","resource":{"resourceType":"MedicationStatement","id":"b5a51cf0-eb03-4ac6-bf36-e6b9d5986073","status":"completed","medicationCodeableConcept":{"coding":[{"system":"http://www.nlm.nih.gov/research/umls/rxnorm","code":"7984"}]},"subject":{"reference":"Patient/129533e2-46cb-4ea7-a250-8485f23745d9"},"effectiveDateTime":"2022-12-25T00:00:00+00:00","dosage":[{"doseAndRate":[{"doseQuantity":{"value":1,"unit":"TAB","system":"http://terminology.hl7.org/CodeSystem/v3-orderableDrugForm","code":"TAB"}}]}]},"request":{"method":"POST","url":"MedicationStatement"}},{"fullUrl":"MedicationStatement/aefa1290-7920-4d85-a2d3-a0af72530230","resource":{"resourceType":"MedicationStatement","id":"aefa1290-7920-4d85-a2d3-a0af72530230","status":"completed","medicationCodeableConcept":{"coding":[{"system":"http://www.nlm.nih.gov/research/umls/rxnorm","code":"8698"}]},"subject":{"reference":"Patient/129533e2-46cb-4ea7-a250-8485f23745d9"},"effectiveDateTime":"2022-04-01T00:00:00+00:00","dosage":[{"doseAndRate":[{"doseQuantity":{"value":1,"unit":"TAB","system":"http://terminology.hl7.org/CodeSystem/v3-orderableDrugForm","code":"TAB"}}]}]},"request":{"method":"POST","url":"MedicationStatement"}},{"fullUrl":"MedicationStatement/5417f330-f0ed-477e-b344-0383000064d2","resource":{"resourceType":"MedicationStatement","id":"5417f330-f0ed-477e-b344-0383000064d2","status":"completed","medicationCodeableConcept":{"coding":[{"system":"http://www.nlm.nih.gov/research/umls/rxnorm","code":"7980"}]},"subject":{"reference":"Patient/129533e2-46cb-4ea7-a250-8485f23745d9"},"effectiveDateTime":"2022-07-05T00:00:00+00:00","dosage":[{"doseAndRate":[{"doseQuantity":{"value":2,"unit":"TAB","system":"http://terminology.hl7.org/CodeSystem/v3-orderableDrugForm","code":"TAB"}}]}]},"request":{"method":"POST","url":"MedicationStatement"}},{"fullUrl":"MedicationStatement/d027b4a9-5078-468e-a1c5-b5e2633e654e","resource":{"resourceType":"MedicationStatement","id":"d027b4a9-5078-468e-a1c5-b5e2633e654e","status":"completed","medicationCodeableConcept":{"coding":[{"system":"http://www.nlm.nih.gov/research/umls/rxnorm","code":"8698"}]},"subject":{"reference":"Patient/129533e2-46cb-4ea7-a250-8485f23745d9"},"effectiveDateTime":"2022-05-18T00:00:00+00:00","dosage":[{"doseAndRate":[{"doseQuantity":{"value":1,"unit":"TAB","system":"http://terminology.hl7.org/CodeSystem/v3-orderableDrugForm","code":"TAB"}}]}]},"request":{"method":"POST","url":"MedicationStatement"}},{"fullUrl":"MedicationStatement/05b0e935-74c6-4dc8-b5a6-5c53f4bfc52e","resource":{"resourceType":"MedicationStatement","id":"05b0e935-74c6-4dc8-b5a6-5c53f4bfc52e","status":"completed","medicationCodeableConcept":{"coding":[{"system":"http://www.nlm.nih.gov/research/umls/rxnorm","code":"10395"}]},"subject":{"reference":"Patient/129533e2-46cb-4ea7-a250-8485f23745d9"},"effectiveDateTime":"2022-12-01T00:00:00+00:00","dosage":[{"doseAndRate":[{"doseQuantity":{"value":6.2,"unit":"TAB","system":"http://terminology.hl7.org/CodeSystem/v3-orderableDrugForm","code":"TAB"}}]}]},"request":{"method":"POST","url":"MedicationStatement"}},{"fullUrl":"MedicationStatement/5254e4d0-f66e-45f7-95de-9db4312f5245","resource":{"resourceType":"MedicationStatement","id":"5254e4d0-f66e-45f7-95de-9db4312f5245","status":"completed","medicationCodeableConcept":{"coding":[{"system":"http://www.nlm.nih.gov/research/umls/rxnorm","code":"8698"}]},"subject":{"reference":"Patient/129533e2-46cb-4ea7-a250-8485f23745d9"},"effectiveDateTime":"2022-02-23T00:00:00+00:00","dosage":[{"doseAndRate":[{"doseQuantity":{"value":6.4,"unit":"TAB","system":"http://terminology.hl7.org/CodeSystem/v3-orderableDrugForm","code":"TAB"}}]}]},"request":{"method":"POST","url":"MedicationStatement"}},{"fullUrl":"MedicationStatement/36d638a7-2e5a-4875-b66e-4601adc3dd62","resource":{"resourceType":"MedicationStatement","id":"36d638a7-2e5a-4875-b66e-4601adc3dd62","status":"completed","medicationCodeableConcept":{"coding":[{"system":"http://www.nlm.nih.gov/research/umls/rxnorm","code":"7980"}]},"subject":{"reference":"Patient/129533e2-46cb-4ea7-a250-8485f23745d9"},"effectiveDateTime":"2022-12-10T00:00:00+00:00","dosage":[{"doseAndRate":[{"doseQuantity":{"value":6,"unit":"TAB","system":"http://terminology.hl7.org/CodeSystem/v3-orderableDrugForm","code":"TAB"}}]}]},"request":{"method":"POST","url":"MedicationStatement"}},{"fullUrl":"Encounter/e752c110-7c8d-42b2-930c-7f7c32c2a765","resource":{"resourceType":"Encounter","id":"e752c110-7c8d-42b2-930c-7f7c32c2a765","status":"finished","class":{"system":"http://terminology.hl7.org/CodeSystem/v3-ActCode","code":"IMP","display":"inpatient encounter"},"type":[{"coding":[{"system":"http://terminology.hl7.org/CodeSystem/encounter-type","code":"ADMS"}]}],"subject":{"reference":"Patient/129533e2-46cb-4ea7-a250-8485f23745d9"},"period":{"start":"2022-01-21T00:00:00+00:00","end":"2022-01-25T00:00:00+00:00"}},"request":{"method":"POST","url":"Encounter"}},{"fullUrl":"Encounter/2b5f145c-d56c-4aff-a87e-d18c7b94e416","resource":{"resourceType":"Encounter","id":"2b5f145c-d56c-4aff-a87e-d18c7b94e416","status":"finished","class":{"system":"http://terminology.hl7.org/CodeSystem/v3-ActCode","code":"IMP","display":"inpatient encounter"},"type":[{"coding":[{"system":"http://terminology.hl7.org/CodeSystem/encounter-type","code":"CCS60"}]}],"subject":{"reference":"Patient/129533e2-46cb-4ea7-a250-8485f23745d9"},"period":{"start":"2022-08-19T00:00:00+00:00","end":"2022-08-21T00:00:00+00:00"}},"request":{"method":"POST","url":"Encounter"}},{"fullUrl":"Encounter/79ab09e0-5e12-43c5-a052-47b8c7e1c08f","resource":{"resourceType":"Encounter","id":"79ab09e0-5e12-43c5-a052-47b8c7e1c08f","status":"finished","class":{"system":"http://terminology.hl7.org/CodeSystem/v3-ActCode","code":"IMP","display":"inpatient encounter"},"type":[{"coding":[{"system":"http://terminology.hl7.org/CodeSystem/encounter-type","code":"OKI"}]}],"subject":{"reference":"Patient/129533e2-46cb-4ea7-a250-8485f23745d9"},"period":{"start":"2022-10-06T00:00:00+00:00","end":"2022-10-10T00:00:00+00:00"}},"request":{"method":"POST","url":"Encounter"}},{"fullUrl":"Encounter/bd00ac61-68b8-4a02-846f-11337a9b9bca","resource":{"resourceType":"Encounter","id":"bd00ac61-68b8-4a02-846f-11337a9b9bca","status":"finished","class":{"system":"http://terminology.hl7.org/CodeSystem/v3-ActCode","code":"FLD","display":"field"},"type":[{"coding":[{"system":"http://terminology.hl7.org/CodeSystem/encounter-type","code":"CCS60"}]}],"subject":{"reference":"Patient/129533e2-46cb-4ea7-a250-8485f23745d9"},"period":{"start":"2022-05-10T00:00:00+00:00","end":"2022-05-19T00:00:00+00:00"}},"request":{"method":"POST","url":"Encounter"}},{"fullUrl":"Encounter/bf56e649-12d9-4a3a-a920-abc32fde4388","resource":{"resourceType":"Encounter","id":"bf56e649-12d9-4a3a-a920-abc32fde4388","status":"finished","class":{"system":"http://terminology.hl7.org/CodeSystem/v3-ActCode","code":"OBSENC","display":"observation encounter"},"type":[{"coding":[{"system":"http://terminology.hl7.org/CodeSystem/encounter-type","code":"CCS60"}]}],"subject":{"reference":"Patient/129533e2-46cb-4ea7-a250-8485f23745d9"},"period":{"start":"2022-01-18T00:00:00+00:00","end":"2022-01-27T00:00:00+00:00"}},"request":{"method":"POST","url":"Encounter"}},{"fullUrl":"Encounter/5d324235-8eb2-412c-88f1-7037c0cde917","resource":{"resourceType":"Encounter","id":"5d324235-8eb2-412c-88f1-7037c0cde917","status":"finished","class":{"system":"http://terminology.hl7.org/CodeSystem/v3-ActCode","code":"VR","display":"virtual"},"type":[{"coding":[{"system":"http://terminology.hl7.org/CodeSystem/encounter-type","code":"BD/BM-clin"}]}],"subject":{"reference":"Patient/129533e2-46cb-4ea7-a250-8485f23745d9"},"period":{"start":"2022-09-09T00:00:00+00:00","end":"2022-09-13T00:00:00+00:00"}},"request":{"method":"POST","url":"Encounter"}}]}