{"resourceType":"Bundle","id":"63527928-16cc-4be3-a892-8df09e698fe3","type":"transaction","entry":[{"fullUrl":"Patient/87cd6762-daed-4a16-a51f-e725cee3262e","resource":{"resourceType":"Patient","id":"87cd6762-daed-4a16-a51f-e725cee3262e","meta":{"profile":["http://hl7.org/fhir/us/core/StructureDefinition/us-core-patient"]},"identifier":[{"type":{"coding":[{"system":"http://terminology.hl7.org/CodeSystem/v2-0203","code":"MR"}]},"system":"urn:fhirgen:mrn","value":"497-91-8271"}],"name":[{"family":"Huynh","given":["Kenneth"]}],"gender":"male","birthDate":"1990-08-29","address":[{"line":["5767 Marc Station"],"city":"East Robert","state":"New York"}]},"request":{"method":"POST","url":"Patient"}},{"fullUrl":"Observation/73de4214-35a2-482c-aec9-529dec2d6fb6","resource":{"resourceType":"Observation","id":"73de4214-35a2-482c-aec9-529dec2d6fb6","status":"final","code":{"coding":[{"system":"http://loinc.org","code":"34382-2"}]},"subject":{"reference":"Patient/87cd6762-daed-4a16-a51f-e725cee3262e"},"effectiveDateTime":"2022-02-09T00:00:00+00:00","valueRatio":{"numerator":{"value":1.0},"denominator":{"value":32.0}}},"request":{"method":"POST","url":"Observation"}},{"fullUrl":"Observation/ed03a0c1-7247-4c82-8ade-bc33a2ef47b6","resource":{"resourceType":"Observation","id":"ed03a0c1-7247-4c82-8ade-bc33a2ef47b6","status":"final","code":{"coding":[{"system":"http://loinc.org","code":"50690-7"}]},"subject":{"reference":"Patient/87cd6762-daed-4a16-a51f-e725cee3262e"},"effectiveDateTime":"2022-03-22T00:00:00+00:00","valueRatio":{"numerator":{"value":1.0},"denominator":{"value":64.0}}},"request":{"method":"POST","url":"Observation"}},{"fullUrl":"Condition/2fa908e2-7c07-464b-8c59-ea3ea8b36ef0","resource":{"resourceType":"Condition","id":"2fa908e2-7c07-464b-8c59-ea3ea8b36ef0","code":{"coding":[{"system":"http://snomed.info/sct","code":"736686006"}]},"subject":{"reference":"Patient/87cd6762-daed-4a16-a51f-e725cee3262e"},"onsetDateTime":"2022-07-03T00:00:00+00:00"},"request":{"method":"POST","url":"Condition"}},{"fullUrl":"Condition/72eee045-569d-4c0a-94ca-3fb88b5ce734","resource":{"resourceType":"Condition","id":"72eee045-569d-4c0a-94ca-3fb88b5ce734","code":{"coding":[{"system":"http://snomed.info/sct","code":"31070006"}]},"subject":{"reference":"Patient/87cd6762-daed-4a16-a51f-e725cee3262e"},"onsetDateTime":"2022-07-30T00:00:00+00:00"},"request":{"method":"POST","url":"Condition"}},{"fullUrl":"Condition/0cb84cca-89c3-45c0-94ad-443e4c2de4a1","resource":{"resourceType":"Condition","id":"0cb84cca-89c3-45c0-94ad-443e4c2de4a1","code":{"coding":[{"system":"http://snomed.info/sct","code":"271807003"}]},"subject":{"reference":"Patient/87cd6762-daed-4a16-a51f-e725cee3262e"},"onsetDateTime":"2022-06-16T00:00:00+00:00"},"request":{"method":"POST","url":"Condition"}},{"fullUrl":"Condition/ce70d4d4-b121-4e88-abc0-6d24a49f55e9","resource":{"resourceType":"Condition","id":"ce70d4d4-b121-4e88-abc0-6d24a49f55e9","code":{"coding":[{"system":"http://snomed.info/sct","code":"418290006"}]},"subject":{"reference":"Patient/87cd6762-daed-4a16-a51f-e725cee3262e"},"onsetDateTime":"2022-06-30T00:00:00+00:00"},"request":{"method":"POST","url":"Condition"}},{"fullUrl":"Observation/b7f39205-4645-4ebe-b88b-3aa7d5d4889f","resource":{"resourceType":"Observation","id":"b7f39205-4645-4ebe-b88b-3aa7d5d4889f","status":"final","code":{"coding":[{"system":"http://loinc.org","code":"804-5"}]},"subject":{"reference":"Patient/87cd6762-daed-4a16-a51f-e725cee3262e"},"effectiveDateTime":"2022-07-10T00:00:00+00:00","valueQuantity":{"value":10.5}},"request":{"method":"POST","url":"Observation"}},{"fullUrl":"Observation/d616856b-5973-4a42-a934-3ddb4146e314","resource":{"resourceType":"Observation","id":"d616856b-5973-4a42-a934-3ddb4146e314","status":"final","code":{"coding":[{"system":"http://www.ama-assn.org/go/cpt","code":"85048"}]},"subject":{"reference":"Patient/87cd6762-daed-4a16-a51f-e725cee3262e"},"effectiveDateTime":"2022-11-19T00:00:00+00:00","valueQuantity":{"value":8.2}},"request":{"method":"POST","url":"Observation"}},{"fullUrl":"Observation/cf6ac281-b527-493f-9f66-6bb42eda28af","resource":{"resourceType":"Observation","id":"cf6ac281-b527-493f-9f66-6bb42eda28af","status":"final","code":{"coding":[{"system":"http://loinc.org","code":"6690-2"}]},"subject":{"reference":"Patient/87cd6762-daed-4a16-a51f-e725cee3262e"},"effectiveDateTime":"2022-06-06T00:00:00+00:00","valueQuantity":{"value":9.0}},"request":{"method":"POST","url":"Observation"}},{"fullUrl":"Patient/0e88ce0c-f337-4b6b-9178-c2405bed3672","resource":{"resourceType":"Patient","id":"0e88ce0c-f337-4b6b-9178-c2405bed3672","meta":{"profile":["http://hl7.org/fhir/us/core/StructureDefinition/us-core-patient"]},"identifier":[{"type":{"coding":[{"system":"http://terminology.hl7.org/CodeSystem/v2-0203","code":"MR"}]},"system":"urn:fhirgen:mrn","value":"629-76-5137"}],"name":[{"family":"Sanders","given":["Jermaine"]}],"gender":"male","birthDate":"1985-05-17","address":[{"line":["2477 Harmon Island"],"city":"Brettmouth","state":"Wyoming"}]},"request":{"method":"POST","url":"Patient"}},{"fullUrl":"Observation/8d2ed343-e603-4220-aa8c-a91a96fd7403","resource":{"resourceType":"Observation","id":"8d2ed343-e603-4220-aa8c-a91a96fd7403","status":"final","code":{"coding":[{"system":"http://loinc.org","code":"47235-7"}]},"subject":{"reference":"Patient/0e88ce0c-f337-4b6b-9178-c2405bed3672"},"effectiveDateTime":"2022-10-15T00:00:00+00:00","valueRatio":{"numerator":{"value":1.0},"denominator":{"value":32.0}}},"request":{"method":"POST","url":"Observation"}},{"fullUrl":"Observation/2e4ad470-8c51-46ac-b2fd-a46a861de4e5","resource":{"resourceType":"Observation","id":"2e4ad470-8c51-46ac-b2fd-a46a861de4e5","status":"final","code":{"coding":[{"system":"http://loinc.org","code":"47235-7"}]},"subject":{"reference":"Patient/0e88ce0c-f337-4b6b-9178-c2405bed3672"},"effectiveDateTime":"2022-01-22T00:00:00+00:00","valueRatio":{"numerator":{"value":1.0},"denominator":{"value":4.0}}},"request":{"method":"POST","url":"Observation"}},{"fullUrl":"Observation/bf66d597-d82f-4b8d-8731-740c406d75c7","resource":{"resourceType":"Observation","id":"bf66d597-d82f-4b8d-8731-740c406d75c7","status":"final","code":{"coding":[{"system":"http://loinc.org","code":"46203-6"}]},"subject":{"reference":"Patient/0e88ce0c-f337-4b6b-9178-c2405bed3672"},"effectiveDateTime":"2022-04-07T00:00:00+00:00","valueRatio":{"numerator":{"value":1.0},"denominator":{"value":64.0}}},"request":{"method":"POST","url":"Observation"}},{"fullUrl":"Condition/f218b749-0277-4d26-b36a-3e58dd5f350f","resource":{"resourceType":"Condition","id":"f218b749-0277-4d26-b36a-3e58dd5f350f","code":{"coding":[{"system":"http://snomed.info/sct","code":"71315007"}]},"subject":{"reference":"Patient/0e88ce0c-f337-4b6b-9178-c2405bed3672"},"onsetDateTime":"2022-02-02T00:00:00+00:00"},"request":{"method":"POST","url":"Condition"}},{"fullUrl":"Condition/e35916ee-5bb3-47d0-895c-2ec2b4fa669c","resource":{"resourceType":"Condition","id":"e35916ee-5bb3-47d0-895c-2ec2b4fa669c","code":{"coding":[{"system":"http://snomed.info/sct","code":"405737000"}]},"subject":{"reference":"Patient/0e88ce0c-f337-4b6b-9178-c2405bed3672"},"onsetDateTime":"2022-05-16T00:00:00+00:00"},"request":{"method":"POST","url":"Condition"}},{"fullUrl":"Condition/30002bd5-0752-4991-88f1-0c079e9279d1","resource":{"resourceType":"Condition","id":"30002bd5-0752-4991-88f1-0c079e9279d1","code":{"coding":[{"system":"http://snomed.info/sct","code":"56317004"}]},"subject":{"reference":"Patient/0e88ce0c-f337-4b6b-9178-c2405bed3672"},"onsetDateTime":"2022-10-15T00:00:00+00:00"},"request":{"method":"POST","url":"Condition"}},{"fullUrl":"Condition/9cea8404-9ce4-4366-a16a-23d1eaf59109","resource":{"resourceType":"Condition","id":"9cea8404-9ce4-4366-a16a-23d1eaf59109","code":{"coding":[{"system":"http://snomed.info/sct","code":"386661006"}]},"subject":{"reference":"Patient/0e88ce0c-f337-4b6b-9178-c2405bed3672"},"onsetDateTime":"2022-11-30T00:00:00+00:00"},"request":{"method":"POST","url":"Condition"}},{"fullUrl":"Observation/02dc54a2-220d-4426-ba90-f7b14c3ee14a","resource":{"resourceType":"Observation","id":"02dc54a2-220d-4426-ba90-f7b14c3ee14a","status":"final","code":{"coding":[{"system":"http://loinc.org","code":"804-5"}]},"subject":{"reference":"Patient/0e88ce0c-f337-4b6b-9178-c2405bed3672"},"effectiveDateTime":"2022-08-29T00:00:00+00:00","valueQuantity":{"value":10.8}},"request":{"method":"POST","url":"Observation"}},{"fullUrl":"Observation/8edad868-a0be-4d6e-b76d-8426ca2dc1f2","resource":{"resourceType":"Observation","id":"8edad868-a0be-4d6e-b76d-8426ca2dc1f2","status":"final","code":{"coding":[{"system":"http://www.ama-assn.org/go/cpt","code":"85048"}]},"subject":{"reference":"Patient/0e88ce0c-f337-4b6b-9178-c2405bed3672"},"effectiveDateTime":"2022-11-19T00:00:00+00:00","valueQuantity":{"value":4.7}},"request":{"method":"POST","url":"Observation"}},{"fullUrl":"Patient/c317e7ed-06f5-4673-a1b2-167132a7b90f","resource":{"resourceType":"Patient","id":"c317e7ed-06f5-4673-a1b2-167132a7b90f","meta":{"profile":["http://hl7.org/fhir/us/core/StructureDefinition/us-core-patient"]},"identifier":[{"type":{"coding":[{"system":"http://terminology.hl7.org/CodeSystem/v2-0203","code":"MR"}]},"system":"urn:fhirgen:mrn","value":"438-44-5283"}],"name":[{"family":"Robertson","given":["Jamie"]}],"gender":"female","birthDate":"1972-02-14","address":[{"line":["372 Roberts Port"],"city":"East Tinaville","state":"Maryland"}]},"request":{"method":"POST","url":"Patient"}},{"fullUrl":"Observation/d69282ec-04df-42df-b7ba-ec41d0c7ac11","resource":{"resourceType":"Observation","id":"d69282ec-04df-42df-b7ba-ec41d0c7ac11","status":"final","code":{"coding":[{"system":"http://loinc.org","code":"31147-2"}]},"subject":{"reference":"Patient/c317e7ed-06f5-4673-a1b2-167132a7b90f"},"effectiveDateTime":"2022-06-02T00:00:00+00:00","valueRatio":{"numerator":{"value":1.0},"denominator":{"value":4.0}}},"request":{"method":"POST","url":"Observation"}},{"fullUrl":"Observation/d0937dbd-ff81-47af-88c6-00be221d5783","resource":{"resourceType":"Observation","id":"d0937dbd-ff81-47af-88c6-00be221d5783","status":"final","code":{"coding":[{"system":"http://loinc.org","code":"31146-4"}]},"subject":{"reference":"Patient/c317e7ed-06f5-4673-a1b2-167132a7b90f"},"effectiveDateTime":"2022-07-09T00:00:00+00:00","valueRatio":{"numerator":{"value":1.0},"denominator":{"value":4.0}}},"request":{"method":"POST","url":"Observation"}},{"fullUrl":"Observation/16f92c26-e86d-4e23-886f-bfb394228f53","resource":{"resourceType":"Observation","id":"16f92c26-e86d-4e23-886f-bfb394228f53","status":"final","code":{"coding":[{"system":"http://loinc.org","code":"26009-1"}]},"subject":{"reference":"Patient/c317e7ed-06f5-4673-a1b2-167132a7b90f"},"effectiveDateTime":"2022-06-23T00:00:00+00:00","valueRatio":{"numerator":{"value":1.0},"denominator":{"value":64.0}}},"request":{"method":"POST","url":"Observation"}},{"fullUrl":"Condition/975f79ef-61e3-43f9-8a12-a97cfbefb1e2","resource":{"resourceType":"Condition","id":"975f79ef-61e3-43f9-8a12-a97cfbefb1e2","code":{"coding":[{"system":"http://snomed.info/sct","code":"709977002"}]},"subject":{"reference":"Patient/c317e7ed-06f5-4673-a1b2-167132a7b90f"},"onsetDateTime":"2022-01-13T00:00:00+00:00"},"request":{"method":"POST","url":"Condition"}},{"fullUrl":"Condition/2c97a701-eff2-4666-bc39-422f66a40684","resource":{"resourceType":"Condition","id":"2c97a701-eff2-4666-bc39-422f66a40684","code":{"coding":[{"system":"http://snomed.info/sct","code":"386661006"}]},"subject":{"reference":"Patient/c317e7ed-06f5-4673-a1b2-167132a7b90f"},"onsetDateTime":"2022-05-25T00:00:00+00:00"},"request":{"method":"POST","url":"Condition"}},{"fullUrl":"Condition/d5789697-e822-48ee-84fa-33f563cd733b","resource":{"resourceType":"Condition","id":"d5789697-e822-48ee-84fa-33f563cd733b","code":{"coding":[{"system":"http://snomed.info/sct","code":"79342006"}]},"subject":{"reference":"Patient/c317e7ed-06f5-4673-a1b2-167132a7b90f"},"onsetDateTime":"2022-07-06T00:00:00+00:00"},"request":{"method":"POST","url":"Condition"}},{"fullUrl":"Condition/1eb00fc0-2689-4c56-b252-63a7d8ec3f5b","resource":{"resourceType":"Condition","id":"1eb00fc0-2689-4c56-b252-63a7d8ec3f5b","code":{"coding":[{"system":"http://snomed.info/sct","code":"418290006"}]},"subject":{"reference":"Patient/c317e7ed-06f5-4673-a1b2-167132a7b90f"},"onsetDateTime":"2022-10-06T00:00:00+00:00"},"request":{"method":"POST","url":"Condition"}},{"fullUrl":"Condition/34205ecb-5ca8-4d68-a059-ed6865d554f2","resource":{"resourceType":"Condition","id":"34205ecb-5ca8-4d68-a059-ed6865d554f2","code":{"coding":[{"system":"http://snomed.info/sct","code":"91554004"}]},"subject":{"reference":"Patient/c317e7ed-06f5-4673-a1b2-167132a7b90f"},"onsetDateTime":"2022-05-23T00:00:00+00:00"},"request":{"method":"POST","url":"Condition"}},{"fullUrl":"Observation/b08a3ecf-1a0a-468c-97a0-be7bf5ff92eb","resource":{"resourceType":"Observation","id":"b08a3ecf-1a0a-468c-97a0-be7bf5ff92eb","status":"final","code":{"coding":[{"system":"http://www.ama-assn.org/go/cpt","code":"85048"}]},"subject":{"reference":"Patient/c317e7ed-06f5-4673-a1b2-167132a7b90f"},"effectiveDateTime":"2022-01-05T00:00:00+00:00","valueQuantity":{"value":4.5}},"request":{"method":"POST","url":"Observation"}},{"fullUrl":"Observation/df965d06-b3f7-4e4f-ad17-14e413d25f01","resource":{"resourceType":"Observation","id":"df965d06-b3f7-4e4f-ad17-14e413d25f01","status":"final","code":{"coding":[{"system":"http://loinc.org","code":"26464-8"}]},"subject":{"reference":"Patient/c317e7ed-06f5-4673-a1b2-167132a7b90f"},"effectiveDateTime":"2022-09-15T00:00:00+00:00","valueQuantity":{"value":5.1}},"request":{"method":"POST","url":"Observation"}},{"fullUrl":"Patient/2e2b8436-dcd6-4000-a451-1d2516aec054","resource":{"resourceType":"Patient","id":"2e2b8436-dcd6-4000-a451-1d2516aec054","meta":{"profile":["http://hl7.org/fhir/us/core/StructureDefinition/us-core-patient"]},"identifier":[{"type":{"coding":[{"system":"http://terminology.hl7.org/CodeSystem/v2-0203","code":"MR"}]},"system":"urn:fhirgen:mrn","value":"127-06-8788"}],"name":[{"family":"Marshall","given":["Crystal"]}],"gender":"female","birthDate":"1991-05-20","address":[{"line":["2218 Robert Row Apt. 322"],"city":"Olsontown","state":"Iowa"}]},"request":{"method":"POST","url":"Patient"}},{"fullUrl":"Observation/c2899dea-8338-4de0-9a07-c8c7b07d039a","resource":{"resourceType":"Observation","id":"c2899dea-8338-4de0-9a07-c8c7b07d039a","status":"final","code":{"coding":[{"system":"http://loinc.org","code":"50695-6"}]},"subject":{"reference":"Patient/2e2b8436-dcd6-4000-a451-1d2516aec054"},"effectiveDateTime":"2022-08-06T00:00:00+00:00","valueRatio":{"numerator":{"value":1.0},"denominator":{"value":64.0}}},"request":{"method":"POST","url":"Observation"}},{"fullUrl":"Observation/982f4542-3e16-4940-92c4-b2d9852c6211","resource":{"resourceType":"Observation","id":"982f4542-3e16-4940-92c4-b2d9852c6211","status":"final","code":{"coding":[{"system":"http://loinc.org","code":"50695-6"}]},"subject":{"reference":"Patient/2e2b8436-dcd6-4000-a451-1d2516aec054"},"effectiveDateTime":"2022-04-12T00:00:00+00:00","valueRatio":{"numerator":{"value":1.0},"denominator":{"value":32.0}}},"request":{"method":"POST","url":"Observation"}},{"fullUrl":"Condition/2a9e8120-cbba-4ed9-b6bb-6af04dc0ac0b","resource":{"resourceType":"Condition","id":"2a9e8120-cbba-4ed9-b6bb-6af04dc0ac0b","code":{"coding":[{"system":"http://snomed.info/sct","code":"30746006"}]},"subject":{"reference":"Patient/2e2b8436-dcd6-4000-a451-1d2516aec054"},"onsetDateTime":"2022-10-23T00:00:00+00:00"},"request":{"method":"POST","url":"Condition"}},{"fullUrl":"Condition/f2ace2bd-8aa5-4711-a142-c919ba160032","resource":{"resourceType":"Condition","id":"f2ace2bd-8aa5-4711-a142-c919ba160032","code":{"coding":[{"system":"http://snomed.info/sct","code":"271807003"}]},"subject":{"reference":"Patient/2e2b8436-dcd6-4000-a451-1d2516aec054"},"onsetDateTime":"2022-11-08T00:00:00+00:00"},"request":{"method":"POST","url":"Condition"}},{"fullUrl":"Condition/5852dc53-7130-4a75-8aef-69c0890a447e","resource":{"resourceType":"Condition","id":"5852dc53-7130-4a75-8aef-69c0890a447e","code":{"coding":[{"system":"http://snomed.info/sct","code":"31070006"}]},"subject":{"reference":"Patient/2e2b8436-dcd6-4000-a451-1d2516aec054"},"onsetDateTime":"2022-01-07T00:00:00+00:00"},"request":{"method":"POST","url":"Condition"}},{"fullUrl":"Condition/ce8f1ffd-e8e2-4618-9f7a-1dd3c321a5eb","resource":{"resourceType":"Condition","id":"ce8f1ffd-e8e2-4618-9f7a-1dd3c321a5eb","code":{"coding":[{"system":"http://snomed.info/sct","code":"198199009"}]},"subject":{"reference":"Patient/2e2b8436-dcd6-4000-a451-1d2516aec054"},"onsetDateTime":"2022-07-09T00:00:00+00:00"},"request":{"method":"POST","url":"Condition"}},{"fullUrl":"Condition/f19dd70b-4937-460c-81d6-adb7e0237b5e","resource":{"resourceType":"Condition","id":"f19dd70b-4937-460c-81d6-adb7e0237b5e","code":{"coding":[{"system":"http://snomed.info/sct","code":"297123002"}]},"subject":{"reference":"Patient/2e2b8436-dcd6-4000-a451-1d2516aec054"},"onsetDateTime":"2022-12-06T00:00:00+00:00"},"request":{"method":"POST","url":"Condition"}},{"fullUrl":"Condition/ebcbf25b-550e-4626-81dd-e66ac6968e73","resource":{"resourceType":"Condition","id":"ebcbf25b-550e-4626-81dd-e66ac6968e73","code":{"coding":[{"system":"http://snomed.info/sct","code":"271807003"}]},"subject":{"reference":"Patient/2e2b8436-dcd6-4000-a451-1d2516aec054"},"onsetDateTime":"2022-08-30T00:00:00+00:00"},"request":{"method":"POST","url":"Condition"}},{"fullUrl":"Condition/a329372f-f2e9-4ef2-99a3-5fb55c244089","resource":{"resourceType":"Condition","id":"a329372f-f2e9-4ef2-99a3-5fb55c244089","code":{"coding":[{"system":"http://snomed.info/sct","code":"3951002"}]},"subject":{"reference":"Patient/2e2b8436-dcd6-4000-a451-1d2516aec054"},"onsetDateTime":"2022-07-19T00:00:00+00:00"},"request":{"method":"POST","url":"Condition"}},{"fullUrl":"Observation/8294b74e-7f2d-4772-a148-7c81e328d7cc","resource":{"resourceType":"Observation","id":"8294b74e-7f2d-4772-a148-7c81e328d7cc","status":"final","code":{"coding":[{"system":"http://loinc.org","code":"49498-9"}]},"subject":{"reference":"Patient/2e2b8436-dcd6-4000-a451-1d2516aec054"},"effectiveDateTime":"2022-02-26T00:00:00+00:00","valueQuantity":{"value":7.0}},"request":{"method":"POST","url":"Observation"}},{"fullUrl":"Observation/06d4d33f-63f7-4bb7-9474-702e971342b4","resource":{"resourceType":"Observation","id":"06d4d33f-63f7-4bb7-9474-702e971342b4","status":"final","code":{"coding":[{"system":"http://loinc.org","code":"804-5"}]},"subject":{"reference":"Patient/2e2b8436-dcd6-4000-a451-1d2516aec054"},"effectiveDateTime":"2022-08-21T00:00:00+00:00","valueQuantity":{"value":6.4}},"request":{"method":"POST","url":"Observation"}},{"fullUrl":"Observation/d40c08f0-fae8-4c69-9941-ff9a08dd6342","resource":{"resourceType":"Observation","id":"d40c08f0-fae8-4c69-9941-ff9a08dd6342","status":"final","code":{"coding":[{"system":"http://loinc.org","code":"49498-9"}]},"subject":{"reference":"Patient/2e2b8436-dcd6-4000-a451-1d2516aec054"},"effectiveDateTime":"2022-02-22T00:00:00+00:00","valueQuantity":{"value":5.8}},"request":{"method":"POST","url":"Observation"}},{"fullUrl":"Patient/4fe75458-d882-4fbd-8af9-7b46f5746ef5","resource":{"resourceType":"Patient","id":"4fe75458-d882-4fbd-8af9-7b46f5746ef5","meta":{"profile":["http://hl7.org/fhir/us/core/StructureDefinition/us-core-patient"]},"identifier":[{"type":{"coding":[{"system":"http://terminology.hl7.org/CodeSystem/v2-0203","code":"MR"}]},"system":"urn:fhirgen:mrn","value":"857-93-5985"}],"name":[{"family":"Bennett","given":["Teresa"]}],"gender":"other","birthDate":"1967-03-08","address":[{"line":["21647 James Row Suite 354"],"city":"Conwayberg","state":"Iowa"}]},"request":{"method":"POST","url":"Patient"}},{"fullUrl":"Observation/2a27e0b1-d4e4-419d-b341-ad0b77f9b405","resource":{"resourceType":"Observation","id":"2a27e0b1-d4e4-419d-b341-ad0b77f9b405","status":"final","code":{"coding":[{"system":"http://loinc.org","code":"11084-1"}]},"subject":{"reference":"Patient/4fe75458-d882-4fbd-8af9-7b46f5746ef5"},"effectiveDateTime":"2022-06-06T00:00:00+00:00","valueRatio":{"numerator":{"value":1.0},"denominator":{"value":64.0}}},"request":{"method":"POST","url":"Observation"}},{"fullUrl":"Observation/7e4ee1f2-6de7-47c7-a092-5d1b2e2ac05a","resource":{"resourceType":"Observation","id":"7e4ee1f2-6de7-47c7-a092-5d1b2e2ac05a","status":"final","code":{"coding":[{"system":"http://loinc.org","code":"34382-2"}]},"subject":{"reference":"Patient/4fe75458-d882-4fbd-8af9-7b46f5746ef5"},"effectiveDateTime":"2022-07-03T00:00:00+00:00","valueRatio":{"numerator":{"value":1.0},"denominator":{"value":4.0}}},"request":{"method":"POST","url":"Observation"}},{"fullUrl":"Observation/b6ddfd49-e7e1-48d1-bee2-d180991131d9","resource":{"resourceType":"Observation","id":"b6ddfd49-e7e1-48d1-bee2-d180991131d9","status":"final","code":{"coding":[{"system":"http://loinc.org","code":"47235-7"}]},"subject":{"reference":"Patient/4fe75458-d882-4fbd-8af9-7b46f5746ef5"},"effectiveDateTime":"2022-06-28T00:00:00+00:00","valueRatio":{"numerator":{"value":1.0},"denominator":{"value":32.0}}},"request":{"method":"POST","url":"Observation"}},{"fullUrl":"Condition/02284f63-2b75-4990-9f7e-98a6b2b155a2","resource":{"resourceType":"Condition","id":"02284f63-2b75-4990-9f7e-98a6b2b155a2","code":{"coding":[{"system":"http://snomed.info/sct","code":"248980004"}]},"subject":{"reference":"Patient/4fe75458-d882-4fbd-8af9-7b46f5746ef5"},"onsetDateTime":"2022-07-10T00:00:00+00:00"},"request":{"method":"POST","url":"Condition"}},{"fullUrl":"Condition/aaecf0c3-c02b-4231-bb20-84b351c9b373","resource":{"resourceType":"Condition","id":"aaecf0c3-c02b-4231-bb20-84b351c9b373","code":{"coding":[{"system":"http://snomed.info/sct","code":"405737000"}]},"subject":{"reference":"Patient/4fe75458-d882-4fbd-8af9-7b46f5746ef5"},"onsetDateTime":"2022-03-17T00:00:00+00:00"},"request":{"method":"POST","url":"Condition"}},{"fullUrl":"Condition/f4f2dbc7-5a9d-4039-b8d1-51cb55c66146","resource":{"resourceType":"Condition","id":"f4f2dbc7-5a9d-4039-b8d1-51cb55c66146","code":{"coding":[{"system":"http://snomed.info/sct","code":"297123002"}]},"subject":{"reference":"Patient/4fe75458-d882-4fbd-8af9-7b46f5746ef5"},"onsetDateTime":"2022-10-24T00:00:00+00:00"},"request":{"method":"POST","url":"Condition"}},{"fullUrl":"Condition/4e22ea1a-5f21-4a0c-8a13-cea7a09074d4","resource":{"resourceType":"Condition","id":"4e22ea1a-5f21-4a0c-8a13-cea7a09074d4","code":{"coding":[{"system":"http://snomed.info/sct","code":"31070006"}]},"subject":{"reference":"Patient/4fe75458-d882-4fbd-8af9-7b46f5746ef5"},"onsetDateTime":"2022-06-10T00:00:00+00:00"},"request":{"method":"POST","url":"Condition"}},{"fullUrl":"Condition/700fc07d-63be-407b-a849-90d3ee6983a5","resource":{"resourceType":"Condition","id":"700fc07d-63be-407b-a849-90d3ee6983a5","code":{"coding":[{"system":"http://snomed.info/sct","code":"198199009"}]},"subject":{"reference":"Patient/4fe75458-d882-4fbd-8af9-7b46f5746ef5"},"onsetDateTime":"2022-10-22T00:00:00+00:00"},"request":{"method":"POST","url":"Condition"}},{"fullUrl":"Condition/619f84f5-ef9e-4133-9b8d-3749cd57123b","resource":{"resourceType":"Condition","id":"619f84f5-ef9e-4133-9b8d-3749cd57123b","code":{"coding":[{"system":"http://snomed.info/sct","code":"271939006"}]},"subject":{"reference":"Patient/4fe75458-d882-4fbd-8af9-7b46f5746ef5"},"onsetDateTime":"2022-03-19T00:00:00+00:00"},"request":{"method":"POST","url":"Condition"}},{"fullUrl":"Condition/3026988f-ea53-42cf-9237-a0833952fd05","resource":{"resourceType":"Condition","id":"3026988f-ea53-42cf-9237-a0833952fd05","code":{"coding":[{"system":"http://snomed.info/sct","code":"297123002"}]},"subject":{"reference":"Patient/4fe75458-d882-4fbd-8af9-7b46f5746ef5"},"onsetDateTime":"2022-07-17T00:00:00+00:00"},"request":{"method":"POST","url":"Condition"}},{"fullUrl":"Condition/9321ede6-ac13-4619-855a-07747d6337aa","resource":{"resourceType":"Condition","id":"9321ede6-ac13-4619-855a-07747d6337aa","code":{"coding":[{"system":"http://snomed.info/sct","code":"405737000"}]},"subject":{"reference":"Patient/4fe75458-d882-4fbd-8af9-7b46f5746ef5"},"onsetDateTime":"2022-02-14T00:00:00+00:00"},"request":{"method":"POST","url":"Condition"}},{"fullUrl":"Observation/fcbf70ba-0198-441c-885b-b92a79d4950b","resource":{"resourceType":"Observation","id":"fcbf70ba-0198-441c-885b-b92a79d4950b","status":"final","code":{"coding":[{"system":"http://loinc.org","code":"804-5"}]},"subject":{"reference":"Patient/4fe75458-d882-4fbd-8af9-7b46f5746ef5"},"effectiveDateTime":"2022-09-29T00:00:00+00:00","valueQuantity":{"value":9.8}},"request":{"method":"POST","url":"Observation"}},{"fullUrl":"Observation/df5df196-56a6-4b33-9027-2e2f5bf71146","resource":{"resourceType":"Observation","id":"df5df196-56a6-4b33-9027-2e2f5bf71146","status":"final","code":{"coding":[{"system":"http://loinc.org","code":"6690-2"}]},"subject":{"reference":"Patient/4fe75458-d882-4fbd-8af9-7b46f5746ef5"},"effectiveDateTime":"2022-07-13T00:00:00+00:00","valueQuantity":{"value":5.4}},"request":{"method":"POST","url":"Observation"}}]}