{"resourceType":"Bundle","id":"3ef3b639-b54e-4eef-9e5b-91194e96e491","type":"transaction","entry":[{"fullUrl":"Patient/9790b7af-455f-4c0a-9edb-64d301408003","resource":{"resourceType":"Patient","id":"9790b7af-455f-4c0a-9edb-64d301408003","identifier":[{"type":{"coding":[{"system":"http://terminology.hl7.org/CodeSystem/v2-0203","code":"MR"}]},"system":"urn:fhirgen:mrn","value":"159-36-4709"}],"name":[{"family":"Jennings","given":["Corey"]}],"gender":"male","birthDate":"1989-01-08","address":[{"line":["072 Jennifer Camp"],"city":"Huffmanberg","state":"Florida"}]},"request":{"method":"POST","url":"Patient"}},{"fullUrl":"Observation/d263bee0-4460-43c3-bb8e-12f40600c299","resource":{"resourceType":"Observation","id":"d263bee0-4460-43c3-bb8e-12f40600c299","status":"final","code":{"coding":[{"system":"http://loinc.org","code":"50695-6"}]},"subject":{"reference":"Patient/9790b7af-455f-4c0a-9edb-64d301408003"},"effectiveDateTime":"2022-11-15T00:00:00+00:00","valueRatio":{"numerator":{"value":1.0},"denominator":{"value":4.0}}},"request":{"method":"POST","url":"Observation"}},{"fullUrl":"Observation/c716dea0-eb13-4b5f-9c89-1cdae0513a0c","resource":{"resourceType":"Observation","id":"c716dea0-eb13-4b5f-9c89-1cdae0513a0c","status":"final","code":{"coding":[{"system":"http://loinc.org","code":"5394-2"}]},"subject":{"reference":"Patient/9790b7af-455f-4c0a-9edb-64d301408003"},"effectiveDateTime":"2022-03-27T00:00:00+00:00","valueRatio":{"numerator":{"value":1.0},"denominator":{"value":32.0}}},"request":{"method":"POST","url":"Observation"}},{"fullUrl":"Observation/fd16f99f-0eec-4963-985f-fc3454de2726","resource":{"resourceType":"Observation","id":"fd16f99f-0eec-4963-985f-fc3454de2726","status":"final","code":{"coding":[{"system":"http://loinc.org","code":"26009-1"}]},"subject":{"reference":"Patient/9790b7af-455f-4c0a-9edb-64d301408003"},"effectiveDateTime":"2022-11-30T00:00:00+00:00","valueRatio":{"numerator":{"value":1.0},"denominator":{"value":4.0}}},"request":{"method":"POST","url":"Observation"}},{"fullUrl":"Condition/4e90a8fa-dbd7-4926-8523-26be2cb79de8","resource":{"resourceType":"Condition","id":"4e90a8fa-dbd7-4926-8523-26be2cb79de8","code":{"coding":[{"system":"http://snomed.info/sct","code":"271807003"}]},"subject":{"reference":"Patient/9790b7af-455f-4c0a-9edb-64d301408003"},"onsetDateTime":"2022-01-10T00:00:00+00:00"},"request":{"method":"POST","url":"Condition"}},{"fullUrl":"Condition/7a43e4a6-fa3b-46ca-8ddd-135e13c493f3","resource":{"resourceType":"Condition","id":"7a43e4a6-fa3b-46ca-8ddd-135e13c493f3","code":{"coding":[{"system":"http://snomed.info/sct","code":"736686006"}]},"subject":{"reference":"Patient/9790b7af-455f-4c0a-9edb-64d301408003"},"onsetDateTime":"2022-11-16T00:00:00+00:00"},"request":{"method":"POST","url":"Condition"}},{"fullUrl":"Condition/3d7a166e-1787-430d-8f4b-7e6aab8d2244","resource":{"resourceType":"Condition","id":"3d7a166e-1787-430d-8f4b-7e6aab8d2244","code":{"coding":[{"system":"http://snomed.info/sct","code":"30746006"}]},"subject":{"reference":"Patient/9790b7af-455f-4c0a-9edb-64d301408003"},"onsetDateTime":"2022-01-15T00:00:00+00:00"},"request":{"method":"POST","url":"Condition"}},{"fullUrl":"Condition/30c79c71-518f-45da-b497-ad3ca0219925","resource":{"resourceType":"Condition","id":"30c79c71-518f-45da-b497-ad3ca0219925","code":{"coding":[{"system":"http://snomed.info/sct","code":"3951002"}]},"subject":{"reference":"Patient/9790b7af-455f-4c0a-9edb-64d301408003"},"onsetDateTime":"2022-03-29T00:00:00+00:00"},"request":{"method":"POST","url":"Condition"}},{"fullUrl":"Condition/d221f8df-3332-4582-8b46-87a857b112dd","resource":{"resourceType":"Condition","id":"d221f8df-3332-4582-8b46-87a857b112dd","code":{"coding":[{"system":"http://snomed.info/sct","code":"736686006"}]},"subject":{"reference":"Patient/9790b7af-455f-4c0a-9edb-64d301408003"},"onsetDateTime":"2022-09-30T00:00:00+00:00"},"request":{"method":"POST","url":"Condition"}},{"fullUrl":"Condition/6a8381e9-ddcb-4001-bbd0-ca7a98159f57","resource":{"resourceType":"Condition","id":"6a8381e9-ddcb-4001-bbd0-ca7a98159f57","code":{"coding":[{"system":"http://snomed.info/sct","code":"271807003"}]},"subject":{"reference":"Patient/9790b7af-455f-4c0a-9edb-64d301408003"},"onsetDateTime":"2022-10-08T00:00:00+00:00"},"request":{"method":"POST","url":"Condition"}},{"fullUrl":"Condition/1dee187a-047b-49ec-af21-e7e24029858c","resource":{"resourceType":"Condition","id":"1dee187a-047b-49ec-af21-e7e24029858c","code":{"coding":[{"system":"http://snomed.info/sct","code":"248980004"}]},"subject":{"reference":"Patient/9790b7af-455f-4c0a-9edb-64d301408003"},"onsetDateTime":"2022-12-01T00:00:00+00:00"},"request":{"method":"POST","url":"Condition"}},{"fullUrl":"Observation/a684a482-5cb7-43d0-a954-e264d34d531e","resource":{"resourceType":"Observation","id":"a684a482-5cb7-43d0-a954-e264d34d531e","status":"final","code":{"coding":[{"system":"http://loinc.org","code":"26464-8"}]},"subject":{"reference":"Patient/9790b7af-455f-4c0a-9edb-64d301408003"},"effectiveDateTime":"2022-12-31T00:00:00+00:00","valueQuantity":{"value":4.7}},"request":{"method":"POST","url":"Observation"}},{"fullUrl":"Observation/db405954-2c5f-477c-93a3-bb851ade1733","resource":{"resourceType":"Observation","id":"db405954-2c5f-477c-93a3-bb851ade1733","status":"final","code":{"coding":[{"system":"http://loinc.org","code":"49498-9"}]},"subject":{"reference":"Patient/9790b7af-455f-4c0a-9edb-64d301408003"},"effectiveDateTime":"2022-04-05T00:00:00+00:00","valueQuantity":{"value":5.3}},"request":{"method":"POST","url":"Observation"}},{"fullUrl":"Observation/1e66e72c-155d-4ea6-9f6f-640c4bef0d79","resource":{"resourceType":"Observation","id":"1e66e72c-155d-4ea6-9f6f-640c4bef0d79","status":"final","code":{"coding":[{"system":"http://loinc.org","code":"49498-9"}]},"subject":{"reference":"Patient/9790b7af-455f-4c0a-9edb-64d301408003"},"effectiveDateTime":"2022-05-08T00:00:00+00:00"},"request":{"method":"POST","url":"Observation"}},{"fullUrl":"Observation/5ffd6083-9d99-4925-b1f5-9af01981eaa1","resource":{"resourceType":"Observation","id":"5ffd6083-9d99-4925-b1f5-9af01981eaa1","status":"final","code":{"coding":[{"system":"http://loinc.org","code":"49498-9"}]},"subject":{"reference":"Patient/9790b7af-455f-4c0a-9edb-64d301408003"},"effectiveDateTime":"2022-10-07T00:00:00+00:00"},"request":{"method":"POST","url":"Observation"}},{"fullUrl":"Observation/37cbbdb9-aa03-4d5d-84ee-45c0a04eff8d","resource":{"resourceType":"Observation","id":"37cbbdb9-aa03-4d5d-84ee-45c0a04eff8d","status":"final","code":{"coding":[{"system":"http://loinc.org","code":"49498-9"}]},"subject":{"reference":"Patient/9790b7af-455f-4c0a-9edb-64d301408003"},"effectiveDateTime":"2022-03-20T00:00:00+00:00"},"request":{"method":"POST","url":"Observation"}},{"fullUrl":"Procedure/b458538e-3eb3-43a8-90fb-7fa52566a922","resource":{"resourceType":"Procedure","id":"b458538e-3eb3-43a8-90fb-7fa52566a922","status":"completed","code":{"coding":[{"system":"http://snomed.info/sct","code":"115006"}]},"subject":{"reference":"Patient/9790b7af-455f-4c0a-9edb-64d301408003"},"performedDateTime":"2022-03-06T00:00:00+00:00"},"request":{"method":"POST","url":"Procedure"}},{"fullUrl":"Procedure/55ade32c-0fb0-46f3-b6e6-bb540365bb91","resource":{"resourceType":"Procedure","id":"55ade32c-0fb0-46f3-b6e6-bb540365bb91","status":"completed","code":{"coding":[{"system":"http://snomed.info/sct","code":"146005"}]},"subject":{"reference":"Patient/9790b7af-455f-4c0a-9edb-64d301408003"},"performedDateTime":"2022-12-08T00:00:00+00:00"},"request":{"method":"POST","url":"Procedure"}},{"fullUrl":"Procedure/68245434-9457-4740-a86e-c459923e5ccc","resource":{"resourceType":"Procedure","id":"68245434-9457-4740-a86e-c459923e5ccc","status":"completed","code":{"coding":[{"system":"http://snomed.info/sct","code":"146005"}]},"subject":{"reference":"Patient/9790b7af-455f-4c0a-9edb-64d301408003"},"performedDateTime":"2022-12-31T00:00:00+00:00"},"request":{"method":"POST","url":"Procedure"}},{"fullUrl":"MedicationStatement/2efc34cb-42de-48a9-b8d2-5b83454b813b","resource":{"resourceType":"MedicationStatement","id":"2efc34cb-42de-48a9-b8d2-5b83454b813b","status":"completed","medicationCodeableConcept":{"coding":[{"system":"http://www.nlm.nih.gov/research/umls/rxnorm","code":"2193"}]},"subject":{"reference":"Patient/9790b7af-455f-4c0a-9edb-64d301408003"},"effectiveDateTime":"2022-09-27T00:00:00+00:00","dosage":[{"doseAndRate":[{"doseQuantity":{"value":1.0,"unit":"TAB","system":"http://terminology.hl7.org/CodeSystem/v3-orderableDrugForm","code":"TAB"}}]}]},"request":{"method":"POST","url":"MedicationStatement"}},{"fullUrl":"MedicationStatement/3701e96d-cb03-452f-84cf-312cbcf0c1f8","resource":{"resourceType":"MedicationStatement","id":"3701e96d-cb03-452f-84cf-312cbcf0c1f8","status":"completed","medicationCodeableConcept":{"coding":[{"system":"http://www.nlm.nih.gov/research/umls/rxnorm","code":"18631"}]},"subject":{"reference":"Patient/9790b7af-455f-4c0a-9edb-64d301408003"},"effectiveDateTime":"2022-12-23T00:00:00+00:00","dosage":[{"doseAndRate":[{"doseQuantity":{"value":6.4,"unit":"TAB","system":"http://terminology.hl7.org/CodeSystem/v3-orderableDrugForm","code":"TAB"}}]}]},"request":{"method":"POST","url":"MedicationStatement"}},{"fullUrl":"MedicationStatement/61a0594c-b923-49af-92bd-2b0a5f587cac","resource":{"resourceType":"MedicationStatement","id":"61a0594c-b923-49af-92bd-2b0a5f587cac","status":"completed","medicationCodeableConcept":{"coding":[{"system":"http://www.nlm.nih.gov/research/umls/rxnorm","code":"2193"}]},"subject":{"reference":"Patient/9790b7af-455f-4c0a-9edb-64d301408003"},"effectiveDateTime":"2022-05-12T00:00:00+00:00","dosage":[{"doseAndRate":[{"doseQuantity":{"value":4.6,"unit":"TAB","system":"http://terminology.hl7.org/CodeSystem/v3-orderableDrugForm","code":"TAB"}}]}]},"request":{"method":"POST","url":"MedicationStatement"}},{"fullUrl":"MedicationStatement/c0fb5f76-56a3-4b45-8b84-2fa1c6492038","resource":{"resourceType":"MedicationStatement","id":"c0fb5f76-56a3-4b45-8b84-2fa1c6492038","status":"completed","medicationCodeableConcept":{"coding":[{"system":"http://www.nlm.nih.gov/research/umls/rxnorm","code":"2193"}]},"subject":{"reference":"Patient/9790b7af-455f-4c0a-9edb-64d301408003"},"effectiveDateTime":"2022-08-08T00:00:00+00:00","dosage":[{"doseAndRate":[{"doseQuantity":{"value":3.5,"unit":"TAB","system":"http://terminology.hl7.org/CodeSystem/v3-orderableDrugForm","code":"TAB"}}]}]},"request":{"method":"POST","url":"MedicationStatement"}},{"fullUrl":"MedicationStatement/70294268-fe46-4a0a-bfce-1cfec048b049","resource":{"resourceType":"MedicationStatement","id":"70294268-fe46-4a0a-bfce-1cfec048b049","status":"completed","medicationCodeableConcept":{"coding":[{"system":"http://www.nlm.nih.gov/research/umls/rxnorm","code":"2193"}]},"subject":{"reference":"Patient/9790b7af-455f-4c0a-9edb-64d301408003"},"effectiveDateTime":"2022-07-02T00:00:00+00:00","dosage":[{"doseAndRate":[{"doseQuantity":{"value":6.7,"unit":"TAB","system":"http://terminology.hl7.org/CodeSystem/v3-orderableDrugForm","code":"TAB"}}]}]},"request":{"method":"POST","url":"MedicationStatement"}},{"fullUrl":"MedicationStatement/2ec43b25-6ef2-4b59-bf31-4f7d1126ee93","resource":{"resourceType":"MedicationStatement","id":"2ec43b25-6ef2-4b59-bf31-4f7d1126ee93","status":"completed","medicationCodeableConcept":{"coding":[{"system":"http://www.nlm.nih.gov/research/umls/rxnorm","code":"7980"}]},"subject":{"reference":"Patient/9790b7af-455f-4c0a-9edb-64d301408003"},"effectiveDateTime":"2022-08-15T00:00:00+00:00","dosage":[{"doseAndRate":[{"doseQuantity":{"value":5.1,"unit":"TAB","system":"http://terminology.hl7.org/CodeSystem/v3-orderableDrugForm","code":"TAB"}}]}]},"request":{"method":"POST","url":"MedicationStatement"}},{"fullUrl":"MedicationStatement/d5dea7f8-e11e-4f8f-a7c5-e0f45e0d3cd1","resource":{"resourceType":"MedicationStatement","id":"d5dea7f8-e11e-4f8f-a7c5-e0f45e0d3cd1","status":"completed","medicationCodeableConcept":{"coding":[{"system":"http://www.nlm.nih.gov/research/umls/rxnorm","code":"7980"}]},"subject":{"reference":"Patient/9790b7af-455f-4c0a-9edb-64d301408003"},"effectiveDateTime":"2022-09-29T00:00:00+00:00","dosage":[{"doseAndRate":[{"doseQuantity":{"value":6.3,"unit":"TAB","system":"http://terminology.hl7.org/CodeSystem/v3-orderableDrugForm","code":"TAB"}}]}]},"request":{"method":"POST","url":"MedicationStatement"}},{"fullUrl":"Encounter/8dc901d9-3f96-4dd1-9da8-2967bc665578","resource":{"resourceType":"Encounter","id":"8dc901d9-3f96-4dd1-9da8-2967bc665578","status":"finished","class":{"system":"http://terminology.hl7.org/CodeSystem/v3-ActCode","code":"IMP","display":"inpatient encounter"},"type":[{"coding":[{"system":"http://terminology.hl7.org/CodeSystem/encounter-type","code":"CCS60"}]}],"subject":{"reference":"Patient/9790b7af-455f-4c0a-9edb-64d301408003"},"period":{"start":"2022-01-01T00:00:00+00:00","end":"2022-01-07T00:00:00+00:00"}},"request":{"method":"POST","url":"Encounter"}},{"fullUrl":"Encounter/4a060f2d-5b04-41d5-ae52-6f8053fe6c8d","resource":{"resourceType":"Encounter","id":"4a060f2d-5b04-41d5-ae52-6f8053fe6c8d","status":"finished","class":{"system":"http://terminology.hl7.org/CodeSystem/v3-ActCode","code":"IMP","display":"inpatient encounter"},"type":[{"coding":[{"system":"http://terminology.hl7.org/CodeSystem/encounter-type","code":"BD/BM-clin"}]}],"subject":{"reference":"Patient/9790b7af-455f-4c0a-9edb-64d301408003"},"period":{"start":"2022-01-05T00:00:00+00:00","end":"2022-01-14T00:00:00+00:00"}},"request":{"method":"POST","url":"Encounter"}},{"fullUrl":"Encounter/292ff40c-f62a-424a-a0a6-5e9b1e42877a","resource":{"resourceType":"Encounter","id":"292ff40c-f62a-424a-a0a6-5e9b1e42877a","status":"finished","class":{"system":"http://terminology.hl7.org/CodeSystem/v3-ActCode","code":"PRENC","display":"pre-admission"},"type":[{"coding":[{"system":"http://terminology.hl7.org/CodeSystem/encounter-type","code":"CCS60"}]}],"subject":{"reference":"Patient/9790b7af-455f-4c0a-9edb-64d301408003"},"period":{"start":"2022-04-16T00:00:00+00:00","end":"2022-04-23T00:00:00+00:00"}},"request":{"method":"POST","url":"Encounter"}},{"fullUrl":"Encounter/02a08f05-d88c-4762-884d-8dfc0361c2b4","resource":{"resourceType":"Encounter","id":"02a08f05-d88c-4762-884d-8dfc0361c2b4","status":"finished","class":{"system":"http://terminology.hl7.org/CodeSystem/v3-ActCode","code":"HH","display":"home health"},"type":[{"coding":[{"system":"http://terminology.hl7.org/CodeSystem/encounter-type","code":"OKI"}]}],"subject":{"reference":"Patient/9790b7af-455f-4c0a-9edb-64d301408003"},"period":{"start":"2022-07-25T00:00:00+00:00","end":"2022-07-28T00:00:00+00:00"}},"request":{"method":"POST","url":"Encounter"}},{"fullUrl":"Patient/388321f5-c776-43ee-b064-9b16acc1b92e","resource":{"resourceType":"Patient","id":"388321f5-c776-43ee-b064-9b16acc1b92e","identifier":[{"type":{"coding":[{"system":"http://terminology.hl7.org/CodeSystem/v2-0203","code":"MR"}]},"system":"urn:fhirgen:mrn","value":"221-83-7947"}],"name":[{"family":"Nguyen","given":["Randall"]}],"gender":"male","birthDate":"1955-03-05","address":[{"line":["93613 Christina Manors Suite 927"],"city":"Luisborough","state":"New Jersey"}]},"request":{"method":"POST","url":"Patient"}},{"fullUrl":"Observation/ea6c3c48-dccb-45c1-954c-65183d7db42b","resource":{"resourceType":"Observation","id":"ea6c3c48-dccb-45c1-954c-65183d7db42b","status":"final","code":{"coding":[{"system":"http://loinc.org","code":"11084-1"}]},"subject":{"reference":"Patient/388321f5-c776-43ee-b064-9b16acc1b92e"},"effectiveDateTime":"2022-05-13T00:00:00+00:00","valueRatio":{"numerator":{"value":1.0},"denominator":{"value":4.0}}},"request":{"method":"POST","url":"Observation"}},{"fullUrl":"Observation/6420e3eb-e63d-4d4c-b707-af39c9f5af38","resource":{"resourceType":"Observation","id":"6420e3eb-e63d-4d4c-b707-af39c9f5af38","status":"final","code":{"coding":[{"system":"http://loinc.org","code":"47235-7"}]},"subject":{"reference":"Patient/388321f5-c776-43ee-b064-9b16acc1b92e"},"effectiveDateTime":"2022-05-29T00:00:00+00:00","valueRatio":{"numerator":{"value":1.0},"denominator":{"value":32.0}}},"request":{"method":"POST","url":"Observation"}},{"fullUrl":"Observation/f1e44420-21bd-4d9c-ad8c-dd9a0241a78a","resource":{"resourceType":"Observation","id":"f1e44420-21bd-4d9c-ad8c-dd9a0241a78a","status":"final","code":{"coding":[{"system":"http://loinc.org","code":"26009-1"}]},"subject":{"reference":"Patient/388321f5-c776-43ee-b064-9b16acc1b92e"},"effectiveDateTime":"2022-04-18T00:00:00+00:00","valueRatio":{"numerator":{"value":1.0},"denominator":{"value":32.0}}},"request":{"method":"POST","url":"Observation"}},{"fullUrl":"Condition/1b6737d7-bf4f-4f7c-83ec-ccffbe360ed7","resource":{"resourceType":"Condition","id":"1b6737d7-bf4f-4f7c-83ec-ccffbe360ed7","code":{"coding":[{"system":"http://snomed.info/sct","code":"271807003"}]},"subject":{"reference":"Patient/388321f5-c776-43ee-b064-9b16acc1b92e"},"onsetDateTime":"2022-07-21T00:00:00+00:00"},"request":{"method":"POST","url":"Condition"}},{"fullUrl":"Condition/62d3c94a-6492-4d59-a267-6468561351d4","resource":{"resourceType":"Condition","id":"62d3c94a-6492-4d59-a267-6468561351d4","code":{"coding":[{"system":"http://snomed.info/sct","code":"198199009"}]},"subject":{"reference":"Patient/388321f5-c776-43ee-b064-9b16acc1b92e"},"onsetDateTime":"2022-06-05T00:00:00+00:00"},"request":{"method":"POST","url":"Condition"}},{"fullUrl":"Condition/d6bbe548-2564-4030-812a-661c2f130ad3","resource":{"resourceType":"Condition","id":"d6bbe548-2564-4030-812a-661c2f130ad3","code":{"coding":[{"system":"http://snomed.info/sct","code":"79342006"}]},"subject":{"reference":"Patient/388321f5-c776-43ee-b064-9b16acc1b92e"},"onsetDateTime":"2022-09-22T00:00:00+00:00"},"request":{"method":"POST","url":"Condition"}},{"fullUrl":"Observation/58d3d98b-3756-44a8-af46-8300048559a1","resource":{"resourceType":"Observation","id":"58d3d98b-3756-44a8-af46-8300048559a1","status":"final","code":{"coding":[{"system":"http://loinc.org","code":"26464-8"}]},"subject":{"reference":"Patient/388321f5-c776-43ee-b064-9b16acc1b92e"},"effectiveDateTime":"2022-08-24T00:00:00+00:00","valueQuantity":{"value":8.4}},"request":{"method":"POST","url":"Observation"}},{"fullUrl":"Observation/8b5a046b-ef14-42ce-87a8-cf5de47d45c7","resource":{"resourceType":"Observation","id":"8b5a046b-ef14-42ce-87a8-cf5de47d45c7","status":"final","code":{"coding":[{"system":"http://loinc.org","code":"26464-8"}]},"subject":{"reference":"Patient/388321f5-c776-43ee-b064-9b16acc1b92e"},"effectiveDateTime":"2022-10-23T00:00:00+00:00","valueQuantity":{"value":7.2}},"request":{"method":"POST","url":"Observation"}},{"fullUrl":"Observation/2fb2c87b-0872-422f-b946-55355b793274","resource":{"resourceType":"Observation","id":"2fb2c87b-0872-422f-b946-55355b793274","status":"final","code":{"coding":[{"system":"http://loinc.org","code":"26464-8"}]},"subject":{"reference":"Patient/388321f5-c776-43ee-b064-9b16acc1b92e"},"effectiveDateTime":"2022-10-09T00:00:00+00:00","valueQuantity":{"value":7.6}},"request":{"method":"POST","url":"Observation"}},{"fullUrl":"Observation/03ddfd6c-58c2-48b9-bd1e-b8e7c9fe07bb","resource":{"resourceType":"Observation","id":"03ddfd6c-58c2-48b9-bd1e-b8e7c9fe07bb","status":"final","code":{"coding":[{"system":"http://loinc.org","code":"49498-9"}]},"subject":{"reference":"Patient/388321f5-c776-43ee-b064-9b16acc1b92e"},"effectiveDateTime":"2022-05-14T00:00:00+00:00"},"request":{"method":"POST","url":"Observation"}},{"fullUrl":"Observation/5913760e-e689-45db-8cc4-e16a4c80990f","resource":{"resourceType":"Observation","id":"5913760e-e689-45db-8cc4-e16a4c80990f","status":"final","code":{"coding":[{"system":"http://loinc.org","code":"49498-9"}]},"subject":{"reference":"Patient/388321f5-c776-43ee-b064-9b16acc1b92e"},"effectiveDateTime":"2022-07-09T00:00:00+00:00"},"request":{"method":"POST","url":"Observation"}},{"fullUrl":"Observation/c90929d7-0b12-46fa-8827-05fa756213a6","resource":{"resourceType":"Observation","id":"c90929d7-0b12-46fa-8827-05fa756213a6","status":"final","code":{"coding":[{"system":"http://loinc.org","code":"49498-9"}]},"subject":{"reference":"Patient/388321f5-c776-43ee-b064-9b16acc1b92e"},"effectiveDateTime":"2022-06-02T00:00:00+00:00"},"request":{"method":"POST","url":"Observation"}},{"fullUrl":"Procedure/7db93120-9831-4cea-add1-8c6dcd982d94","resource":{"resourceType":"Procedure","id":"7db93120-9831-4cea-add1-8c6dcd982d94","status":"completed","code":{"coding":[{"system":"http://snomed.info/sct","code":"647000"}]},"subject":{"reference":"Patient/388321f5-c776-43ee-b064-9b16acc1b92e"},"performedDateTime":"2022-12-22T00:00:00+00:00"},"request":{"method":"POST","url":"Procedure"}},{"fullUrl":"Procedure/f35dd585-244a-43fa-adeb-878e57cf879a","resource":{"resourceType":"Procedure","id":"f35dd585-244a-43fa-adeb-878e57cf879a","status":"completed","code":{"coding":[{"system":"http://snomed.info/sct","code":"104001"}]},"subject":{"reference":"Patient/388321f5-c776-43ee-b064-9b16acc1b92e"},"performedDateTime":"2022-12-04T00:00:00+00:00"},"request":{"method":"POST","url":"Procedure"}},{"fullUrl":"Procedure/cfcc70e5-6970-4a8e-923d-4fadecd163d7","resource":{"resourceType":"Procedure","id":"cfcc70e5-6970-4a8e-923d-4fadecd163d7","status":"completed","code":{"coding":[{"system":"http://snomed.info/sct","code":"647000"}]},"subject":{"reference":"Patient/388321f5-c776-43ee-b064-9b16acc1b92e"},"performedDateTime":"2022-09-03T00:00:00+00:00"},"request":{"method":"POST","url":"Procedure"}},{"fullUrl":"MedicationStatement/b275f43c-e5c5-45dd-a7c5-5c4b26a2cd9e","resource":{"resourceType":"MedicationStatement","id":"b275f43c-e5c5-45dd-a7c5-5c4b26a2cd9e","status":"completed","medicationCodeableConcept":{"coding":[{"system":"http://www.nlm.nih.gov/research/umls/rxnorm","code":"3640"}]},"subject":{"reference":"Patient/388321f5-c776-43ee-b064-9b16acc1b92e"},"effectiveDateTime":"2022-11-12T00:00:00+00:00","dosage":[{"doseAndRate":[{"doseQuantity":{"value":1.0,"unit":"TAB","system":"http://terminology.hl7.org/CodeSystem/v3-orderableDrugForm","code":"TAB"}}]}]},"request":{"method":"POST","url":"MedicationStatement"}},{"fullUrl":"MedicationStatement/cf60dc08-1ae3-48e3-95d3-68ad46f16d22","resource":{"resourceType":"MedicationStatement","id":"cf60dc08-1ae3-48e3-95d3-68ad46f16d22","status":"completed","medicationCodeableConcept":{"coding":[{"system":"http://www.nlm.nih.gov/research/umls/rxnorm","code":"7980"}]},"subject":{"reference":"Patient/388321f5-c776-43ee-b064-9b16acc1b92e"},"effectiveDateTime":"2022-11-28T00:00:00+00:00","dosage":[{"doseAndRate":[{"doseQuantity":{"value":1.0,"unit":"TAB","system":"http://terminology.hl7.org/CodeSystem/v3-orderableDrugForm","code":"TAB"}}]}]},"request":{"method":"POST","url":"MedicationStatement"}},{"fullUrl":"MedicationStatement/210f409a-1718-46a2-85b5-688d8b47fb2a","resource":{"resourceType":"MedicationStatement","id":"210f409a-1718-46a2-85b5-688d8b47fb2a","status":"completed","medicationCodeableConcept":{"coding":[{"system":"http://www.nlm.nih.gov/research/umls/rxnorm","code":"7980"}]},"subject":{"reference":"Patient/388321f5-c776-43ee-b064-9b16acc1b92e"},"effectiveDateTime":"2022-03-08T00:00:00+00:00","dosage":[{"doseAndRate":[{"doseQuantity":{"value":1.0,"unit":"TAB","system":"http://terminology.hl7.org/CodeSystem/v3-orderableDrugForm","code":"TAB"}}]}]},"request":{"method":"POST","url":"MedicationStatement"}},{"fullUrl":"MedicationStatement/19bf14f3-6a86-4933-9eac-d2b124601624","resource":{"resourceType":"MedicationStatement","id":"19bf14f3-6a86-4933-9eac-d2b124601624","status":"completed","medicationCodeableConcept":{"coding":[{"system":"http://www.nlm.nih.gov/research/umls/rxnorm","code":"10395"}]},"subject":{"reference":"Patient/388321f5-c776-43ee-b064-9b16acc1b92e"},"effectiveDateTime":"2022-01-08T00:00:00+00:00","dosage":[{"doseAndRate":[{"doseQuantity":{"value":1.0,"unit":"TAB","system":"http://terminology.hl7.org/CodeSystem/v3-orderableDrugForm","code":"TAB"}}]}]},"request":{"method":"POST","url":"MedicationStatement"}},{"fullUrl":"MedicationStatement/045f1874-3208-43fb-817c-00cddca0adb9","resource":{"resourceType":"MedicationStatement","id":"045f1874-3208-43fb-817c-00cddca0adb9","status":"completed","medicationCodeableConcept":{"coding":[{"system":"http://www.nlm.nih.gov/research/umls/rxnorm","code":"7984"}]},"subject":{"reference":"Patient/388321f5-c776-43ee-b064-9b16acc1b92e"},"effectiveDateTime":"2022-02-17T00:00:00+00:00","dosage":[{"doseAndRate":[{"doseQuantity":{"value":4.0,"unit":"TAB","system":"http://terminology.hl7.org/CodeSystem/v3-orderableDrugForm","code":"TAB"}}]}]},"request":{"method":"POST","url":"MedicationStatement"}},{"fullUrl":"MedicationStatement/9b15e46d-89e5-4238-9e61-5d59b59b0540","resource":{"resourceType":"MedicationStatement","id":"9b15e46d-89e5-4238-9e61-5d59b59b0540","status":"completed","medicationCodeableConcept":{"coding":[{"system":"http://www.nlm.nih.gov/research/umls/rxnorm","code":"7984"}]},"subject":{"reference":"Patient/388321f5-c776-43ee-b064-9b16acc1b92e"},"effectiveDateTime":"2022-04-04T00:00:00+00:00","dosage":[{"doseAndRate":[{"doseQuantity":{"value":3.8,"unit":"TAB","system":"http://terminology.hl7.org/CodeSystem/v3-orderableDrugForm","code":"TAB"}}]}]},"request":{"method":"POST","url":"MedicationStatement"}},{"fullUrl":"MedicationStatement/647eb082-e176-437d-b541-71d4431cdd44","resource":{"resourceType":"MedicationStatement","id":"647eb082-e176-437d-b541-71d4431cdd44","status":"completed","medicationCodeableConcept":{"coding":[{"system":"http://www.nlm.nih.gov/research/umls/rxnorm","code":"18631"}]},"subject":{"reference":"Patient/388321f5-c776-43ee-b064-9b16acc1b92e"},"effectiveDateTime":"2022-01-01T00:00:00+00:00","dosage":[{"doseAndRate":[{"doseQuantity":{"value":3.6,"unit":"TAB","system":"http://terminology.hl7.org/CodeSystem/v3-orderableDrugForm","code":"TAB"}}]}]},"request":{"method":"POST","url":"MedicationStatement"}},{"fullUrl":"Encounter/189a33c7-f05b-4c19-92f1-df6093379e6f","resource":{"resourceType":"Encounter","id":"189a33c7-f05b-4c19-92f1-df6093379e6f","status":"finished","class":{"system":"http://terminology.hl7.org/CodeSystem/v3-ActCode","code":"IMP","display":"inpatient encounter"},"type":[{"coding":[{"system":"http://terminology.hl7.org/CodeSystem/encounter-type","code":"ADMS"}]}],"subject":{"reference":"Patient/388321f5-c776-43ee-b064-9b16acc1b92e"},"period":{"start":"2022-07-14T00:00:00+00:00","end":"2022-07-20T00:00:00+00:00"}},"request":{"method":"POST","url":"Encounter"}},{"fullUrl":"Encounter/904e1827-4b9a-480c-8e32-8be2d26a7c2e","resource":{"resourceType":"Encounter","id":"904e1827-4b9a-480c-8e32-8be2d26a7c2e","status":"finished","class":{"system":"http://terminology.hl7.org/CodeSystem/v3-ActCode","code":"IMP","display":"inpatient encounter"},"type":[{"coding":[{"system":"http://terminology.hl7.org/CodeSystem/encounter-type","code":"CCS60"}]}],"subject":{"reference":"Patient/388321f5-c776-43ee-b064-9b16acc1b92e"},"period":{"start":"2022-01-06T00:00:00+00:00","end":"2022-01-07T00:00:00+00:00"}},"request":{"method":"POST","url":"Encounter"}},{"fullUrl":"Encounter/3b438f98-bd1b-4ddd-a88a-a0ac0dc3e913","resource":{"resourceType":"Encounter","id":"3b438f98-bd1b-4ddd-a88a-a0ac0dc3e913","status":"finished","class":{"system":"http://terminology.hl7.org/CodeSystem/v3-ActCode","code":"IMP","display":"inpatient encounter"},"type":[{"coding":[{"system":"http://terminology.hl7.org/CodeSystem/encounter-type","code":"ADMS"}]}],"subject":{"reference":"Patient/388321f5-c776-43ee-b064-9b16acc1b92e"},"period":{"start":"2022-08-17T00:00:00+00:00","end":"2022-08-20T00:00:00+00:00"}},"request":{"method":"POST","url":"Encounter"}},{"fullUrl":"Encounter/c7b486f7-307d-4f69-9b60-cc43ef41e287","resource":{"resourceType":"Encounter","id":"c7b486f7-307d-4f69-9b60-cc43ef41e287","status":"finished","class":{"system":"http://terminology.hl7.org/CodeSystem/v3-ActCode","code":"PRENC","display":"pre-admission"},"type":[{"coding":[{"system":"http://terminology.hl7.org/CodeSystem/encounter-type","code":"BD/BM-clin"}]}],"subject":{"reference":"Patient/388321f5-c776-43ee-b064-9b16acc1b92e"},"period":{"start":"2022-05-21T00:00:00+00:00","end":"2022-05-27T00:00:00+00:00"}},"request":{"method":"POST","url":"Encounter"}},{"fullUrl":"Encounter/f7b55f8a-565c-46d9-b719-66d75a9d0008","resource":{"resourceType":"Encounter","id":"f7b55f8a-565c-46d9-b719-66d75a9d0008","status":"finished","class":{"system":"http://terminology.hl7.org/CodeSystem/v3-ActCode","code":"IMP","display":"inpatient encounter"},"type":[{"coding":[{"system":"http://terminology.hl7.org/CodeSystem/encounter-type","code":"ADMS"}]}],"subject":{"reference":"Patient/388321f5-c776-43ee-b064-9b16acc1b92e"},"period":{"start":"2022-06-25T00:00:00+00:00","end":"2022-06-27T00:00:00+00:00"}},"request":{"method":"POST","url":"Encounter"}},{"fullUrl":"Encounter/6d87b667-f094-4f80-9e8a-93dc5f1afdd0","resource":{"resourceType":"Encounter","id":"6d87b667-f094-4f80-9e8a-93dc5f1afdd0","status":"finished","class":{"system":"http://terminology.hl7.org/CodeSystem/v3-ActCode","code":"SS","display":"short-stay"},"type":[{"coding":[{"system":"http://terminology.hl7.org/CodeSystem/encounter-type","code":"ADMS"}]}],"subject":{"reference":"Patient/388321f5-c776-43ee-b064-9b16acc1b92e"},"period":{"start":"2022-11-09T00:00:00+00:00","end":"2022-11-12T00:00:00+00:00"}},"request":{"method":"POST","url":"Encounter"}},{"fullUrl":"Patient/77afa1d7-f125-465f-9f7a-d94c95915f31","resource":{"resourceType":"Patient","id":"77afa1d7-f125-465f-9f7a-d94c95915f31","identifier":[{"type":{"coding":[{"system":"http://terminology.hl7.org/CodeSystem/v2-0203","code":"MR"}]},"system":"urn:fhirgen:mrn","value":"897-72-7277"}],"name":[{"family":"Hall","given":["Susan"]}],"gender":"female","birthDate":"2000-06-08","address":[{"line":["6918 Christian Track Suite 205"],"city":"Brianport","state":"Arkansas"}]},"request":{"method":"POST","url":"Patient"}},{"fullUrl":"Observation/b63847e8-1572-4f22-bbfc-74b8b54300ef","resource":{"resourceType":"Observation","id":"b63847e8-1572-4f22-bbfc-74b8b54300ef","status":"final","code":{"coding":[{"system":"http://loinc.org","code":"5394-2"}]},"subject":{"reference":"Patient/77afa1d7-f125-465f-9f7a-d94c95915f31"},"effectiveDateTime":"2022-02-19T00:00:00+00:00","valueRatio":{"numerator":{"value":1.0},"denominator":{"value":64.0}}},"request":{"method":"POST","url":"Observation"}},{"fullUrl":"Observation/ec1137d8-fa49-4fd0-9206-559829be0d4a","resource":{"resourceType":"Observation","id":"ec1137d8-fa49-4fd0-9206-559829be0d4a","status":"final","code":{"coding":[{"system":"http://loinc.org","code":"47235-7"}]},"subject":{"reference":"Patient/77afa1d7-f125-465f-9f7a-d94c95915f31"},"effectiveDateTime":"2022-03-18T00:00:00+00:00","valueRatio":{"numerator":{"value":1.0},"denominator":{"value":64.0}}},"request":{"method":"POST","url":"Observation"}},{"fullUrl":"Condition/03657eb8-34b0-47b1-93b4-58035f65b291","resource":{"resourceType":"Condition","id":"03657eb8-34b0-47b1-93b4-58035f65b291","code":{"coding":[{"system":"http://snomed.info/sct","code":"18165001"}]},"subject":{"reference":"Patient/77afa1d7-f125-465f-9f7a-d94c95915f31"},"onsetDateTime":"2022-11-26T00:00:00+00:00"},"request":{"method":"POST","url":"Condition"}},{"fullUrl":"Condition/35507cd3-cdd7-4257-a569-fd9eeb04d9f0","resource":{"resourceType":"Condition","id":"35507cd3-cdd7-4257-a569-fd9eeb04d9f0","code":{"coding":[{"system":"http://snomed.info/sct","code":"297123002"}]},"subject":{"reference":"Patient/77afa1d7-f125-465f-9f7a-d94c95915f31"},"onsetDateTime":"2022-03-06T00:00:00+00:00"},"request":{"method":"POST","url":"Condition"}},{"fullUrl":"Condition/af4992a0-899f-4e5c-9c16-0e4bbb7ceb0e","resource":{"resourceType":"Condition","id":"af4992a0-899f-4e5c-9c16-0e4bbb7ceb0e","code":{"coding":[{"system":"http://snomed.info/sct","code":"736686006"}]},"subject":{"reference":"Patient/77afa1d7-f125-465f-9f7a-d94c95915f31"},"onsetDateTime":"2022-05-01T00:00:00+00:00"},"request":{"method":"POST","url":"Condition"}},{"fullUrl":"Condition/f78a4423-d2aa-4d43-ab92-20e2a389f71f","resource":{"resourceType":"Condition","id":"f78a4423-d2aa-4d43-ab92-20e2a389f71f","code":{"coding":[{"system":"http://snomed.info/sct","code":"736686006"}]},"subject":{"reference":"Patient/77afa1d7-f125-465f-9f7a-d94c95915f31"},"onsetDateTime":"2022-08-29T00:00:00+00:00"},"request":{"method":"POST","url":"Condition"}},{"fullUrl":"Condition/8a986528-c64d-4fd8-9789-f88bcf00d650","resource":{"resourceType":"Condition","id":"8a986528-c64d-4fd8-9789-f88bcf00d650","code":{"coding":[{"system":"http://snomed.info/sct","code":"79342006"}]},"subject":{"reference":"Patient/77afa1d7-f125-465f-9f7a-d94c95915f31"},"onsetDateTime":"2022-09-06T00:00:00+00:00"},"request":{"method":"POST","url":"Condition"}},{"fullUrl":"Condition/44d8194a-28b3-4547-9045-d7a058b36413","resource":{"resourceType":"Condition","id":"44d8194a-28b3-4547-9045-d7a058b36413","code":{"coding":[{"system":"http://snomed.info/sct","code":"30746006"}]},"subject":{"reference":"Patient/77afa1d7-f125-465f-9f7a-d94c95915f31"},"onsetDateTime":"2022-03-23T00:00:00+00:00"},"request":{"method":"POST","url":"Condition"}},{"fullUrl":"Condition/0f483081-cf1e-47bd-83aa-57dceb9e9a6f","resource":{"resourceType":"Condition","id":"0f483081-cf1e-47bd-83aa-57dceb9e9a6f","code":{"coding":[{"system":"http://snomed.info/sct","code":"418290006"}]},"subject":{"reference":"Patient/77afa1d7-f125-465f-9f7a-d94c95915f31"},"onsetDateTime":"2022-01-15T00:00:00+00:00"},"request":{"method":"POST","url":"Condition"}},{"fullUrl":"Observation/ba3ae940-76c5-4cea-833d-533d40d6f51f","resource":{"resourceType":"Observation","id":"ba3ae940-76c5-4cea-833d-533d40d6f51f","status":"final","code":{"coding":[{"system":"http://loinc.org","code":"6690-2"}]},"subject":{"reference":"Patient/77afa1d7-f125-465f-9f7a-d94c95915f31"},"effectiveDateTime":"2022-01-31T00:00:00+00:00","valueQuantity":{"value":8.8}},"request":{"method":"POST","url":"Observation"}},{"fullUrl":"Observation/2a758aef-d6d8-4972-9bfd-b00460343c4f","resource":{"resourceType":"Observation","id":"2a758aef-d6d8-4972-9bfd-b00460343c4f","status":"final","code":{"coding":[{"system":"http://loinc.org","code":"26464-8"}]},"subject":{"reference":"Patient/77afa1d7-f125-465f-9f7a-d94c95915f31"},"effectiveDateTime":"2022-12-23T00:00:00+00:00","valueQuantity":{"value":11.0}},"request":{"method":"POST","url":"Observation"}},{"fullUrl":"Observation/52a166db-b7d3-4b1b-bb26-905274eef61f","resource":{"resourceType":"Observation","id":"52a166db-b7d3-4b1b-bb26-905274eef61f","status":"final","code":{"coding":[{"system":"http://loinc.org","code":"49498-9"}]},"subject":{"reference":"Patient/77afa1d7-f125-465f-9f7a-d94c95915f31"},"effectiveDateTime":"2022-05-07T00:00:00+00:00"},"request":{"method":"POST","url":"Observation"}},{"fullUrl":"Observation/b099fd39-273f-4290-bb8c-de8a1964c427","resource":{"resourceType":"Observation","id":"b099fd39-273f-4290-bb8c-de8a1964c427","status":"final","code":{"coding":[{"system":"http://loinc.org","code":"49498-9"}]},"subject":{"reference":"Patient/77afa1d7-f125-465f-9f7a-d94c95915f31"},"effectiveDateTime":"2022-10-14T00:00:00+00:00"},"request":{"method":"POST","url":"Observation"}},{"fullUrl":"Procedure/2cd3808c-9a87-4a37-a347-64b9a5ddbafe","resource":{"resourceType":"Procedure","id":"2cd3808c-9a87-4a37-a347-64b9a5ddbafe","status":"completed","code":{"coding":[{"system":"http://snomed.info/sct","code":"146005"}]},"subject":{"reference":"Patient/77afa1d7-f125-465f-9f7a-d94c95915f31"},"performedDateTime":"2022-07-16T00:00:00+00:00"},"request":{"method":"POST","url":"Procedure"}},{"fullUrl":"Procedure/49bbe525-dbb3-4fa3-88c4-545c3991aa83","resource":{"resourceType":"Procedure","id":"49bbe525-dbb3-4fa3-88c4-545c3991aa83","status":"completed","code":{"coding":[{"system":"http://snomed.info/sct","code":"647000"}]},"subject":{"reference":"Patient/77afa1d7-f125-465f-9f7a-d94c95915f31"},"performedDateTime":"2022-08-17T00:00:00+00:00"},"request":{"method":"POST","url":"Procedure"}},{"fullUrl":"Procedure/305197b5-4a15-40ad-96b7-e5fdda7f73e0","resource":{"resourceType":"Procedure","id":"305197b5-4a15-40ad-96b7-e5fdda7f73e0","status":"completed","code":{"coding":[{"system":"http://snomed.info/sct","code":"146005"}]},"subject":{"reference":"Patient/77afa1d7-f125-465f-9f7a-d94c95915f31"},"performedDateTime":"2022-10-23T00:00:00+00:00"},"request":{"method":"POST","url":"Procedure"}},{"fullUrl":"MedicationStatement/71ae227d-83ef-4f9e-9bc3-2ac44caa0e7c","resource":{"resourceType":"MedicationStatement","id":"71ae227d-83ef-4f9e-9bc3-2ac44caa0e7c","status":"completed","medicationCodeableConcept":{"coding":[{"system":"http://www.nlm.nih.gov/research/umls/rxnorm","code":"8698"}]},"subject":{"reference":"Patient/77afa1d7-f125-465f-9f7a-d94c95915f31"},"effectiveDateTime":"2022-04-12T00:00:00+00:00","dosage":[{"doseAndRate":[{"doseQuantity":{"value":1.0,"unit":"TAB","system":"http://terminology.hl7.org/CodeSystem/v3-orderableDrugForm","code":"TAB"}}]}]},"request":{"method":"POST","url":"MedicationStatement"}},{"fullUrl":"MedicationStatement/07756d23-a094-4db4-8526-7ea8fb267d24","resource":{"resourceType":"MedicationStatement","id":"07756d23-a094-4db4-8526-7ea8fb267d24","status":"completed","medicationCodeableConcept":{"coding":[{"system":"http://www.nlm.nih.gov/research/umls/rxnorm","code":"7984"}]},"subject":{"reference":"Patient/77afa1d7-f125-465f-9f7a-d94c95915f31"},"effectiveDateTime":"2022-01-16T00:00:00+00:00","dosage":[{"doseAndRate":[{"doseQuantity":{"value":1.0,"unit":"TAB","system":"http://terminology.hl7.org/CodeSystem/v3-orderableDrugForm","code":"TAB"}}]}]},"request":{"method":"POST","url":"MedicationStatement"}},{"fullUrl":"MedicationStatement/0393234e-8c74-41b5-99cc-febafebc448a","resource":{"resourceType":"MedicationStatement","id":"0393234e-8c74-41b5-99cc-febafebc448a","status":"completed","medicationCodeableConcept":{"coding":[{"system":"http://www.nlm.nih.gov/research/umls/rxnorm","code":"8698"}]},"subject":{"reference":"Patient/77afa1d7-f125-465f-9f7a-d94c95915f31"},"effectiveDateTime":"2022-12-22T00:00:00+00:00","dosage":[{"doseAndRate":[{"doseQuantity":{"value":2.0,"unit":"TAB","system":"http://terminology.hl7.org/CodeSystem/v3-orderableDrugForm","code":"TAB"}}]}]},"request":{"method":"POST","url":"MedicationStatement"}},{"fullUrl":"MedicationStatement/716b1b6c-e6b4-4819-a4a5-8e70d047b867","resource":{"resourceType":"MedicationStatement","id":"716b1b6c-e6b4-4819-a4a5-8e70d047b867","status":"completed","medicationCodeableConcept":{"coding":[{"system":"http://www.nlm.nih.gov/research/umls/rxnorm","code":"7980"}]},"subject":{"reference":"Patient/77afa1d7-f125-465f-9f7a-d94c95915f31"},"effectiveDateTime":"2022-05-20T00:00:00+00:00","dosage":[{"doseAndRate":[{"doseQuantity":{"value":1.0,"unit":"TAB","system":"http://terminology.hl7.org/CodeSystem/v3-orderableDrugForm","code":"TAB"}}]}]},"request":{"method":"POST","url":"MedicationStatement"}},{"fullUrl":"MedicationStatement/04fbb1f6-af8d-42f8-8961-51f96a79652d","resource":{"resourceType":"MedicationStatement","id":"04fbb1f6-af8d-42f8-8961-51f96a79652d","status":"completed","medicationCodeableConcept":{"coding":[{"system":"http://www.nlm.nih.gov/research/umls/rxnorm","code":"18631"}]},"subject":{"reference":"Patient/77afa1d7-f125-465f-9f7a-d94c95915f31"},"effectiveDateTime":"2022-03-18T00:00:00+00:00","dosage":[{"doseAndRate":[{"doseQuantity":{"value":4.4,"unit":"TAB","system":"http://terminology.hl7.org/CodeSystem/v3-orderableDrugForm","code":"TAB"}}]}]},"request":{"method":"POST","url":"MedicationStatement"}},{"fullUrl":"MedicationStatement/f5ed26db-7c44-4dfa-8ae7-21188c29f933","resource":{"resourceType":"MedicationStatement","id":"f5ed26db-7c44-4dfa-8ae7-21188c29f933","status":"completed","medicationCodeableConcept":{"coding":[{"system":"http://www.nlm.nih.gov/research/umls/rxnorm","code":"10395"}]},"subject":{"reference":"Patient/77afa1d7-f125-465f-9f7a-d94c95915f31"},"effectiveDateTime":"2022-02-10T00:00:00+00:00","dosage":[{"doseAndRate":[{"doseQuantity":{"value":4.0,"unit":"TAB","system":"http://terminology.hl7.org/CodeSystem/v3-orderableDrugForm","code":"TAB"}}]}]},"request":{"method":"POST","url":"MedicationStatement"}},{"fullUrl":"Encounter/32912fdd-fabd-4925-a4c2-16fe741d6301","resource":{"resourceType":"Encounter","id":"32912fdd-fabd-4925-a4c2-16fe741d6301","status":"finished","class":{"system":"http://terminology.hl7.org/CodeSystem/v3-ActCode","code":"IMP","display":"inpatient encounter"},"type":[{"coding":[{"system":"http://terminology.hl7.org/CodeSystem/encounter-type","code":"OKI"}]}],"subject":{"reference":"Patient/77afa1d7-f125-465f-9f7a-d94c95915f31"},"period":{"start":"2022-01-16T00:00:00+00:00","end":"2022-01-25T00:00:00+00:00"}},"request":{"method":"POST","url":"Encounter"}},{"fullUrl":"Encounter/46b6cc52-4fe2-45cb-9bf3-246cb4669496","resource":{"resourceType":"Encounter","id":"46b6cc52-4fe2-45cb-9bf3-246cb4669496","status":"finished","class":{"system":"http://terminology.hl7.org/CodeSystem/v3-ActCode","code":"IMP","display":"inpatient encounter"},"type":[{"coding":[{"system":"http://terminology.hl7.org/CodeSystem/encounter-type","code":"BD/BM-clin"}]}],"subject":{"reference":"Patient/77afa1d7-f125-465f-9f7a-d94c95915f31"},"period":{"start":"2022-12-30T00:00:00+00:00","end":"2023-01-06T00:00:00+00:00"}},"request":{"method":"POST","url":"Encounter"}},{"fullUrl":"Encounter/da84ab1e-c0ad-4bce-9104-be715b18eebf","resource":{"resourceType":"Encounter","id":"da84ab1e-c0ad-4bce-9104-be715b18eebf","status":"finished","class":{"system":"http://terminology.hl7.org/CodeSystem/v3-ActCode","code":"IMP","display":"inpatient encounter"},"type":[{"coding":[{"system":"http://terminology.hl7.org/CodeSystem/encounter-type","code":"CCS60"}]}],"subject":{"reference":"Patient/77afa1d7-f125-465f-9f7a-d94c95915f31"},"period":{"start":"2022-09-18T00:00:00+00:00","end":"2022-09-20T00:00:00+00:00"}},"request":{"method":"POST","url":"Encounter"}},{"fullUrl":"Encounter/3c50cf2b-7c5f-4fdc-91f0-e0a5dadf7aae","resource":{"resourceType":"Encounter","id":"3c50cf2b-7c5f-4fdc-91f0-e0a5dadf7aae","status":"finished","class":{"system":"http://terminology.hl7.org/CodeSystem/v3-ActCode","code":"AMB","display":"ambulatory"},"type":[{"coding":[{"system":"http://terminology.hl7.org/CodeSystem/encounter-type","code":"OKI"}]}],"subject":{"reference":"Patient/77afa1d7-f125-465f-9f7a-d94c95915f31"},"period":{"start":"2022-05-28T00:00:00+00:00","end":"2022-06-03T00:00:00+00:00"}},"request":{"method":"POST","url":"Encounter"}},{"fullUrl":"Encounter/6dd3a04d-3297-49a8-b6cf-288f9f7e22c8","resource":{"resourceType":"Encounter","id":"6dd3a04d-3297-49a8-b6cf-288f9f7e22c8","status":"finished","class":{"system":"http://terminology.hl7.org/CodeSystem/v3-ActCode","code":"IMP","display":"inpatient encounter"},"type":[{"coding":[{"system":"http://terminology.hl7.org/CodeSystem/encounter-type","code":"ADMS"}]}],"subject":{"reference":"Patient/77afa1d7-f125-465f-9f7a-d94c95915f31"},"period":{"start":"2022-07-02T00:00:00+00:00","end":"2022-07-11T00:00:00+00:00"}},"request":{"method":"POST","url":"Encounter"}},{"fullUrl":"Encounter/4ded0f89-bc8f-4eba-a5ff-b7e84ff76381","resource":{"resourceType":"Encounter","id":"4ded0f89-bc8f-4eba-a5ff-b7e84ff76381","status":"finished","class":{"system":"http://terminology.hl7.org/CodeSystem/v3-ActCode","code":"IMP","display":"inpatient encounter"},"type":[{"coding":[{"system":"http://terminology.hl7.org/CodeSystem/encounter-type","code":"CCS60"}]}],"subject":{"reference":"Patient/77afa1d7-f125-465f-9f7a-d94c95915f31"},"period":{"start":"2022-06-17T00:00:00+00:00","end":"2022-06-17T00:00:00+00:00"}},"request":{"method":"POST","url":"Encounter"}},{"fullUrl":"Patient/107a224c-269d-41a2-82a6-c407f07ac7ee","resource":{"resourceType":"Patient","id":"107a224c-269d-41a2-82a6-c407f07ac7ee","identifier":[{"type":{"coding":[{"system":"http://terminology.hl7.org/CodeSystem/v2-0203","code":"MR"}]},"system":"urn:fhirgen:mrn","value":"208-17-0260"}],"name":[{"family":"Pierce","given":["Mary"]}],"gender":"female","birthDate":"1979-11-17","address":[{"line":["041 Kane Circles Apt. 856"],"city":"Harmonland","state":"Pennsylvania"}]},"request":{"method":"POST","url":"Patient"}},{"fullUrl":"Observation/8990c40a-8c7d-42b5-ac50-e4440adcd7d7","resource":{"resourceType":"Observation","id":"8990c40a-8c7d-42b5-ac50-e4440adcd7d7","status":"final","code":{"coding":[{"system":"http://loinc.org","code":"31147-2"}]},"subject":{"reference":"Patient/107a224c-269d-41a2-82a6-c407f07ac7ee"},"effectiveDateTime":"2022-04-16T00:00:00+00:00","valueRatio":{"numerator":{"value":1.0},"denominator":{"value":4.0}}},"request":{"method":"POST","url":"Observation"}},{"fullUrl":"Observation/e4a313ae-f62f-4a8d-9ed5-150608eb7c5e","resource":{"resourceType":"Observation","id":"e4a313ae-f62f-4a8d-9ed5-150608eb7c5e","status":"final","code":{"coding":[{"system":"http://loinc.org","code":"51475-2"}]},"subject":{"reference":"Patient/107a224c-269d-41a2-82a6-c407f07ac7ee"},"effectiveDateTime":"2022-07-13T00:00:00+00:00","valueRatio":{"numerator":{"value":1.0},"denominator":{"value":32.0}}},"request":{"method":"POST","url":"Observation"}},{"fullUrl":"Observation/ac2f1ddd-2d15-4013-b4bf-77c6d707bd3f","resource":{"resourceType":"Observation","id":"ac2f1ddd-2d15-4013-b4bf-77c6d707bd3f","status":"final","code":{"coding":[{"system":"http://loinc.org","code":"46203-6"}]},"subject":{"reference":"Patient/107a224c-269d-41a2-82a6-c407f07ac7ee"},"effectiveDateTime":"2022-10-26T00:00:00+00:00","valueRatio":{"numerator":{"value":1.0},"denominator":{"value":64.0}}},"request":{"method":"POST","url":"Observation"}},{"fullUrl":"Condition/71513926-f5bf-4aa0-a0c5-8dfc7624cc9f","resource":{"resourceType":"Condition","id":"71513926-f5bf-4aa0-a0c5-8dfc7624cc9f","code":{"coding":[{"system":"http://snomed.info/sct","code":"44882003"}]},"subject":{"reference":"Patient/107a224c-269d-41a2-82a6-c407f07ac7ee"},"onsetDateTime":"2022-01-06T00:00:00+00:00"},"request":{"method":"POST","url":"Condition"}},{"fullUrl":"Condition/3f9beb68-6c53-423c-b86a-360dc7f005f7","resource":{"resourceType":"Condition","id":"3f9beb68-6c53-423c-b86a-360dc7f005f7","code":{"coding":[{"system":"http://snomed.info/sct","code":"30746006"}]},"subject":{"reference":"Patient/107a224c-269d-41a2-82a6-c407f07ac7ee"},"onsetDateTime":"2022-07-09T00:00:00+00:00"},"request":{"method":"POST","url":"Condition"}},{"fullUrl":"Condition/45529c94-fdb0-4033-9f2e-165ff39f966a","resource":{"resourceType":"Condition","id":"45529c94-fdb0-4033-9f2e-165ff39f966a","code":{"coding":[{"system":"http://snomed.info/sct","code":"91554004"}]},"subject":{"reference":"Patient/107a224c-269d-41a2-82a6-c407f07ac7ee"},"onsetDateTime":"2022-12-31T00:00:00+00:00"},"request":{"method":"POST","url":"Condition"}},{"fullUrl":"Observation/5256e9fe-91f8-466f-863e-5a9287fe8ab6","resource":{"resourceType":"Observation","id":"5256e9fe-91f8-466f-863e-5a9287fe8ab6","status":"final","code":{"coding":[{"system":"http://www.ama-assn.org/go/cpt","code":"85048"}]},"subject":{"reference":"Patient/107a224c-269d-41a2-82a6-c407f07ac7ee"},"effectiveDateTime":"2022-10-13T00:00:00+00:00","valueQuantity":{"value":8.0}},"request":{"method":"POST","url":"Observation"}},{"fullUrl":"Observation/107cb442-5816-4324-8e99-f7ed5365f8e0","resource":{"resourceType":"Observation","id":"107cb442-5816-4324-8e99-f7ed5365f8e0","status":"final","code":{"coding":[{"system":"http://www.ama-assn.org/go/cpt","code":"85048"}]},"subject":{"reference":"Patient/107a224c-269d-41a2-82a6-c407f07ac7ee"},"effectiveDateTime":"2022-11-14T00:00:00+00:00","valueQuantity":{"value":11.0}},"request":{"method":"POST","url":"Observation"}},{"fullUrl":"Observation/78e7f387-4a84-4692-85cc-a34d4d4412fa","resource":{"resourceType":"Observation","id":"78e7f387-4a84-4692-85cc-a34d4d4412fa","status":"final","code":{"coding":[{"system":"http://loinc.org","code":"49498-9"}]},"subject":{"reference":"Patient/107a224c-269d-41a2-82a6-c407f07ac7ee"},"effectiveDateTime":"2022-06-29T00:00:00+00:00"},"request":{"method":"POST","url":"Observation"}},{"fullUrl":"Observation/1a3135ba-2b1e-4936-a3b7-ab2a01af5eeb","resource":{"resourceType":"Observation","id":"1a3135ba-2b1e-4936-a3b7-ab2a01af5eeb","status":"final","code":{"coding":[{"system":"http://loinc.org","code":"49498-9"}]},"subject":{"reference":"Patient/107a224c-269d-41a2-82a6-c407f07ac7ee"},"effectiveDateTime":"2022-01-27T00:00:00+00:00"},"request":{"method":"POST","url":"Observation"}},{"fullUrl":"Procedure/3f5f0926-943a-41cf-b6b0-6a94111647cc","resource":{"resourceType":"Procedure","id":"3f5f0926-943a-41cf-b6b0-6a94111647cc","status":"completed","code":{"coding":[{"system":"http://snomed.info/sct","code":"146005"}]},"subject":{"reference":"Patient/107a224c-269d-41a2-82a6-c407f07ac7ee"},"performedDateTime":"2022-11-17T00:00:00+00:00"},"request":{"method":"POST","url":"Procedure"}},{"fullUrl":"Procedure/f5fbd6c1-9c14-4c60-8d59-964b2ef56232","resource":{"resourceType":"Procedure","id":"f5fbd6c1-9c14-4c60-8d59-964b2ef56232","status":"completed","code":{"coding":[{"system":"http://snomed.info/sct","code":"146005"}]},"subject":{"reference":"Patient/107a224c-269d-41a2-82a6-c407f07ac7ee"},"performedDateTime":"2022-08-18T00:00:00+00:00"},"request":{"method":"POST","url":"Procedure"}},{"fullUrl":"Procedure/040f1b46-587a-462b-ba06-fa3f4c67194b","resource":{"resourceType":"Procedure","id":"040f1b46-587a-462b-ba06-fa3f4c67194b","status":"completed","code":{"coding":[{"system":"http://snomed.info/sct","code":"189009"}]},"subject":{"reference":"Patient/107a224c-269d-41a2-82a6-c407f07ac7ee"},"performedDateTime":"2022-01-11T00:00:00+00:00"},"request":{"method":"POST","url":"Procedure"}},{"fullUrl":"MedicationStatement/3e46180d-ce43-49aa-bc0d-58920019a0aa","resource":{"resourceType":"MedicationStatement","id":"3e46180d-ce43-49aa-bc0d-58920019a0aa","status":"completed","medicationCodeableConcept":{"coding":[{"system":"http://www.nlm.nih.gov/research/umls/rxnorm","code":"3640"}]},"subject":{"reference":"Patient/107a224c-269d-41a2-82a6-c407f07ac7ee"},"effectiveDateTime":"2022-01-11T00:00:00+00:00","dosage":[{"doseAndRate":[{"doseQuantity":{"value":2.0,"unit":"TAB","system":"http://terminology.hl7.org/CodeSystem/v3-orderableDrugForm","code":"TAB"}}]}]},"request":{"method":"POST","url":"MedicationStatement"}},{"fullUrl":"MedicationStatement/9e43c5c5-9414-4e56-a0fc-c1b72ac8cc8b","resource":{"resourceType":"MedicationStatement","id":"9e43c5c5-9414-4e56-a0fc-c1b72ac8cc8b","status":"completed","medicationCodeableConcept":{"coding":[{"system":"http://www.nlm.nih.gov/research/umls/rxnorm","code":"3640"}]},"subject":{"reference":"Patient/107a224c-269d-41a2-82a6-c407f07ac7ee"},"effectiveDateTime":"2022-01-21T00:00:00+00:00","dosage":[{"doseAndRate":[{"doseQuantity":{"value":2.0,"unit":"TAB","system":"http://terminology.hl7.org/CodeSystem/v3-orderableDrugForm","code":"TAB"}}]}]},"request":{"method":"POST","url":"MedicationStatement"}},{"fullUrl":"MedicationStatement/b3e23b22-edf5-4d7b-8b34-c342ae642d4a","resource":{"resourceType":"MedicationStatement","id":"b3e23b22-edf5-4d7b-8b34-c342ae642d4a","status":"completed","medicationCodeableConcept":{"coding":[{"system":"http://www.nlm.nih.gov/research/umls/rxnorm","code":"8698"}]},"subject":{"reference":"Patient/107a224c-269d-41a2-82a6-c407f07ac7ee"},"effectiveDateTime":"2022-07-28T00:00:00+00:00","dosage":[{"doseAndRate":[{"doseQuantity":{"value":1.0,"unit":"TAB","system":"http://terminology.hl7.org/CodeSystem/v3-orderableDrugForm","code":"TAB"}}]}]},"request":{"method":"POST","url":"MedicationStatement"}},{"fullUrl":"MedicationStatement/b7e84c8d-db17-4bba-b608-54732dda9e67","resource":{"resourceType":"MedicationStatement","id":"b7e84c8d-db17-4bba-b608-54732dda9e67","status":"completed","medicationCodeableConcept":{"coding":[{"system":"http://www.nlm.nih.gov/research/umls/rxnorm","code":"7980"}]},"subject":{"reference":"Patient/107a224c-269d-41a2-82a6-c407f07ac7ee"},"effectiveDateTime":"2022-06-28T00:00:00+00:00","dosage":[{"doseAndRate":[{"doseQuantity":{"value":1.0,"unit":"TAB","system":"http://terminology.hl7.org/CodeSystem/v3-orderableDrugForm","code":"TAB"}}]}]},"request":{"method":"POST","url":"MedicationStatement"}},{"fullUrl":"MedicationStatement/b9b5822b-4ac3-4e45-bd71-4c89641c149a","resource":{"resourceType":"MedicationStatement","id":"b9b5822b-4ac3-4e45-bd71-4c89641c149a","status":"completed","medicationCodeableConcept":{"coding":[{"system":"http://www.nlm.nih.gov/research/umls/rxnorm","code":"10395"}]},"subject":{"reference":"Patient/107a224c-269d-41a2-82a6-c407f07ac7ee"},"effectiveDateTime":"2022-05-17T00:00:00+00:00","dosage":[{"doseAndRate":[{"doseQuantity":{"value":6.0,"unit":"TAB","system":"http://terminology.hl7.org/CodeSystem/v3-orderableDrugForm","code":"TAB"}}]}]},"request":{"method":"POST","url":"MedicationStatement"}},{"fullUrl":"MedicationStatement/3826b587-2d2d-4e8a-a390-7684198f6901","resource":{"resourceType":"MedicationStatement","id":"3826b587-2d2d-4e8a-a390-7684198f6901","status":"completed","medicationCodeableConcept":{"coding":[{"system":"http://www.nlm.nih.gov/research/umls/rxnorm","code":"7984"}]},"subject":{"reference":"Patient/107a224c-269d-41a2-82a6-c407f07ac7ee"},"effectiveDateTime":"2022-03-10T00:00:00+00:00","dosage":[{"doseAndRate":[{"doseQuantity":{"value":3.8,"unit":"TAB","system":"http://terminology.hl7.org/CodeSystem/v3-orderableDrugForm","code":"TAB"}}]}]},"request":{"method":"POST","url":"MedicationStatement"}},{"fullUrl":"MedicationStatement/4e8fa4d5-cef4-47d6-bfd6-a981df013d11","resource":{"resourceType":"MedicationStatement","id":"4e8fa4d5-cef4-47d6-bfd6-a981df013d11","status":"completed","medicationCodeableConcept":{"coding":[{"system":"http://www.nlm.nih.gov/research/umls/rxnorm","code":"7980"}]},"subject":{"reference":"Patient/107a224c-269d-41a2-82a6-c407f07ac7ee"},"effectiveDateTime":"2022-12-18T00:00:00+00:00","dosage":[{"doseAndRate":[{"doseQuantity":{"value":4.7,"unit":"TAB","system":"http://terminology.hl7.org/CodeSystem/v3-orderableDrugForm","code":"TAB"}}]}]},"request":{"method":"POST","url":"MedicationStatement"}},{"fullUrl":"MedicationStatement/102bd19f-d79f-4b99-9823-101654319d25","resource":{"resourceType":"MedicationStatement","id":"102bd19f-d79f-4b99-9823-101654319d25","status":"completed","medicationCodeableConcept":{"coding":[{"system":"http://www.nlm.nih.gov/research/umls/rxnorm","code":"3640"}]},"subject":{"reference":"Patient/107a224c-269d-41a2-82a6-c407f07ac7ee"},"effectiveDateTime":"2022-05-22T00:00:00+00:00","dosage":[{"doseAndRate":[{"doseQuantity":{"value":3.7,"unit":"TAB","system":"http://terminology.hl7.org/CodeSystem/v3-orderableDrugForm","code":"TAB"}}]}]},"request":{"method":"POST","url":"MedicationStatement"}},{"fullUrl":"MedicationStatement/0bb06d21-a39a-4730-9a93-b5076fc65e4e","resource":{"resourceType":"MedicationStatement","id":"0bb06d21-a39a-4730-9a93-b5076fc65e4e","status":"completed","medicationCodeableConcept":{"coding":[{"system":"http://www.nlm.nih.gov/research/umls/rxnorm","code":"7984"}]},"subject":{"reference":"Patient/107a224c-269d-41a2-82a6-c407f07ac7ee"},"effectiveDateTime":"2022-03-07T00:00:00+00:00","dosage":[{"doseAndRate":[{"doseQuantity":{"value":3.3,"unit":"TAB","system":"http://terminology.hl7.org/CodeSystem/v3-orderableDrugForm","code":"TAB"}}]}]},"request":{"method":"POST","url":"MedicationStatement"}},{"fullUrl":"Encounter/cb862a55-7f0d-4307-83ec-36153f2b956f","resource":{"resourceType":"Encounter","id":"cb862a55-7f0d-4307-83ec-36153f2b956f","status":"finished","class":{"system":"http://terminology.hl7.org/CodeSystem/v3-ActCode","code":"IMP","display":"inpatient encounter"},"type":[{"coding":[{"system":"http://terminology.hl7.org/CodeSystem/encounter-type","code":"CCS60"}]}],"subject":{"reference":"Patient/107a224c-269d-41a2-82a6-c407f07ac7ee"},"period":{"start":"2022-12-06T00:00:00+00:00","end":"2022-12-14T00:00:00+00:00"}},"request":{"method":"POST","url":"Encounter"}},{"fullUrl":"Encounter/2e026436-4a35-400e-85be-94a82e0ba745","resource":{"resourceType":"Encounter","id":"2e026436-4a35-400e-85be-94a82e0ba745","status":"finished","class":{"system":"http://terminology.hl7.org/CodeSystem/v3-ActCode","code":"IMP","display":"inpatient encounter"},"type":[{"coding":[{"system":"http://terminology.hl7.org/CodeSystem/encounter-type","code":"OKI"}]}],"subject":{"reference":"Patient/107a224c-269d-41a2-82a6-c407f07ac7ee"},"period":{"start":"2022-04-06T00:00:00+00:00","end":"2022-04-08T00:00:00+00:00"}},"request":{"method":"POST","url":"Encounter"}},{"fullUrl":"Encounter/ae595621-58bd-40ce-b615-8a34cdebc0ce","resource":{"resourceType":"Encounter","id":"ae595621-58bd-40ce-b615-8a34cdebc0ce","status":"finished","class":{"system":"http://terminology.hl7.org/CodeSystem/v3-ActCode","code":"IMP","display":"inpatient encounter"},"type":[{"coding":[{"system":"http://terminology.hl7.org/CodeSystem/encounter-type","code":"OKI"}]}],"subject":{"reference":"Patient/107a224c-269d-41a2-82a6-c407f07ac7ee"},"period":{"start":"2022-10-04T00:00:00+00:00","end":"2022-10-06T00:00:00+00:00"}},"request":{"method":"POST","url":"Encounter"}},{"fullUrl":"Encounter/29c17af4-b50f-4d80-ada8-ab920f79eecd","resource":{"resourceType":"Encounter","id":"29c17af4-b50f-4d80-ada8-ab920f79eecd","status":"finished","class":{"system":"http://terminology.hl7.org/CodeSystem/v3-ActCode","code":"SS","display":"short-stay"},"type":[{"coding":[{"system":"http://terminology.hl7.org/CodeSystem/encounter-type","code":"BD/BM-clin"}]}],"subject":{"reference":"Patient/107a224c-269d-41a2-82a6-c407f07ac7ee"},"period":{"start":"2022-07-19T00:00:00+00:00","end":"2022-07-27T00:00:00+00:00"}},"request":{"method":"POST","url":"Encounter"}},{"fullUrl":"Encounter/b27a8181-0641-48ab-bac9-2f603cfba424","resource":{"resourceType":"Encounter","id":"b27a8181-0641-48ab-bac9-2f603cfba424","status":"finished","class":{"system":"http://terminology.hl7.org/CodeSystem/v3-ActCode","code":"PRENC","display":"pre-admission"},"type":[{"coding":[{"system":"http://terminology.hl7.org/CodeSystem/encounter-type","code":"CCS60"}]}],"subject":{"reference":"Patient/107a224c-269d-41a2-82a6-c407f07ac7ee"},"period":{"start":"2022-01-03T00:00:00+00:00","end":"2022-01-07T00:00:00+00:00"}},"request":{"method":"POST","url":"Encounter"}},{"fullUrl":"Encounter/8b7e4602-086e-4ae2-9389-c1be5bba606e","resource":{"resourceType":"Encounter","id":"8b7e4602-086e-4ae2-9389-c1be5bba606e","status":"finished","class":{"system":"http://terminology.hl7.org/CodeSystem/v3-ActCode","code":"HH","display":"home health"},"type":[{"coding":[{"system":"http://terminology.hl7.org/CodeSystem/encounter-type","code":"CCS60"}]}],"subject":{"reference":"Patient/107a224c-269d-41a2-82a6-c407f07ac7ee"},"period":{"start":"2022-04-06T00:00:00+00:00","end":"2022-04-15T00:00:00+00:00"}},"request":{"method":"POST","url":"Encounter"}},{"fullUrl":"Patient/f00e9793-777e-472c-8b79-c20dfa877fcc","resource":{"resourceType":"Patient","id":"f00e9793-777e-472c-8b79-c20dfa877fcc","identifier":[{"type":{"coding":[{"system":"http://terminology.hl7.org/CodeSystem/v2-0203","code":"MR"}]},"system":"urn:fhirgen:mrn","value":"702-81-9561"}],"name":[{"family":"Parker","given":["Lisa"]}],"gender":"other","birthDate":"1945-03-11","address":[{"line":["4832 Lee Loop"],"city":"Jamesburgh","state":"Utah"}]},"request":{"method":"POST","url":"Patient"}},{"fullUrl":"Observation/59af0132-b173-4cca-8ccc-6909903681d6","resource":{"resourceType":"Observation","id":"59af0132-b173-4cca-8ccc-6909903681d6","status":"final","code":{"coding":[{"system":"http://loinc.org","code":"31146-4"}]},"subject":{"reference":"Patient/f00e9793-777e-472c-8b79-c20dfa877fcc"},"effectiveDateTime":"2022-08-09T00:00:00+00:00","valueRatio":{"numerator":{"value":1.0},"denominator":{"value":64.0}}},"request":{"method":"POST","url":"Observation"}},{"fullUrl":"Observation/4ae69e45-8c33-4411-8cec-45866405e1e6","resource":{"resourceType":"Observation","id":"4ae69e45-8c33-4411-8cec-45866405e1e6","status":"final","code":{"coding":[{"system":"http://loinc.org","code":"26009-1"}]},"subject":{"reference":"Patient/f00e9793-777e-472c-8b79-c20dfa877fcc"},"effectiveDateTime":"2022-08-08T00:00:00+00:00","valueRatio":{"numerator":{"value":1.0},"denominator":{"value":64.0}}},"request":{"method":"POST","url":"Observation"}},{"fullUrl":"Condition/710e93f7-e677-4e46-aeb4-176c6bd52afd","resource":{"resourceType":"Condition","id":"710e93f7-e677-4e46-aeb4-176c6bd52afd","code":{"coding":[{"system":"http://snomed.info/sct","code":"271807003"}]},"subject":{"reference":"Patient/f00e9793-777e-472c-8b79-c20dfa877fcc"},"onsetDateTime":"2022-10-24T00:00:00+00:00"},"request":{"method":"POST","url":"Condition"}},{"fullUrl":"Condition/b8b52084-8083-464b-b5b3-7f9165adea49","resource":{"resourceType":"Condition","id":"b8b52084-8083-464b-b5b3-7f9165adea49","code":{"coding":[{"system":"http://snomed.info/sct","code":"44882003"}]},"subject":{"reference":"Patient/f00e9793-777e-472c-8b79-c20dfa877fcc"},"onsetDateTime":"2022-10-15T00:00:00+00:00"},"request":{"method":"POST","url":"Condition"}},{"fullUrl":"Condition/67c2d045-9559-4168-951e-b0ed5316ef3b","resource":{"resourceType":"Condition","id":"67c2d045-9559-4168-951e-b0ed5316ef3b","code":{"coding":[{"system":"http://snomed.info/sct","code":"56317004"}]},"subject":{"reference":"Patient/f00e9793-777e-472c-8b79-c20dfa877fcc"},"onsetDateTime":"2022-09-23T00:00:00+00:00"},"request":{"method":"POST","url":"Condition"}},{"fullUrl":"Condition/06a36644-e0fc-46fb-ad93-90450a3d0a72","resource":{"resourceType":"Condition","id":"06a36644-e0fc-46fb-ad93-90450a3d0a72","code":{"coding":[{"system":"http://snomed.info/sct","code":"21522001"}]},"subject":{"reference":"Patient/f00e9793-777e-472c-8b79-c20dfa877fcc"},"onsetDateTime":"2022-01-08T00:00:00+00:00"},"request":{"method":"POST","url":"Condition"}},{"fullUrl":"Condition/2a92e242-7c94-4f06-ae8d-36b51c7b2838","resource":{"resourceType":"Condition","id":"2a92e242-7c94-4f06-ae8d-36b51c7b2838","code":{"coding":[{"system":"http://snomed.info/sct","code":"418290006"}]},"subject":{"reference":"Patient/f00e9793-777e-472c-8b79-c20dfa877fcc"},"onsetDateTime":"2022-01-09T00:00:00+00:00"},"request":{"method":"POST","url":"Condition"}},{"fullUrl":"Observation/d93169b7-2646-474e-82f1-5f762e661dbc","resource":{"resourceType":"Observation","id":"d93169b7-2646-474e-82f1-5f762e661dbc","status":"final","code":{"coding":[{"system":"http://loinc.org","code":"6690-2"}]},"subject":{"reference":"Patient/f00e9793-777e-472c-8b79-c20dfa877fcc"},"effectiveDateTime":"2022-09-15T00:00:00+00:00","valueQuantity":{"value":7.0}},"request":{"method":"POST","url":"Observation"}},{"fullUrl":"Observation/dbc76045-125d-41d4-bdf5-a7525a1a5459","resource":{"resourceType":"Observation","id":"dbc76045-125d-41d4-bdf5-a7525a1a5459","status":"final","code":{"coding":[{"system":"http://loinc.org","code":"26464-8"}]},"subject":{"reference":"Patient/f00e9793-777e-472c-8b79-c20dfa877fcc"},"effectiveDateTime":"2022-02-15T00:00:00+00:00","valueQuantity":{"value":10.6}},"request":{"method":"POST","url":"Observation"}},{"fullUrl":"Observation/903e4982-237d-4f99-9371-d36942ff146f","resource":{"resourceType":"Observation","id":"903e4982-237d-4f99-9371-d36942ff146f","status":"final","code":{"coding":[{"system":"http://loinc.org","code":"6690-2"}]},"subject":{"reference":"Patient/f00e9793-777e-472c-8b79-c20dfa877fcc"},"effectiveDateTime":"2022-10-07T00:00:00+00:00","valueQuantity":{"value":7.5}},"request":{"method":"POST","url":"Observation"}},{"fullUrl":"Observation/31d6fb42-a6a1-496c-981b-422263fc79fa","resource":{"resourceType":"Observation","id":"31d6fb42-a6a1-496c-981b-422263fc79fa","status":"final","code":{"coding":[{"system":"http://loinc.org","code":"49498-9"}]},"subject":{"reference":"Patient/f00e9793-777e-472c-8b79-c20dfa877fcc"},"effectiveDateTime":"2022-11-10T00:00:00+00:00"},"request":{"method":"POST","url":"Observation"}},{"fullUrl":"Observation/c535090f-c4eb-4384-b6af-662e16835b73","resource":{"resourceType":"Observation","id":"c535090f-c4eb-4384-b6af-662e16835b73","status":"final","code":{"coding":[{"system":"http://loinc.org","code":"49498-9"}]},"subject":{"reference":"Patient/f00e9793-777e-472c-8b79-c20dfa877fcc"},"effectiveDateTime":"2022-11-27T00:00:00+00:00"},"request":{"method":"POST","url":"Observation"}},{"fullUrl":"Procedure/c8890b83-1d10-4a26-a88f-bb4308479a25","resource":{"resourceType":"Procedure","id":"c8890b83-1d10-4a26-a88f-bb4308479a25","status":"completed","code":{"coding":[{"system":"http://snomed.info/sct","code":"189009"}]},"subject":{"reference":"Patient/f00e9793-777e-472c-8b79-c20dfa877fcc"},"performedDateTime":"2022-06-29T00:00:00+00:00"},"request":{"method":"POST","url":"Procedure"}},{"fullUrl":"Procedure/f6c94fda-9c44-409e-a3d5-11d3692c6fc3","resource":{"resourceType":"Procedure","id":"f6c94fda-9c44-409e-a3d5-11d3692c6fc3","status":"completed","code":{"coding":[{"system":"http://snomed.info/sct","code":"104001"}]},"subject":{"reference":"Patient/f00e9793-777e-472c-8b79-c20dfa877fcc"},"performedDateTime":"2022-04-07T00:00:00+00:00"},"request":{"method":"POST","url":"Procedure"}},{"fullUrl":"Procedure/b5225740-7dfb-4167-b6da-f88d393117a6","resource":{"resourceType":"Procedure","id":"b5225740-7dfb-4167-b6da-f88d393117a6","status":"completed","code":{"coding":[{"system":"http://snomed.info/sct","code":"647000"}]},"subject":{"reference":"Patient/f00e9793-777e-472c-8b79-c20dfa877fcc"},"performedDateTime":"2022-06-06T00:00:00+00:00"},"request":{"method":"POST","url":"Procedure"}},{"fullUrl":"MedicationStatement/f5508a07-90c9-46b8-ace7-00812287d97d","resource":{"resourceType":"MedicationStatement","id":"f5508a07-90c9-46b8-ace7-00812287d97d","status":"completed","medicationCodeableConcept":{"coding":[{"system":"http://www.nlm.nih.gov/research/umls/rxnorm","code":"2193"}]},"subject":{"reference":"Patient/f00e9793-777e-472c-8b79-c20dfa877fcc"},"effectiveDateTime":"2022-07-05T00:00:00+00:00","dosage":[{"doseAndRate":[{"doseQuantity":{"value":1.0,"unit":"TAB","system":"http://terminology.hl7.org/CodeSystem/v3-orderableDrugForm","code":"TAB"}}]}]},"request":{"method":"POST","url":"MedicationStatement"}},{"fullUrl":"MedicationStatement/24b8eeb1-e663-47ae-8d87-e817d05bdcef","resource":{"resourceType":"MedicationStatement","id":"24b8eeb1-e663-47ae-8d87-e817d05bdcef","status":"completed","medicationCodeableConcept":{"coding":[{"system":"http://www.nlm.nih.gov/research/umls/rxnorm","code":"7984"}]},"subject":{"reference":"Patient/f00e9793-777e-472c-8b79-c20dfa877fcc"},"effectiveDateTime":"2022-10-04T00:00:00+00:00","dosage":[{"doseAndRate":[{"doseQuantity":{"value":1.0,"unit":"TAB","system":"http://terminology.hl7.org/CodeSystem/v3-orderableDrugForm","code":"TAB"}}]}]},"request":{"method":"POST","url":"MedicationStatement"}},{"fullUrl":"MedicationStatement/4a5af791-f985-441b-b584-7bd24e67573b","resource":{"resourceType":"MedicationStatement","id":"4a5af791-f985-441b-b584-7bd24e67573b","status":"completed","medicationCodeableConcept":{"coding":[{"system":"http://www.nlm.nih.gov/research/umls/rxnorm","code":"10395"}]},"subject":{"reference":"Patient/f00e9793-777e-472c-8b79-c20dfa877fcc"},"effectiveDateTime":"2022-09-09T00:00:00+00:00","dosage":[{"doseAndRate":[{"doseQuantity":{"value":1.0,"unit":"TAB","system":"http://terminology.hl7.org/CodeSystem/v3-orderableDrugForm","code":"TAB"}}]}]},"request":{"method":"POST","url":"MedicationStatement"}},{"fullUrl":"MedicationStatement/ec844a04-a9b8-4bd3-b6b0-cfd5b03555e9","resource":{"resourceType":"MedicationStatement","id":"ec844a04-a9b8-4bd3-b6b0-cfd5b03555e9","status":"completed","medicationCodeableConcept":{"coding":[{"system":"http://www.nlm.nih.gov/research/umls/rxnorm","code":"18631"}]},"subject":{"reference":"Patient/f00e9793-777e-472c-8b79-c20dfa877fcc"},"effectiveDateTime":"2022-06-26T00:00:00+00:00","dosage":[{"doseAndRate":[{"doseQuantity":{"value":1.0,"unit":"TAB","system":"http://terminology.hl7.org/CodeSystem/v3-orderableDrugForm","code":"TAB"}}]}]},"request":{"method":"POST","url":"MedicationStatement"}},{"fullUrl":"MedicationStatement/4f3befab-db96-45f0-b16b-737c13c8e961","resource":{"resourceType":"MedicationStatement","id":"4f3befab-db96-45f0-b16b-737c13c8e961","status":"completed","medicationCodeableConcept":{"coding":[{"system":"http://www.nlm.nih.gov/research/umls/rxnorm","code":"7980"}]},"subject":{"reference":"Patient/f00e9793-777e-472c-8b79-c20dfa877fcc"},"effectiveDateTime":"2022-02-11T00:00:00+00:00","dosage":[{"doseAndRate":[{"doseQuantity":{"value":6.4,"unit":"TAB","system":"http://terminology.hl7.org/CodeSystem/v3-orderableDrugForm","code":"TAB"}}]}]},"request":{"method":"POST","url":"MedicationStatement"}},{"fullUrl":"MedicationStatement/fc2d29ee-82ff-470e-80b7-9f617b567c7d","resource":{"resourceType":"MedicationStatement","id":"fc2d29ee-82ff-470e-80b7-9f617b567c7d","status":"completed","medicationCodeableConcept":{"coding":[{"system":"http://www.nlm.nih.gov/research/umls/rxnorm","code":"3640"}]},"subject":{"reference":"Patient/f00e9793-777e-472c-8b79-c20dfa877fcc"},"effectiveDateTime":"2022-07-29T00:00:00+00:00","dosage":[{"doseAndRate":[{"doseQuantity":{"value":5.8,"unit":"TAB","system":"http://terminology.hl7.org/CodeSystem/v3-orderableDrugForm","code":"TAB"}}]}]},"request":{"method":"POST","url":"MedicationStatement"}},{"fullUrl":"MedicationStatement/8b30372a-e594-44fa-8368-f56686576e70","resource":{"resourceType":"MedicationStatement","id":"8b30372a-e594-44fa-8368-f56686576e70","status":"completed","medicationCodeableConcept":{"coding":[{"system":"http://www.nlm.nih.gov/research/umls/rxnorm","code":"2193"}]},"subject":{"reference":"Patient/f00e9793-777e-472c-8b79-c20dfa877fcc"},"effectiveDateTime":"2022-03-21T00:00:00+00:00","dosage":[{"doseAndRate":[{"doseQuantity":{"value":3.8,"unit":"TAB","system":"http://terminology.hl7.org/CodeSystem/v3-orderableDrugForm","code":"TAB"}}]}]},"request":{"method":"POST","url":"MedicationStatement"}},{"fullUrl":"MedicationStatement/57be07b1-da23-407d-add5-49569d0c6217","resource":{"resourceType":"MedicationStatement","id":"57be07b1-da23-407d-add5-49569d0c6217","status":"completed","medicationCodeableConcept":{"coding":[{"system":"http://www.nlm.nih.gov/research/umls/rxnorm","code":"18631"}]},"subject":{"reference":"Patient/f00e9793-777e-472c-8b79-c20dfa877fcc"},"effectiveDateTime":"2022-08-16T00:00:00+00:00","dosage":[{"doseAndRate":[{"doseQuantity":{"value":5.4,"unit":"TAB","system":"http://terminology.hl7.org/CodeSystem/v3-orderableDrugForm","code":"TAB"}}]}]},"request":{"method":"POST","url":"MedicationStatement"}},{"fullUrl":"MedicationStatement/68370f7c-d674-41f0-a2ad-cfa79d1bb00e","resource":{"resourceType":"MedicationStatement","id":"68370f7c-d674-41f0-a2ad-cfa79d1bb00e","status":"completed","medicationCodeableConcept":{"coding":[{"system":"http://www.nlm.nih.gov/research/umls/rxnorm","code":"2193"}]},"subject":{"reference":"Patient/f00e9793-777e-472c-8b79-c20dfa877fcc"},"effectiveDateTime":"2022-07-19T00:00:00+00:00","dosage":[{"doseAndRate":[{"doseQuantity":{"value":4.5,"unit":"TAB","system":"http://terminology.hl7.org/CodeSystem/v3-orderableDrugForm","code":"TAB"}}]}]},"request":{"method":"POST","url":"MedicationStatement"}},{"fullUrl":"MedicationStatement/7b37591a-2e09-4dd1-bf64-309bc8cf57d6","resource":{"resourceType":"MedicationStatement","id":"7b37591a-2e09-4dd1-bf64-309bc8cf57d6","status":"completed","medicationCodeableConcept":{"coding":[{"system":"http://www.nlm.nih.gov/research/umls/rxnorm","code":"7984"}]},"subject":{"reference":"Patient/f00e9793-777e-472c-8b79-c20dfa877fcc"},"effectiveDateTime":"2022-02-27T00:00:00+00:00","dosage":[{"doseAndRate":[{"doseQuantity":{"value":3.0,"unit":"TAB","system":"http://terminology.hl7.org/CodeSystem/v3-orderableDrugForm","code":"TAB"}}]}]},"request":{"method":"POST","url":"MedicationStatement"}},{"fullUrl":"MedicationStatement/1244b35e-6119-4907-b8a1-11cc6111fe6a","resource":{"resourceType":"MedicationStatement","id":"1244b35e-6119-4907-b8a1-11cc6111fe6a","status":"completed","medicationCodeableConcept":{"coding":[{"system":"http://www.nlm.nih.gov/research/umls/rxnorm","code":"7984"}]},"subject":{"reference":"Patient/f00e9793-777e-472c-8b79-c20dfa877fcc"},"effectiveDateTime":"2022-08-19T00:00:00+00:00","dosage":[{"doseAndRate":[{"doseQuantity":{"value":4.5,"unit":"TAB","system":"http://terminology.hl7.org/CodeSystem/v3-orderableDrugForm","code":"TAB"}}]}]},"request":{"method":"POST","url":"MedicationStatement"}},{"fullUrl":"MedicationStatement/25d2c2b8-fafe-47ab-b65d-d1ddfa8db6f0","resource":{"resourceType":"MedicationStatement","id":"25d2c2b8-fafe-47ab-b65d-d1ddfa8db6f0","status":"completed","medicationCodeableConcept":{"coding":[{"system":"http://www.nlm.nih.gov/research/umls/rxnorm","code":"8698"}]},"subject":{"reference":"Patient/f00e9793-777e-472c-8b79-c20dfa877fcc"},"effectiveDateTime":"2022-08-30T00:00:00+00:00","dosage":[{"doseAndRate":[{"doseQuantity":{"value":5.8,"unit":"TAB","system":"http://terminology.hl7.org/CodeSystem/v3-orderableDrugForm","code":"TAB"}}]}]},"request":{"method":"POST","url":"MedicationStatement"}},{"fullUrl":"Encounter/0fdd7f5f-208c-409f-a237-711bfe3e1279","resource":{"resourceType":"Encounter","id":"0fdd7f5f-208c-409f-a237-711bfe3e1279","status":"finished","class":{"system":"http://terminology.hl7.org/CodeSystem/v3-ActCode","code":"IMP","display":"inpatient encounter"},"type":[{"coding":[{"system":"http://terminology.hl7.org/CodeSystem/encounter-type","code":"BD/BM-clin"}]}],"subject":{"reference":"Patient/f00e9793-777e-472c-8b79-c20dfa877fcc"},"period":{"start":"2022-01-25T00:00:00+00:00","end":"2022-01-26T00:00:00+00:00"}},"request":{"method":"POST","url":"Encounter"}},{"fullUrl":"Encounter/f0f4c153-231f-4f22-84ef-8a24de1bc799","resource":{"resourceType":"Encounter","id":"f0f4c153-231f-4f22-84ef-8a24de1bc799","status":"finished","class":{"system":"http://terminology.hl7.org/CodeSystem/v3-ActCode","code":"IMP","display":"inpatient encounter"},"type":[{"coding":[{"system":"http://terminology.hl7.org/CodeSystem/encounter-type","code":"OKI"}]}],"subject":{"reference":"Patient/f00e9793-777e-472c-8b79-c20dfa877fcc"},"period":{"start":"2022-05-24T00:00:00+00:00","end":"2022-05-30T00:00:00+00:00"}},"request":{"method":"POST","url":"Encounter"}},{"fullUrl":"Encounter/1c5afcfe-0501-4b50-a22d-98f604526da3","resource":{"resourceType":"Encounter","id":"1c5afcfe-0501-4b50-a22d-98f604526da3","status":"finished","class":{"system":"http://terminology.hl7.org/CodeSystem/v3-ActCode","code":"IMP","display":"inpatient encounter"},"type":[{"coding":[{"system":"http://terminology.hl7.org/CodeSystem/encounter-type","code":"BD/BM-clin"}]}],"subject":{"reference":"Patient/f00e9793-777e-472c-8b79-c20dfa877fcc"},"period":{"start":"2022-10-15T00:00:00+00:00","end":"2022-10-20T00:00:00+00:00"}},"request":{"method":"POST","url":"Encounter"}},{"fullUrl":"Encounter/3a490236-8182-4176-90d2-15841913318a","resource":{"resourceType":"Encounter","id":"3a490236-8182-4176-90d2-15841913318a","status":"finished","class":{"system":"http://terminology.hl7.org/CodeSystem/v3-ActCode","code":"NONAC","display":"inpatient non-acute"},"type":[{"coding":[{"system":"http://terminology.hl7.org/CodeSystem/encounter-type","code":"CCS60"}]}],"subject":{"reference":"Patient/f00e9793-777e-472c-8b79-c20dfa877fcc"},"period":{"start":"2022-03-08T00:00:00+00:00","end":"2022-03-12T00:00:00+00:00"}},"request":{"method":"POST","url":"Encounter"}},{"fullUrl":"Encounter/482a72a1-03b4-4cf0-9063-2c99c3576198","resource":{"resourceType":"Encounter","id":"482a72a1-03b4-4cf0-9063-2c99c3576198","status":"finished","class":{"system":"http://terminology.hl7.org/CodeSystem/v3-ActCode","code":"OBSENC","display":"observation encounter"},"type":[{"coding":[{"system":"http://terminology.hl7.org/CodeSystem/encounter-type","code":"CCS60"}]}],"subject":{"reference":"Patient/f00e9793-777e-472c-8b79-c20dfa877fcc"},"period":{"start":"2022-12-09T00:00:00+00:00","end":"2022-12-12T00:00:00+00:00"}},"request":{"method":"POST","url":"Encounter"}}]}