{"resourceType":"Bundle","id":"8e095cd1-2672-4d74-a5a1-61b0b0700ae0","type":"transaction","entry":[{"fullUrl":"Patient/c4318691-7884-4d2a-a093-03a154704529","resource":{"resourceType":"Patient","id":"c4318691-7884-4d2a-a093-03a154704529","meta":{"profile":["http://hl7.org/fhir/us/core/StructureDefinition/us-core-patient"]},"extension":[{"extension":[{"url":"ombCategory","valueCoding":{"system":"http://terminology.hl7.org/CodeSystem/v3-NullFlavor","code":"UNK","display":"unknown"}},{"url":"text","valueString":"unknown"}],"url":"http://hl7.org/fhir/us/core/StructureDefinition/us-core-race"},{"extension":[{"url":"ombCategory","valueCoding":{"system":"urn:oid:2.16.840.1.113883.6.238","code":"2186-5","display":"Not Hispanic or Latino"}},{"url":"text","valueString":"Not Hispanic or Latino"}],"url":"http://hl7.org/fhir/us/core/StructureDefinition/us-core-ethnicity"}],"identifier":[{"type":{"coding":[{"system":"http://terminology.hl7.org/CodeSystem/v2-0203","code":"MR"}]},"system":"urn:fhirgen:mrn","value":"813-32-4917"},{"system":"http://hl7.org/fhir/sid/us-ssn","value":"391-39-4168"}],"name":[{"use":"official","family":"Bentley","given":["Luis"]},{"use":"maiden","family":"Sheppard"}],"telecom":[{"system":"phone","value":"(460)197-3324x814","use":"home"},{"system":"email","value":"monicakennedy@gmail.com","use":"work"}],"gender":"male","birthDate":"1959-10-15","address":[{"use":"home","line":["76665 Wise Loop"],"city":"Lake Lindsayfort","state":"MS","postalCode":"25433"},{"use":"old","line":["824 Courtney Course"],"city":"Johnsonhaven","state":"HI","postalCode":"32412"}],"maritalStatus":{"coding":[{"system":"http://terminology.hl7.org/CodeSystem/v3-MaritalStatus","code":"P","display":"Polygamous"}]}},"request":{"method":"POST","url":"Patient"}},{"fullUrl":"Observation/ffaa3764-a317-4220-9138-4b63117baede","resource":{"resourceType":"Observation","id":"ffaa3764-a317-4220-9138-4b63117baede","meta":{"profile":["http://hl7.org/fhir/us/core/StructureDefinition/us-core-observation-lab"]},"status":"final","category":[{"coding":[{"system":"http://terminology.hl7.org/CodeSystem/observation-category","code":"laboratory","display":"Laboratory"}]}],"code":{"coding":[{"system":"http://loinc.org","code":"50695-6"}]},"subject":{"reference":"Patient/c4318691-7884-4d2a-a093-03a154704529"},"effectiveDateTime":"2022-09-20T00:00:00+00:00","valueRatio":{"numerator":{"value":1},"denominator":{"value":4}}},"request":{"method":"POST","url":"Observation"}},{"fullUrl":"Observation/1e0a9a6d-5882-4eff-8c4b-2a16d7bec9e7","resource":{"resourceType":"Observation","id":"1e0a9a6d-5882-4eff-8c4b-2a16d7bec9e7","meta":{"profile":["http://hl7.org/fhir/us/core/StructureDefinition/us-core-observation-lab"]},"status":"final","category":[{"coding":[{"system":"http://terminology.hl7.org/CodeSystem/observation-category","code":"laboratory","display":"Laboratory"}]}],"code":{"coding":[{"system":"http://loinc.org","code":"31146-4"}]},"subject":{"reference":"Patient/c4318691-7884-4d2a-a093-03a154704529"},"effectiveDateTime":"2022-07-12T00:00:00+00:00","valueRatio":{"numerator":{"value":1},"denominator":{"value":4}}},"request":{"method":"POST","url":"Observation"}},{"fullUrl":"Observation/c28beabd-4b77-4d92-8a43-f1fdbf1b478e","resource":{"resourceType":"Observation","id":"c28beabd-4b77-4d92-8a43-f1fdbf1b478e","meta":{"profile":["http://hl7.org/fhir/us/core/StructureDefinition/us-core-observation-lab"]},"status":"final","category":[{"coding":[{"system":"http://terminology.hl7.org/CodeSystem/observation-category","code":"laboratory","display":"Laboratory"}]}],"code":{"coding":[{"system":"http://loinc.org","code":"47235-7"}]},"subject":{"reference":"Patient/c4318691-7884-4d2a-a093-03a154704529"},"effectiveDateTime":"2022-07-07T00:00:00+00:00","valueRatio":{"numerator":{"value":1},"denominator":{"value":32}}},"request":{"method":"POST","url":"Observation"}},{"fullUrl":"Condition/00b82984-bb80-48a2-b38a-131325187ad2","resource":{"resourceType":"Condition","id":"00b82984-bb80-48a2-b38a-131325187ad2","meta":{"profile":["http://hl7.org/fhir/us/core/StructureDefinition/us-core-condition"]},"clinicalStatus":{"coding":[{"system":"http://terminology.hl7.org/CodeSystem/condition-clinical","code":"active","display":"Active"}]},"category":[{"coding":[{"system":"http://terminology.hl7.org/CodeSystem/condition-category","code":"problem-list-item"}]}],"code":{"coding":[{"system":"http://snomed.info/sct","code":"418290006"}]},"subject":{"reference":"Patient/c4318691-7884-4d2a-a093-03a154704529"},"onsetDateTime":"2022-08-04T00:00:00+00:00"},"request":{"method":"POST","url":"Condition"}},{"fullUrl":"Condition/e8a8c4b5-3bcd-469c-9a00-e1d337ec80ac","resource":{"resourceType":"Condition","id":"e8a8c4b5-3bcd-469c-9a00-e1d337ec80ac","meta":{"profile":["http://hl7.org/fhir/us/core/StructureDefinition/us-core-condition"]},"clinicalStatus":{"coding":[{"system":"http://terminology.hl7.org/CodeSystem/condition-clinical","code":"active","display":"Active"}]},"category":[{"coding":[{"system":"http://terminology.hl7.org/CodeSystem/condition-category","code":"problem-list-item"}]}],"code":{"coding":[{"system":"http://snomed.info/sct","code":"736686006"}]},"subject":{"reference":"Patient/c4318691-7884-4d2a-a093-03a154704529"},"onsetDateTime":"2022-09-19T00:00:00+00:00"},"request":{"method":"POST","url":"Condition"}},{"fullUrl":"Condition/c4c0050d-18c9-492d-8747-658be17c3774","resource":{"resourceType":"Condition","id":"c4c0050d-18c9-492d-8747-658be17c3774","meta":{"profile":["http://hl7.org/fhir/us/core/StructureDefinition/us-core-condition"]},"clinicalStatus":{"coding":[{"system":"http://terminology.hl7.org/CodeSystem/condition-clinical","code":"active","display":"Active"}]},"category":[{"coding":[{"system":"http://terminology.hl7.org/CodeSystem/condition-category","code":"problem-list-item"}]}],"code":{"coding":[{"system":"http://snomed.info/sct","code":"709977002"}]},"subject":{"reference":"Patient/c4318691-7884-4d2a-a093-03a154704529"},"onsetDateTime":"2022-01-18T00:00:00+00:00"},"request":{"method":"POST","url":"Condition"}},{"fullUrl":"Observation/8c125527-6c22-4ea4-8ca9-f7af29a6cc56","resource":{"resourceType":"Observation","id":"8c125527-6c22-4ea4-8ca9-f7af29a6cc56","meta":{"profile":["http://hl7.org/fhir/us/core/StructureDefinition/us-core-observation-lab"]},"status":"final","category":[{"coding":[{"system":"http://terminology.hl7.org/CodeSystem/observation-category","code":"laboratory","display":"Laboratory"}]}],"code":{"coding":[{"system":"http://loinc.org","code":"804-5"}]},"subject":{"reference":"Patient/c4318691-7884-4d2a-a093-03a154704529"},"effectiveDateTime":"2022-09-20T00:00:00+00:00","valueQuantity":{"value":10.4}},"request":{"method":"POST","url":"Observation"}},{"fullUrl":"Observation/5129dffb-f031-4687-84ed-3c21a6b58c8b","resource":{"resourceType":"Observation","id":"5129dffb-f031-4687-84ed-3c21a6b58c8b","meta":{"profile":["http://hl7.org/fhir/us/core/StructureDefinition/us-core-observation-lab"]},"status":"final","category":[{"coding":[{"system":"http://terminology.hl7.org/CodeSystem/observation-category","code":"laboratory","display":"Laboratory"}]}],"code":{"coding":[{"system":"http://loinc.org","code":"6690-2"}]},"subject":{"reference":"Patient/c4318691-7884-4d2a-a093-03a154704529"},"effectiveDateTime":"2022-09-14T00:00:00+00:00","valueQuantity":{"value":7.1}},"request":{"method":"POST","url":"Observation"}},{"fullUrl":"Observation/07ff9299-e353-4b7a-885a-43d58aba2cc6","resource":{"resourceType":"Observation","id":"07ff9299-e353-4b7a-885a-43d58aba2cc6","meta":{"profile":["http://hl7.org/fhir/us/core/StructureDefinition/us-core-bmi"]},"status":"final","category":[{"coding":[{"system":"http://terminology.hl7.org/CodeSystem/observation-category","code":"vital-signs","display":"Vital Signs"}]}],"code":{"coding":[{"system":"http://loinc.org","code":"39156-5"}]},"subject":{"reference":"Patient/c4318691-7884-4d2a-a093-03a154704529"},"effectiveDateTime":"2022-09-07T00:00:00+00:00","valueQuantity":{"value":12.83,"unit":"kg/m2","system":"http://unitsofmeasure.org","code":"kg/m2"}},"request":{"method":"POST","url":"Observation"}},{"fullUrl":"Observation/8fa03a70-fc40-4534-9a48-1e03e4315490","resource":{"resourceType":"Observation","id":"8fa03a70-fc40-4534-9a48-1e03e4315490","meta":{"profile":["http://hl7.org/fhir/us/core/StructureDefinition/us-core-head-circumference"]},"status":"final","category":[{"coding":[{"system":"http://terminology.hl7.org/CodeSystem/observation-category","code":"vital-signs","display":"Vital Signs"}]}],"code":{"coding":[{"system":"http://loinc.org","code":"9843-4"}]},"subject":{"reference":"Patient/c4318691-7884-4d2a-a093-03a154704529"},"effectiveDateTime":"2022-04-21T00:00:00+00:00","valueQuantity":{"value":2.6,"unit":"Inch","system":"http://unitsofmeasure.org","code":"[in_i]"}},"request":{"method":"POST","url":"Observation"}},{"fullUrl":"Observation/c4b41345-6ce9-4fb7-8c04-d3914dd9c552","resource":{"resourceType":"Observation","id":"c4b41345-6ce9-4fb7-8c04-d3914dd9c552","meta":{"profile":["http://hl7.org/fhir/us/core/StructureDefinition/us-core-body-height"]},"status":"final","category":[{"coding":[{"system":"http://terminology.hl7.org/CodeSystem/observation-category","code":"vital-signs","display":"Vital Signs"}]}],"code":{"coding":[{"system":"http://loinc.org","code":"8302-2"}]},"subject":{"reference":"Patient/c4318691-7884-4d2a-a093-03a154704529"},"effectiveDateTime":"2022-09-29T00:00:00+00:00","valueQuantity":{"value":64.1,"unit":"Inch","system":"http://unitsofmeasure.org","code":"[in_i]"}},"request":{"method":"POST","url":"Observation"}},{"fullUrl":"Observation/42339b14-4fd2-4645-b45c-6fea3400d59d","resource":{"resourceType":"Observation","id":"42339b14-4fd2-4645-b45c-6fea3400d59d","meta":{"profile":["http://hl7.org/fhir/us/core/StructureDefinition/us-core-body-weight"]},"status":"final","category":[{"coding":[{"system":"http://terminology.hl7.org/CodeSystem/observation-category","code":"vital-signs","display":"Vital Signs"}]}],"code":{"coding":[{"system":"http://loinc.org","code":"29463-7"}]},"subject":{"reference":"Patient/c4318691-7884-4d2a-a093-03a154704529"},"effectiveDateTime":"2022-01-15T00:00:00+00:00","valueQuantity":{"value":36.92,"unit":"kilogram","system":"http://unitsofmeasure.org","code":"kg"}},"request":{"method":"POST","url":"Observation"}},{"fullUrl":"Observation/209ba525-0d7f-4410-a982-1b5560418156","resource":{"resourceType":"Observation","id":"209ba525-0d7f-4410-a982-1b5560418156","meta":{"profile":["http://hl7.org/fhir/us/core/StructureDefinition/us-core-body-weight"]},"status":"final","category":[{"coding":[{"system":"http://terminology.hl7.org/CodeSystem/observation-category","code":"vital-signs","display":"Vital Signs"}]}],"code":{"coding":[{"system":"http://loinc.org","code":"29463-7"}]},"subject":{"reference":"Patient/c4318691-7884-4d2a-a093-03a154704529"},"effectiveDateTime":"2022-08-31T00:00:00+00:00","valueQuantity":{"value":68.3,"unit":"kilogram","system":"http://unitsofmeasure.org","code":"kg"}},"request":{"method":"POST","url":"Observation"}},{"fullUrl":"Observation/bf199e64-dc82-4b6a-8573-cae8a87f59ba","resource":{"resourceType":"Observation","id":"bf199e64-dc82-4b6a-8573-cae8a87f59ba","meta":{"profile":["http://hl7.org/fhir/us/core/StructureDefinition/us-core-body-temperature"]},"status":"final","category":[{"coding":[{"system":"http://terminology.hl7.org/CodeSystem/observation-category","code":"vital-signs","display":"Vital Signs"}]}],"code":{"coding":[{"system":"http://loinc.org","code":"8310-5"}]},"subject":{"reference":"Patient/c4318691-7884-4d2a-a093-03a154704529"},"effectiveDateTime":"2022-10-07T00:00:00+00:00","valueQuantity":{"value":117.95,"unit":"Degrees Fahrenheit","system":"http://unitsofmeasure.org","code":"[degF]"}},"request":{"method":"POST","url":"Observation"}},{"fullUrl":"Observation/fb431552-d48c-4bb9-865b-1af424413b77","resource":{"resourceType":"Observation","id":"fb431552-d48c-4bb9-865b-1af424413b77","meta":{"profile":["http://hl7.org/fhir/us/core/StructureDefinition/us-core-heart-rate"]},"status":"final","category":[{"coding":[{"system":"http://terminology.hl7.org/CodeSystem/observation-category","code":"vital-signs","display":"Vital Signs"}]}],"code":{"coding":[{"system":"http://loinc.org","code":"8867-4"}]},"subject":{"reference":"Patient/c4318691-7884-4d2a-a093-03a154704529"},"effectiveDateTime":"2022-05-15T00:00:00+00:00","valueQuantity":{"value":96.4,"unit":"Per Minute","system":"http://unitsofmeasure.org","code":"/min"}},"request":{"method":"POST","url":"Observation"}},{"fullUrl":"Observation/d1b1c58e-9bb6-43c6-8b92-b2e226a78094","resource":{"resourceType":"Observation","id":"d1b1c58e-9bb6-43c6-8b92-b2e226a78094","meta":{"profile":["http://hl7.org/fhir/us/core/StructureDefinition/us-core-heart-rate"]},"status":"final","category":[{"coding":[{"system":"http://terminology.hl7.org/CodeSystem/observation-category","code":"vital-signs","display":"Vital Signs"}]}],"code":{"coding":[{"system":"http://loinc.org","code":"8867-4"}]},"subject":{"reference":"Patient/c4318691-7884-4d2a-a093-03a154704529"},"effectiveDateTime":"2022-08-19T00:00:00+00:00","valueQuantity":{"value":99.3,"unit":"Per Minute","system":"http://unitsofmeasure.org","code":"/min"}},"request":{"method":"POST","url":"Observation"}},{"fullUrl":"Patient/a3d2522c-d78e-4214-b5a0-f1649ffa77a5","resource":{"resourceType":"Patient","id":"a3d2522c-d78e-4214-b5a0-f1649ffa77a5","meta":{"profile":["http://hl7.org/fhir/us/core/StructureDefinition/us-core-patient"]},"extension":[{"extension":[{"url":"ombCategory","valueCoding":{"system":"http://terminology.hl7.org/CodeSystem/v3-NullFlavor","code":"ASKU","display":"asked but unknown"}},{"url":"text","valueString":"asked but unknown"}],"url":"http://hl7.org/fhir/us/core/StructureDefinition/us-core-race"},{"extension":[{"url":"ombCategory","valueCoding":{"system":"urn:oid:2.16.840.1.113883.6.238","code":"2186-5","display":"Not Hispanic or Latino"}},{"url":"text","valueString":"Not Hispanic or Latino"}],"url":"http://hl7.org/fhir/us/core/StructureDefinition/us-core-ethnicity"}],"identifier":[{"type":{"coding":[{"system":"http://terminology.hl7.org/CodeSystem/v2-0203","code":"MR"}]},"system":"urn:fhirgen:mrn","value":"291-48-9980"},{"system":"http://hl7.org/fhir/sid/us-ssn","value":"538-93-1445"}],"name":[{"use":"official","family":"Garcia","given":["John"]},{"use":"maiden","family":"Clark"}],"telecom":[{"system":"phone","value":"592-092-6609x5288","use":"work"},{"system":"email","value":"jjackson@hotmail.com","use":"work"}],"gender":"male","birthDate":"1987-01-29","address":[{"use":"home","line":["71843 Hendricks Loaf"],"city":"East Lindsey","state":"AK","postalCode":"78362"},{"use":"old","line":["612 Fisher Freeway Suite 086"],"city":"South Taylor","state":"NM","postalCode":"20404"}],"maritalStatus":{"coding":[{"system":"http://terminology.hl7.org/CodeSystem/v3-MaritalStatus","code":"W","display":"Widowed"}]}},"request":{"method":"POST","url":"Patient"}},{"fullUrl":"Observation/4fff1866-4ed6-4d04-adaf-89e9e3b78180","resource":{"resourceType":"Observation","id":"4fff1866-4ed6-4d04-adaf-89e9e3b78180","meta":{"profile":["http://hl7.org/fhir/us/core/StructureDefinition/us-core-observation-lab"]},"status":"final","category":[{"coding":[{"system":"http://terminology.hl7.org/CodeSystem/observation-category","code":"laboratory","display":"Laboratory"}]}],"code":{"coding":[{"system":"http://loinc.org","code":"34382-2"}]},"subject":{"reference":"Patient/a3d2522c-d78e-4214-b5a0-f1649ffa77a5"},"effectiveDateTime":"2022-06-28T00:00:00+00:00","valueRatio":{"numerator":{"value":1},"denominator":{"value":64}}},"request":{"method":"POST","url":"Observation"}},{"fullUrl":"Observation/0dbadb46-bb3e-4760-89ea-ebb6da17f736","resource":{"resourceType":"Observation","id":"0dbadb46-bb3e-4760-89ea-ebb6da17f736","meta":{"profile":["http://hl7.org/fhir/us/core/StructureDefinition/us-core-observation-lab"]},"status":"final","category":[{"coding":[{"system":"http://terminology.hl7.org/CodeSystem/observation-category","code":"laboratory","display":"Laboratory"}]}],"code":{"coding":[{"system":"http://loinc.org","code":"5394-2"}]},"subject":{"reference":"Patient/a3d2522c-d78e-4214-b5a0-f1649ffa77a5"},"effectiveDateTime":"2022-11-16T00:00:00+00:00","valueRatio":{"numerator":{"value":1},"denominator":{"value":64}}},"request":{"method":"POST","url":"Observation"}},{"fullUrl":"Condition/84b7c747-2abb-42e0-9eff-e029b1251778","resource":{"resourceType":"Condition","id":"84b7c747-2abb-42e0-9eff-e029b1251778","meta":{"profile":["http://hl7.org/fhir/us/core/StructureDefinition/us-core-condition"]},"clinicalStatus":{"coding":[{"system":"http://terminology.hl7.org/CodeSystem/condition-clinical","code":"active","display":"Active"}]},"category":[{"coding":[{"system":"http://terminology.hl7.org/CodeSystem/condition-category","code":"problem-list-item"}]}],"code":{"coding":[{"system":"http://snomed.info/sct","code":"418290006"}]},"subject":{"reference":"Patient/a3d2522c-d78e-4214-b5a0-f1649ffa77a5"},"onsetDateTime":"2022-05-10T00:00:00+00:00"},"request":{"method":"POST","url":"Condition"}},{"fullUrl":"Condition/bdc80d54-e9a1-4a07-ace0-803384d4e0f7","resource":{"resourceType":"Condition","id":"bdc80d54-e9a1-4a07-ace0-803384d4e0f7","meta":{"profile":["http://hl7.org/fhir/us/core/StructureDefinition/us-core-condition"]},"clinicalStatus":{"coding":[{"system":"http://terminology.hl7.org/CodeSystem/condition-clinical","code":"active","display":"Active"}]},"category":[{"coding":[{"system":"http://terminology.hl7.org/CodeSystem/condition-category","code":"problem-list-item"}]}],"code":{"coding":[{"system":"http://snomed.info/sct","code":"418290006"}]},"subject":{"reference":"Patient/a3d2522c-d78e-4214-b5a0-f1649ffa77a5"},"onsetDateTime":"2022-08-28T00:00:00+00:00"},"request":{"method":"POST","url":"Condition"}},{"fullUrl":"Condition/d502de92-89cd-4ccd-8122-da00a82efb4d","resource":{"resourceType":"Condition","id":"d502de92-89cd-4ccd-8122-da00a82efb4d","meta":{"profile":["http://hl7.org/fhir/us/core/StructureDefinition/us-core-condition"]},"clinicalStatus":{"coding":[{"system":"http://terminology.hl7.org/CodeSystem/condition-clinical","code":"active","display":"Active"}]},"category":[{"coding":[{"system":"http://terminology.hl7.org/CodeSystem/condition-category","code":"problem-list-item"}]}],"code":{"coding":[{"system":"http://snomed.info/sct","code":"44882003"}]},"subject":{"reference":"Patient/a3d2522c-d78e-4214-b5a0-f1649ffa77a5"},"onsetDateTime":"2022-05-30T00:00:00+00:00"},"request":{"method":"POST","url":"Condition"}},{"fullUrl":"Condition/f15c4426-a103-406f-acea-dff7a24829f0","resource":{"resourceType":"Condition","id":"f15c4426-a103-406f-acea-dff7a24829f0","meta":{"profile":["http://hl7.org/fhir/us/core/StructureDefinition/us-core-condition"]},"clinicalStatus":{"coding":[{"system":"http://terminology.hl7.org/CodeSystem/condition-clinical","code":"active","display":"Active"}]},"category":[{"coding":[{"system":"http://terminology.hl7.org/CodeSystem/condition-category","code":"problem-list-item"}]}],"code":{"coding":[{"system":"http://snomed.info/sct","code":"736686006"}]},"subject":{"reference":"Patient/a3d2522c-d78e-4214-b5a0-f1649ffa77a5"},"onsetDateTime":"2022-03-08T00:00:00+00:00"},"request":{"method":"POST","url":"Condition"}},{"fullUrl":"Observation/9646a649-1813-49b7-8f5e-da1d9ad9874d","resource":{"resourceType":"Observation","id":"9646a649-1813-49b7-8f5e-da1d9ad9874d","meta":{"profile":["http://hl7.org/fhir/us/core/StructureDefinition/us-core-observation-lab"]},"status":"final","category":[{"coding":[{"system":"http://terminology.hl7.org/CodeSystem/observation-category","code":"laboratory","display":"Laboratory"}]}],"code":{"coding":[{"system":"http://loinc.org","code":"26464-8"}]},"subject":{"reference":"Patient/a3d2522c-d78e-4214-b5a0-f1649ffa77a5"},"effectiveDateTime":"2022-08-08T00:00:00+00:00","valueQuantity":{"value":6}},"request":{"method":"POST","url":"Observation"}},{"fullUrl":"Observation/fa95a4a6-395c-4e38-85bb-48b93cdc7317","resource":{"resourceType":"Observation","id":"fa95a4a6-395c-4e38-85bb-48b93cdc7317","meta":{"profile":["http://hl7.org/fhir/us/core/StructureDefinition/us-core-observation-lab"]},"status":"final","category":[{"coding":[{"system":"http://terminology.hl7.org/CodeSystem/observation-category","code":"laboratory","display":"Laboratory"}]}],"code":{"coding":[{"system":"http://loinc.org","code":"49498-9"}]},"subject":{"reference":"Patient/a3d2522c-d78e-4214-b5a0-f1649ffa77a5"},"effectiveDateTime":"2022-01-22T00:00:00+00:00","valueQuantity":{"value":5.5}},"request":{"method":"POST","url":"Observation"}},{"fullUrl":"Observation/f0e7da5b-f251-41ad-a705-4d3fee60aaf3","resource":{"resourceType":"Observation","id":"f0e7da5b-f251-41ad-a705-4d3fee60aaf3","meta":{"profile":["http://hl7.org/fhir/us/core/StructureDefinition/us-core-bmi"]},"status":"final","category":[{"coding":[{"system":"http://terminology.hl7.org/CodeSystem/observation-category","code":"vital-signs","display":"Vital Signs"}]}],"code":{"coding":[{"system":"http://loinc.org","code":"39156-5"}]},"subject":{"reference":"Patient/a3d2522c-d78e-4214-b5a0-f1649ffa77a5"},"effectiveDateTime":"2022-04-26T00:00:00+00:00","valueQuantity":{"value":19.54,"unit":"kg/m2","system":"http://unitsofmeasure.org","code":"kg/m2"}},"request":{"method":"POST","url":"Observation"}},{"fullUrl":"Observation/920eb1e2-d30c-49b7-acf9-7052d3814dbe","resource":{"resourceType":"Observation","id":"920eb1e2-d30c-49b7-acf9-7052d3814dbe","meta":{"profile":["http://hl7.org/fhir/us/core/StructureDefinition/us-core-head-circumference"]},"status":"final","category":[{"coding":[{"system":"http://terminology.hl7.org/CodeSystem/observation-category","code":"vital-signs","display":"Vital Signs"}]}],"code":{"coding":[{"system":"http://loinc.org","code":"9843-4"}]},"subject":{"reference":"Patient/a3d2522c-d78e-4214-b5a0-f1649ffa77a5"},"effectiveDateTime":"2022-06-22T00:00:00+00:00","valueQuantity":{"value":5.4,"unit":"Inch","system":"http://unitsofmeasure.org","code":"[in_i]"}},"request":{"method":"POST","url":"Observation"}},{"fullUrl":"Observation/851068d3-8d03-4877-936b-759cad84e070","resource":{"resourceType":"Observation","id":"851068d3-8d03-4877-936b-759cad84e070","meta":{"profile":["http://hl7.org/fhir/us/core/StructureDefinition/us-core-head-circumference"]},"status":"final","category":[{"coding":[{"system":"http://terminology.hl7.org/CodeSystem/observation-category","code":"vital-signs","display":"Vital Signs"}]}],"code":{"coding":[{"system":"http://loinc.org","code":"9843-4"}]},"subject":{"reference":"Patient/a3d2522c-d78e-4214-b5a0-f1649ffa77a5"},"effectiveDateTime":"2022-09-30T00:00:00+00:00","valueQuantity":{"value":1.7,"unit":"Inch","system":"http://unitsofmeasure.org","code":"[in_i]"}},"request":{"method":"POST","url":"Observation"}},{"fullUrl":"Observation/3ee2a827-cfc7-48a6-ae25-a1646dca1c29","resource":{"resourceType":"Observation","id":"3ee2a827-cfc7-48a6-ae25-a1646dca1c29","meta":{"profile":["http://hl7.org/fhir/us/core/StructureDefinition/us-core-body-height"]},"status":"final","category":[{"coding":[{"system":"http://terminology.hl7.org/CodeSystem/observation-category","code":"vital-signs","display":"Vital Signs"}]}],"code":{"coding":[{"system":"http://loinc.org","code":"8302-2"}]},"subject":{"reference":"Patient/a3d2522c-d78e-4214-b5a0-f1649ffa77a5"},"effectiveDateTime":"2022-07-12T00:00:00+00:00","valueQuantity":{"value":67.9,"unit":"Inch","system":"http://unitsofmeasure.org","code":"[in_i]"}},"request":{"method":"POST","url":"Observation"}},{"fullUrl":"Observation/3074fd16-4597-4d44-9caf-15710d8cb530","resource":{"resourceType":"Observation","id":"3074fd16-4597-4d44-9caf-15710d8cb530","meta":{"profile":["http://hl7.org/fhir/us/core/StructureDefinition/us-core-body-height"]},"status":"final","category":[{"coding":[{"system":"http://terminology.hl7.org/CodeSystem/observation-category","code":"vital-signs","display":"Vital Signs"}]}],"code":{"coding":[{"system":"http://loinc.org","code":"8302-2"}]},"subject":{"reference":"Patient/a3d2522c-d78e-4214-b5a0-f1649ffa77a5"},"effectiveDateTime":"2022-08-15T00:00:00+00:00","valueQuantity":{"value":66.7,"unit":"Inch","system":"http://unitsofmeasure.org","code":"[in_i]"}},"request":{"method":"POST","url":"Observation"}},{"fullUrl":"Observation/d4aab9c7-8af6-467d-a4b9-6765679232e0","resource":{"resourceType":"Observation","id":"d4aab9c7-8af6-467d-a4b9-6765679232e0","meta":{"profile":["http://hl7.org/fhir/us/core/StructureDefinition/us-core-body-weight"]},"status":"final","category":[{"coding":[{"system":"http://terminology.hl7.org/CodeSystem/observation-category","code":"vital-signs","display":"Vital Signs"}]}],"code":{"coding":[{"system":"http://loinc.org","code":"29463-7"}]},"subject":{"reference":"Patient/a3d2522c-d78e-4214-b5a0-f1649ffa77a5"},"effectiveDateTime":"2022-08-01T00:00:00+00:00","valueQuantity":{"value":103.52,"unit":"kilogram","system":"http://unitsofmeasure.org","code":"kg"}},"request":{"method":"POST","url":"Observation"}},{"fullUrl":"Observation/10346ef6-119d-427a-ac0e-8d3117a0dacd","resource":{"resourceType":"Observation","id":"10346ef6-119d-427a-ac0e-8d3117a0dacd","meta":{"profile":["http://hl7.org/fhir/us/core/StructureDefinition/us-core-body-weight"]},"status":"final","category":[{"coding":[{"system":"http://terminology.hl7.org/CodeSystem/observation-category","code":"vital-signs","display":"Vital Signs"}]}],"code":{"coding":[{"system":"http://loinc.org","code":"29463-7"}]},"subject":{"reference":"Patient/a3d2522c-d78e-4214-b5a0-f1649ffa77a5"},"effectiveDateTime":"2022-10-15T00:00:00+00:00","valueQuantity":{"value":76.85,"unit":"kilogram","system":"http://unitsofmeasure.org","code":"kg"}},"request":{"method":"POST","url":"Observation"}},{"fullUrl":"Observation/0b807d24-bbea-4d8c-aef9-7be8b0441130","resource":{"resourceType":"Observation","id":"0b807d24-bbea-4d8c-aef9-7be8b0441130","meta":{"profile":["http://hl7.org/fhir/us/core/StructureDefinition/us-core-body-temperature"]},"status":"final","category":[{"coding":[{"system":"http://terminology.hl7.org/CodeSystem/observation-category","code":"vital-signs","display":"Vital Signs"}]}],"code":{"coding":[{"system":"http://loinc.org","code":"8310-5"}]},"subject":{"reference":"Patient/a3d2522c-d78e-4214-b5a0-f1649ffa77a5"},"effectiveDateTime":"2022-09-07T00:00:00+00:00","valueQuantity":{"value":117.83,"unit":"Degrees Fahrenheit","system":"http://unitsofmeasure.org","code":"[degF]"}},"request":{"method":"POST","url":"Observation"}},{"fullUrl":"Observation/4bdf8742-9c77-43dc-b578-e05dbafed80f","resource":{"resourceType":"Observation","id":"4bdf8742-9c77-43dc-b578-e05dbafed80f","meta":{"profile":["http://hl7.org/fhir/us/core/StructureDefinition/us-core-body-temperature"]},"status":"final","category":[{"coding":[{"system":"http://terminology.hl7.org/CodeSystem/observation-category","code":"vital-signs","display":"Vital Signs"}]}],"code":{"coding":[{"system":"http://loinc.org","code":"8310-5"}]},"subject":{"reference":"Patient/a3d2522c-d78e-4214-b5a0-f1649ffa77a5"},"effectiveDateTime":"2022-05-17T00:00:00+00:00","valueQuantity":{"value":142.23,"unit":"Degrees Fahrenheit","system":"http://unitsofmeasure.org","code":"[degF]"}},"request":{"method":"POST","url":"Observation"}},{"fullUrl":"Observation/bbbf8954-e921-4c12-8030-22866ccada53","resource":{"resourceType":"Observation","id":"bbbf8954-e921-4c12-8030-22866ccada53","meta":{"profile":["http://hl7.org/fhir/us/core/StructureDefinition/us-core-heart-rate"]},"status":"final","category":[{"coding":[{"system":"http://terminology.hl7.org/CodeSystem/observation-category","code":"vital-signs","display":"Vital Signs"}]}],"code":{"coding":[{"system":"http://loinc.org","code":"8867-4"}]},"subject":{"reference":"Patient/a3d2522c-d78e-4214-b5a0-f1649ffa77a5"},"effectiveDateTime":"2022-08-07T00:00:00+00:00","valueQuantity":{"value":100.5,"unit":"Per Minute","system":"http://unitsofmeasure.org","code":"/min"}},"request":{"method":"POST","url":"Observation"}},{"fullUrl":"Observation/8e451205-3a22-4d81-af99-b65dcdc6f3d5","resource":{"resourceType":"Observation","id":"8e451205-3a22-4d81-af99-b65dcdc6f3d5","meta":{"profile":["http://hl7.org/fhir/us/core/StructureDefinition/us-core-heart-rate"]},"status":"final","category":[{"coding":[{"system":"http://terminology.hl7.org/CodeSystem/observation-category","code":"vital-signs","display":"Vital Signs"}]}],"code":{"coding":[{"system":"http://loinc.org","code":"8867-4"}]},"subject":{"reference":"Patient/a3d2522c-d78e-4214-b5a0-f1649ffa77a5"},"effectiveDateTime":"2022-10-16T00:00:00+00:00","valueQuantity":{"value":98.1,"unit":"Per Minute","system":"http://unitsofmeasure.org","code":"/min"}},"request":{"method":"POST","url":"Observation"}},{"fullUrl":"Patient/e03d1593-88ae-4a8b-9b44-91374a081291","resource":{"resourceType":"Patient","id":"e03d1593-88ae-4a8b-9b44-91374a081291","meta":{"profile":["http://hl7.org/fhir/us/core/StructureDefinition/us-core-patient"]},"extension":[{"extension":[{"url":"ombCategory","valueCoding":{"system":"urn:oid:2.16.840.1.113883.6.238","code":"1002-5","display":"American Indian or Alaska Native"}},{"url":"text","valueString":"American Indian or Alaska Native"}],"url":"http://hl7.org/fhir/us/core/StructureDefinition/us-core-race"},{"extension":[{"url":"ombCategory","valueCoding":{"system":"urn:oid:2.16.840.1.113883.6.238","code":"2135-2","display":"Hispanic or Latino"}},{"url":"text","valueString":"Hispanic or Latino"}],"url":"http://hl7.org/fhir/us/core/StructureDefinition/us-core-ethnicity"}],"identifier":[{"type":{"coding":[{"system":"http://terminology.hl7.org/CodeSystem/v2-0203","code":"MR"}]},"system":"urn:fhirgen:mrn","value":"319-32-0321"},{"system":"http://hl7.org/fhir/sid/us-ssn","value":"837-57-5254"}],"name":[{"use":"official","family":"Clay","given":["Stephanie"]},{"use":"maiden","family":"Walton"}],"telecom":[{"system":"phone","value":"001-212-099-2106x63275","use":"mobile"},{"system":"email","value":"jasoncole@yahoo.com","use":"work"}],"gender":"female","birthDate":"1948-11-23","address":[{"use":"home","line":["049 Christopher Creek"],"city":"South Gregoryfort","state":"IL","postalCode":"81190"},{"use":"old","line":["5631 Justin Fort Suite 625"],"city":"Andreaside","state":"NJ","postalCode":"74858"}],"maritalStatus":{"coding":[{"system":"http://terminology.hl7.org/CodeSystem/v3-MaritalStatus","code":"A","display":"Annulled"}]}},"request":{"method":"POST","url":"Patient"}},{"fullUrl":"Observation/92f3e002-5e47-4fe2-99b9-72a9b391199e","resource":{"resourceType":"Observation","id":"92f3e002-5e47-4fe2-99b9-72a9b391199e","meta":{"profile":["http://hl7.org/fhir/us/core/StructureDefinition/us-core-observation-lab"]},"status":"final","category":[{"coding":[{"system":"http://terminology.hl7.org/CodeSystem/observation-category","code":"laboratory","display":"Laboratory"}]}],"code":{"coding":[{"system":"http://loinc.org","code":"47235-7"}]},"subject":{"reference":"Patient/e03d1593-88ae-4a8b-9b44-91374a081291"},"effectiveDateTime":"2022-04-03T00:00:00+00:00","valueRatio":{"numerator":{"value":1},"denominator":{"value":64}}},"request":{"method":"POST","url":"Observation"}},{"fullUrl":"Observation/3a7feefa-40fd-4eaa-9be3-de0e78353f1f","resource":{"resourceType":"Observation","id":"3a7feefa-40fd-4eaa-9be3-de0e78353f1f","meta":{"profile":["http://hl7.org/fhir/us/core/StructureDefinition/us-core-observation-lab"]},"status":"final","category":[{"coding":[{"system":"http://terminology.hl7.org/CodeSystem/observation-category","code":"laboratory","display":"Laboratory"}]}],"code":{"coding":[{"system":"http://loinc.org","code":"46203-6"}]},"subject":{"reference":"Patient/e03d1593-88ae-4a8b-9b44-91374a081291"},"effectiveDateTime":"2022-07-17T00:00:00+00:00","valueRatio":{"numerator":{"value":1},"denominator":{"value":4}}},"request":{"method":"POST","url":"Observation"}},{"fullUrl":"Condition/d39c6d97-b3c5-427e-9881-c58e4c89b648","resource":{"resourceType":"Condition","id":"d39c6d97-b3c5-427e-9881-c58e4c89b648","meta":{"profile":["http://hl7.org/fhir/us/core/StructureDefinition/us-core-condition"]},"clinicalStatus":{"coding":[{"system":"http://terminology.hl7.org/CodeSystem/condition-clinical","code":"active","display":"Active"}]},"category":[{"coding":[{"system":"http://terminology.hl7.org/CodeSystem/condition-category","code":"problem-list-item"}]}],"code":{"coding":[{"system":"http://snomed.info/sct","code":"418290006"}]},"subject":{"reference":"Patient/e03d1593-88ae-4a8b-9b44-91374a081291"},"onsetDateTime":"2022-10-30T00:00:00+00:00"},"request":{"method":"POST","url":"Condition"}},{"fullUrl":"Condition/5dbede81-0833-44b3-9de2-f660c4c56bea","resource":{"resourceType":"Condition","id":"5dbede81-0833-44b3-9de2-f660c4c56bea","meta":{"profile":["http://hl7.org/fhir/us/core/StructureDefinition/us-core-condition"]},"clinicalStatus":{"coding":[{"system":"http://terminology.hl7.org/CodeSystem/condition-clinical","code":"active","display":"Active"}]},"category":[{"coding":[{"system":"http://terminology.hl7.org/CodeSystem/condition-category","code":"problem-list-item"}]}],"code":{"coding":[{"system":"http://snomed.info/sct","code":"418290006"}]},"subject":{"reference":"Patient/e03d1593-88ae-4a8b-9b44-91374a081291"},"onsetDateTime":"2022-09-15T00:00:00+00:00"},"request":{"method":"POST","url":"Condition"}},{"fullUrl":"Condition/307a7d17-e48f-4ef8-bf5c-437fb488f6ca","resource":{"resourceType":"Condition","id":"307a7d17-e48f-4ef8-bf5c-437fb488f6ca","meta":{"profile":["http://hl7.org/fhir/us/core/StructureDefinition/us-core-condition"]},"clinicalStatus":{"coding":[{"system":"http://terminology.hl7.org/CodeSystem/condition-clinical","code":"active","display":"Active"}]},"category":[{"coding":[{"system":"http://terminology.hl7.org/CodeSystem/condition-category","code":"problem-list-item"}]}],"code":{"coding":[{"system":"http://snomed.info/sct","code":"91554004"}]},"subject":{"reference":"Patient/e03d1593-88ae-4a8b-9b44-91374a081291"},"onsetDateTime":"2022-12-31T00:00:00+00:00"},"request":{"method":"POST","url":"Condition"}},{"fullUrl":"Condition/54a73912-23e3-4efb-acbc-c51719670715","resource":{"resourceType":"Condition","id":"54a73912-23e3-4efb-acbc-c51719670715","meta":{"profile":["http://hl7.org/fhir/us/core/StructureDefinition/us-core-condition"]},"clinicalStatus":{"coding":[{"system":"http://terminology.hl7.org/CodeSystem/condition-clinical","code":"active","display":"Active"}]},"category":[{"coding":[{"system":"http://terminology.hl7.org/CodeSystem/condition-category","code":"problem-list-item"}]}],"code":{"coding":[{"system":"http://snomed.info/sct","code":"709977002"}]},"subject":{"reference":"Patient/e03d1593-88ae-4a8b-9b44-91374a081291"},"onsetDateTime":"2022-10-18T00:00:00+00:00"},"request":{"method":"POST","url":"Condition"}},{"fullUrl":"Condition/f7876c7f-9e10-4919-a001-5f4c9eeaa4b5","resource":{"resourceType":"Condition","id":"f7876c7f-9e10-4919-a001-5f4c9eeaa4b5","meta":{"profile":["http://hl7.org/fhir/us/core/StructureDefinition/us-core-condition"]},"clinicalStatus":{"coding":[{"system":"http://terminology.hl7.org/CodeSystem/condition-clinical","code":"active","display":"Active"}]},"category":[{"coding":[{"system":"http://terminology.hl7.org/CodeSystem/condition-category","code":"problem-list-item"}]}],"code":{"coding":[{"system":"http://snomed.info/sct","code":"44882003"}]},"subject":{"reference":"Patient/e03d1593-88ae-4a8b-9b44-91374a081291"},"onsetDateTime":"2022-06-26T00:00:00+00:00"},"request":{"method":"POST","url":"Condition"}},{"fullUrl":"Observation/ac229f33-f055-419a-b69b-9b46f075a19b","resource":{"resourceType":"Observation","id":"ac229f33-f055-419a-b69b-9b46f075a19b","meta":{"profile":["http://hl7.org/fhir/us/core/StructureDefinition/us-core-observation-lab"]},"status":"final","category":[{"coding":[{"system":"http://terminology.hl7.org/CodeSystem/observation-category","code":"laboratory","display":"Laboratory"}]}],"code":{"coding":[{"system":"http://loinc.org","code":"26464-8"}]},"subject":{"reference":"Patient/e03d1593-88ae-4a8b-9b44-91374a081291"},"effectiveDateTime":"2022-05-28T00:00:00+00:00","valueQuantity":{"value":9.2}},"request":{"method":"POST","url":"Observation"}},{"fullUrl":"Observation/33e97de9-aec8-4833-ada2-7bce02bd2198","resource":{"resourceType":"Observation","id":"33e97de9-aec8-4833-ada2-7bce02bd2198","meta":{"profile":["http://hl7.org/fhir/us/core/StructureDefinition/us-core-observation-lab"]},"status":"final","category":[{"coding":[{"system":"http://terminology.hl7.org/CodeSystem/observation-category","code":"laboratory","display":"Laboratory"}]}],"code":{"coding":[{"system":"http://loinc.org","code":"26464-8"}]},"subject":{"reference":"Patient/e03d1593-88ae-4a8b-9b44-91374a081291"},"effectiveDateTime":"2022-05-23T00:00:00+00:00","valueQuantity":{"value":5}},"request":{"method":"POST","url":"Observation"}},{"fullUrl":"Observation/a040dddf-b77a-4e34-b01c-1cb99c2dbf6e","resource":{"resourceType":"Observation","id":"a040dddf-b77a-4e34-b01c-1cb99c2dbf6e","meta":{"profile":["http://hl7.org/fhir/us/core/StructureDefinition/us-core-bmi"]},"status":"final","category":[{"coding":[{"system":"http://terminology.hl7.org/CodeSystem/observation-category","code":"vital-signs","display":"Vital Signs"}]}],"code":{"coding":[{"system":"http://loinc.org","code":"39156-5"}]},"subject":{"reference":"Patient/e03d1593-88ae-4a8b-9b44-91374a081291"},"effectiveDateTime":"2022-05-01T00:00:00+00:00","valueQuantity":{"value":29.61,"unit":"kg/m2","system":"http://unitsofmeasure.org","code":"kg/m2"}},"request":{"method":"POST","url":"Observation"}},{"fullUrl":"Observation/e32d7fad-e16b-4867-be64-a538958953fd","resource":{"resourceType":"Observation","id":"e32d7fad-e16b-4867-be64-a538958953fd","meta":{"profile":["http://hl7.org/fhir/us/core/StructureDefinition/us-core-head-circumference"]},"status":"final","category":[{"coding":[{"system":"http://terminology.hl7.org/CodeSystem/observation-category","code":"vital-signs","display":"Vital Signs"}]}],"code":{"coding":[{"system":"http://loinc.org","code":"9843-4"}]},"subject":{"reference":"Patient/e03d1593-88ae-4a8b-9b44-91374a081291"},"effectiveDateTime":"2022-09-02T00:00:00+00:00","valueQuantity":{"value":2.7,"unit":"Inch","system":"http://unitsofmeasure.org","code":"[in_i]"}},"request":{"method":"POST","url":"Observation"}},{"fullUrl":"Observation/fcc8db7e-6bb4-49e6-a80b-af31fb24870f","resource":{"resourceType":"Observation","id":"fcc8db7e-6bb4-49e6-a80b-af31fb24870f","meta":{"profile":["http://hl7.org/fhir/us/core/StructureDefinition/us-core-head-circumference"]},"status":"final","category":[{"coding":[{"system":"http://terminology.hl7.org/CodeSystem/observation-category","code":"vital-signs","display":"Vital Signs"}]}],"code":{"coding":[{"system":"http://loinc.org","code":"9843-4"}]},"subject":{"reference":"Patient/e03d1593-88ae-4a8b-9b44-91374a081291"},"effectiveDateTime":"2022-02-19T00:00:00+00:00","valueQuantity":{"value":1,"unit":"Inch","system":"http://unitsofmeasure.org","code":"[in_i]"}},"request":{"method":"POST","url":"Observation"}},{"fullUrl":"Observation/6fcce7a0-daa3-416c-ba52-c68530b08039","resource":{"resourceType":"Observation","id":"6fcce7a0-daa3-416c-ba52-c68530b08039","meta":{"profile":["http://hl7.org/fhir/us/core/StructureDefinition/us-core-body-height"]},"status":"final","category":[{"coding":[{"system":"http://terminology.hl7.org/CodeSystem/observation-category","code":"vital-signs","display":"Vital Signs"}]}],"code":{"coding":[{"system":"http://loinc.org","code":"8302-2"}]},"subject":{"reference":"Patient/e03d1593-88ae-4a8b-9b44-91374a081291"},"effectiveDateTime":"2022-03-04T00:00:00+00:00","valueQuantity":{"value":63.6,"unit":"Inch","system":"http://unitsofmeasure.org","code":"[in_i]"}},"request":{"method":"POST","url":"Observation"}},{"fullUrl":"Observation/61cd4deb-666f-47aa-b425-d7ecc67dfa53","resource":{"resourceType":"Observation","id":"61cd4deb-666f-47aa-b425-d7ecc67dfa53","meta":{"profile":["http://hl7.org/fhir/us/core/StructureDefinition/us-core-body-weight"]},"status":"final","category":[{"coding":[{"system":"http://terminology.hl7.org/CodeSystem/observation-category","code":"vital-signs","display":"Vital Signs"}]}],"code":{"coding":[{"system":"http://loinc.org","code":"29463-7"}]},"subject":{"reference":"Patient/e03d1593-88ae-4a8b-9b44-91374a081291"},"effectiveDateTime":"2022-08-21T00:00:00+00:00","valueQuantity":{"value":76.52,"unit":"kilogram","system":"http://unitsofmeasure.org","code":"kg"}},"request":{"method":"POST","url":"Observation"}},{"fullUrl":"Observation/b88bc295-a86b-4706-80c7-d3a02faf0130","resource":{"resourceType":"Observation","id":"b88bc295-a86b-4706-80c7-d3a02faf0130","meta":{"profile":["http://hl7.org/fhir/us/core/StructureDefinition/us-core-body-temperature"]},"status":"final","category":[{"coding":[{"system":"http://terminology.hl7.org/CodeSystem/observation-category","code":"vital-signs","display":"Vital Signs"}]}],"code":{"coding":[{"system":"http://loinc.org","code":"8310-5"}]},"subject":{"reference":"Patient/e03d1593-88ae-4a8b-9b44-91374a081291"},"effectiveDateTime":"2022-07-02T00:00:00+00:00","valueQuantity":{"value":124.41,"unit":"Degrees Fahrenheit","system":"http://unitsofmeasure.org","code":"[degF]"}},"request":{"method":"POST","url":"Observation"}},{"fullUrl":"Observation/f0c31991-09fe-4bd3-ad7d-edf8ab0deed1","resource":{"resourceType":"Observation","id":"f0c31991-09fe-4bd3-ad7d-edf8ab0deed1","meta":{"profile":["http://hl7.org/fhir/us/core/StructureDefinition/us-core-body-temperature"]},"status":"final","category":[{"coding":[{"system":"http://terminology.hl7.org/CodeSystem/observation-category","code":"vital-signs","display":"Vital Signs"}]}],"code":{"coding":[{"system":"http://loinc.org","code":"8310-5"}]},"subject":{"reference":"Patient/e03d1593-88ae-4a8b-9b44-91374a081291"},"effectiveDateTime":"2022-06-08T00:00:00+00:00","valueQuantity":{"value":20.52,"unit":"Degrees Fahrenheit","system":"http://unitsofmeasure.org","code":"[degF]"}},"request":{"method":"POST","url":"Observation"}},{"fullUrl":"Observation/6626c688-c962-4202-a1fd-317b84086df5","resource":{"resourceType":"Observation","id":"6626c688-c962-4202-a1fd-317b84086df5","meta":{"profile":["http://hl7.org/fhir/us/core/StructureDefinition/us-core-heart-rate"]},"status":"final","category":[{"coding":[{"system":"http://terminology.hl7.org/CodeSystem/observation-category","code":"vital-signs","display":"Vital Signs"}]}],"code":{"coding":[{"system":"http://loinc.org","code":"8867-4"}]},"subject":{"reference":"Patient/e03d1593-88ae-4a8b-9b44-91374a081291"},"effectiveDateTime":"2022-01-04T00:00:00+00:00","valueQuantity":{"value":96.5,"unit":"Per Minute","system":"http://unitsofmeasure.org","code":"/min"}},"request":{"method":"POST","url":"Observation"}},{"fullUrl":"Patient/b96f7fce-ed4c-4536-9b76-d8ac3f260b68","resource":{"resourceType":"Patient","id":"b96f7fce-ed4c-4536-9b76-d8ac3f260b68","meta":{"profile":["http://hl7.org/fhir/us/core/StructureDefinition/us-core-patient"]},"extension":[{"extension":[{"url":"ombCategory","valueCoding":{"system":"urn:oid:2.16.840.1.113883.6.238","code":"1002-5","display":"American Indian or Alaska Native"}},{"url":"text","valueString":"American Indian or Alaska Native"}],"url":"http://hl7.org/fhir/us/core/StructureDefinition/us-core-race"},{"extension":[{"url":"ombCategory","valueCoding":{"system":"urn:oid:2.16.840.1.113883.6.238","code":"2186-5","display":"Not Hispanic or Latino"}},{"url":"text","valueString":"Not Hispanic or Latino"}],"url":"http://hl7.org/fhir/us/core/StructureDefinition/us-core-ethnicity"}],"identifier":[{"type":{"coding":[{"system":"http://terminology.hl7.org/CodeSystem/v2-0203","code":"MR"}]},"system":"urn:fhirgen:mrn","value":"592-17-6430"},{"system":"http://hl7.org/fhir/sid/us-ssn","value":"249-64-4613"}],"name":[{"use":"official","family":"Jacobson","given":["Deborah"]},{"use":"maiden","family":"Gray"}],"telecom":[{"system":"phone","value":"096.960.4486","use":"mobile"},{"system":"email","value":"qphillips@hotmail.com","use":"home"}],"gender":"female","birthDate":"1990-03-02","address":[{"use":"home","line":["946 Kristen Rapid Suite 914"],"city":"Greenburgh","state":"VA","postalCode":"98287"},{"use":"old","line":["691 Vincent Union"],"city":"Bakerfurt","state":"IA","postalCode":"04914"}],"maritalStatus":{"coding":[{"system":"http://terminology.hl7.org/CodeSystem/v3-MaritalStatus","code":"P","display":"Polygamous"}]}},"request":{"method":"POST","url":"Patient"}},{"fullUrl":"Observation/01cafcad-2c38-41e9-8b4b-3c17975952af","resource":{"resourceType":"Observation","id":"01cafcad-2c38-41e9-8b4b-3c17975952af","meta":{"profile":["http://hl7.org/fhir/us/core/StructureDefinition/us-core-observation-lab"]},"status":"final","category":[{"coding":[{"system":"http://terminology.hl7.org/CodeSystem/observation-category","code":"laboratory","display":"Laboratory"}]}],"code":{"coding":[{"system":"http://loinc.org","code":"71793-4"}]},"subject":{"reference":"Patient/b96f7fce-ed4c-4536-9b76-d8ac3f260b68"},"effectiveDateTime":"2022-03-14T00:00:00+00:00","valueRatio":{"numerator":{"value":1},"denominator":{"value":32}}},"request":{"method":"POST","url":"Observation"}},{"fullUrl":"Observation/53042425-9bbb-4e6f-b40b-7f19ac3a8daf","resource":{"resourceType":"Observation","id":"53042425-9bbb-4e6f-b40b-7f19ac3a8daf","meta":{"profile":["http://hl7.org/fhir/us/core/StructureDefinition/us-core-observation-lab"]},"status":"final","category":[{"coding":[{"system":"http://terminology.hl7.org/CodeSystem/observation-category","code":"laboratory","display":"Laboratory"}]}],"code":{"coding":[{"system":"http://loinc.org","code":"46203-6"}]},"subject":{"reference":"Patient/b96f7fce-ed4c-4536-9b76-d8ac3f260b68"},"effectiveDateTime":"2022-05-12T00:00:00+00:00","valueRatio":{"numerator":{"value":1},"denominator":{"value":64}}},"request":{"method":"POST","url":"Observation"}},{"fullUrl":"Observation/9e2c4997-8e78-43e7-a628-a5dfb38bfd69","resource":{"resourceType":"Observation","id":"9e2c4997-8e78-43e7-a628-a5dfb38bfd69","meta":{"profile":["http://hl7.org/fhir/us/core/StructureDefinition/us-core-observation-lab"]},"status":"final","category":[{"coding":[{"system":"http://terminology.hl7.org/CodeSystem/observation-category","code":"laboratory","display":"Laboratory"}]}],"code":{"coding":[{"system":"http://loinc.org","code":"47235-7"}]},"subject":{"reference":"Patient/b96f7fce-ed4c-4536-9b76-d8ac3f260b68"},"effectiveDateTime":"2022-01-12T00:00:00+00:00","valueRatio":{"numerator":{"value":1},"denominator":{"value":4}}},"request":{"method":"POST","url":"Observation"}},{"fullUrl":"Condition/4b97c063-dc78-4a82-920d-fc63b896c5e6","resource":{"resourceType":"Condition","id":"4b97c063-dc78-4a82-920d-fc63b896c5e6","meta":{"profile":["http://hl7.org/fhir/us/core/StructureDefinition/us-core-condition"]},"clinicalStatus":{"coding":[{"system":"http://terminology.hl7.org/CodeSystem/condition-clinical","code":"active","display":"Active"}]},"category":[{"coding":[{"system":"http://terminology.hl7.org/CodeSystem/condition-category","code":"problem-list-item"}]}],"code":{"coding":[{"system":"http://snomed.info/sct","code":"736686006"}]},"subject":{"reference":"Patient/b96f7fce-ed4c-4536-9b76-d8ac3f260b68"},"onsetDateTime":"2022-12-24T00:00:00+00:00"},"request":{"method":"POST","url":"Condition"}},{"fullUrl":"Condition/2a1ebd41-b129-4c12-9422-d2a8169cad62","resource":{"resourceType":"Condition","id":"2a1ebd41-b129-4c12-9422-d2a8169cad62","meta":{"profile":["http://hl7.org/fhir/us/core/StructureDefinition/us-core-condition"]},"clinicalStatus":{"coding":[{"system":"http://terminology.hl7.org/CodeSystem/condition-clinical","code":"active","display":"Active"}]},"category":[{"coding":[{"system":"http://terminology.hl7.org/CodeSystem/condition-category","code":"problem-list-item"}]}],"code":{"coding":[{"system":"http://snomed.info/sct","code":"709977002"}]},"subject":{"reference":"Patient/b96f7fce-ed4c-4536-9b76-d8ac3f260b68"},"onsetDateTime":"2022-12-15T00:00:00+00:00"},"request":{"method":"POST","url":"Condition"}},{"fullUrl":"Condition/8543d004-e499-46c2-b73f-1d6b9ea343b0","resource":{"resourceType":"Condition","id":"8543d004-e499-46c2-b73f-1d6b9ea343b0","meta":{"profile":["http://hl7.org/fhir/us/core/StructureDefinition/us-core-condition"]},"clinicalStatus":{"coding":[{"system":"http://terminology.hl7.org/CodeSystem/condition-clinical","code":"active","display":"Active"}]},"category":[{"coding":[{"system":"http://terminology.hl7.org/CodeSystem/condition-category","code":"problem-list-item"}]}],"code":{"coding":[{"system":"http://snomed.info/sct","code":"709977002"}]},"subject":{"reference":"Patient/b96f7fce-ed4c-4536-9b76-d8ac3f260b68"},"onsetDateTime":"2022-02-24T00:00:00+00:00"},"request":{"method":"POST","url":"Condition"}},{"fullUrl":"Condition/18dc53b3-4a33-4a6b-b5d8-cc577a156f73","resource":{"resourceType":"Condition","id":"18dc53b3-4a33-4a6b-b5d8-cc577a156f73","meta":{"profile":["http://hl7.org/fhir/us/core/StructureDefinition/us-core-condition"]},"clinicalStatus":{"coding":[{"system":"http://terminology.hl7.org/CodeSystem/condition-clinical","code":"active","display":"Active"}]},"category":[{"coding":[{"system":"http://terminology.hl7.org/CodeSystem/condition-category","code":"problem-list-item"}]}],"code":{"coding":[{"system":"http://snomed.info/sct","code":"709977002"}]},"subject":{"reference":"Patient/b96f7fce-ed4c-4536-9b76-d8ac3f260b68"},"onsetDateTime":"2022-11-25T00:00:00+00:00"},"request":{"method":"POST","url":"Condition"}},{"fullUrl":"Condition/fdea86d7-9101-4d7b-a5c0-9920a1b189a3","resource":{"resourceType":"Condition","id":"fdea86d7-9101-4d7b-a5c0-9920a1b189a3","meta":{"profile":["http://hl7.org/fhir/us/core/StructureDefinition/us-core-condition"]},"clinicalStatus":{"coding":[{"system":"http://terminology.hl7.org/CodeSystem/condition-clinical","code":"active","display":"Active"}]},"category":[{"coding":[{"system":"http://terminology.hl7.org/CodeSystem/condition-category","code":"problem-list-item"}]}],"code":{"coding":[{"system":"http://snomed.info/sct","code":"736686006"}]},"subject":{"reference":"Patient/b96f7fce-ed4c-4536-9b76-d8ac3f260b68"},"onsetDateTime":"2022-10-26T00:00:00+00:00"},"request":{"method":"POST","url":"Condition"}},{"fullUrl":"Observation/5e3d30c3-dba5-4490-a519-ba9bc1ea6422","resource":{"resourceType":"Observation","id":"5e3d30c3-dba5-4490-a519-ba9bc1ea6422","meta":{"profile":["http://hl7.org/fhir/us/core/StructureDefinition/us-core-observation-lab"]},"status":"final","category":[{"coding":[{"system":"http://terminology.hl7.org/CodeSystem/observation-category","code":"laboratory","display":"Laboratory"}]}],"code":{"coding":[{"system":"http://loinc.org","code":"49498-9"}]},"subject":{"reference":"Patient/b96f7fce-ed4c-4536-9b76-d8ac3f260b68"},"effectiveDateTime":"2022-11-16T00:00:00+00:00","valueQuantity":{"value":5.6}},"request":{"method":"POST","url":"Observation"}},{"fullUrl":"Observation/d3644fec-e46b-4ce9-97b5-555d55f44728","resource":{"resourceType":"Observation","id":"d3644fec-e46b-4ce9-97b5-555d55f44728","meta":{"profile":["http://hl7.org/fhir/us/core/StructureDefinition/us-core-observation-lab"]},"status":"final","category":[{"coding":[{"system":"http://terminology.hl7.org/CodeSystem/observation-category","code":"laboratory","display":"Laboratory"}]}],"code":{"coding":[{"system":"http://loinc.org","code":"49498-9"}]},"subject":{"reference":"Patient/b96f7fce-ed4c-4536-9b76-d8ac3f260b68"},"effectiveDateTime":"2022-08-16T00:00:00+00:00","valueQuantity":{"value":9.1}},"request":{"method":"POST","url":"Observation"}},{"fullUrl":"Observation/b0c52fe9-3e82-4ab8-ae11-52219e3696bc","resource":{"resourceType":"Observation","id":"b0c52fe9-3e82-4ab8-ae11-52219e3696bc","meta":{"profile":["http://hl7.org/fhir/us/core/StructureDefinition/us-core-bmi"]},"status":"final","category":[{"coding":[{"system":"http://terminology.hl7.org/CodeSystem/observation-category","code":"vital-signs","display":"Vital Signs"}]}],"code":{"coding":[{"system":"http://loinc.org","code":"39156-5"}]},"subject":{"reference":"Patient/b96f7fce-ed4c-4536-9b76-d8ac3f260b68"},"effectiveDateTime":"2022-10-22T00:00:00+00:00","valueQuantity":{"value":23.6,"unit":"kg/m2","system":"http://unitsofmeasure.org","code":"kg/m2"}},"request":{"method":"POST","url":"Observation"}},{"fullUrl":"Observation/beed95e2-02c7-4a9c-86fe-c03cbe51c3bc","resource":{"resourceType":"Observation","id":"beed95e2-02c7-4a9c-86fe-c03cbe51c3bc","meta":{"profile":["http://hl7.org/fhir/us/core/StructureDefinition/us-core-head-circumference"]},"status":"final","category":[{"coding":[{"system":"http://terminology.hl7.org/CodeSystem/observation-category","code":"vital-signs","display":"Vital Signs"}]}],"code":{"coding":[{"system":"http://loinc.org","code":"9843-4"}]},"subject":{"reference":"Patient/b96f7fce-ed4c-4536-9b76-d8ac3f260b68"},"effectiveDateTime":"2022-04-14T00:00:00+00:00","valueQuantity":{"value":2.4,"unit":"Inch","system":"http://unitsofmeasure.org","code":"[in_i]"}},"request":{"method":"POST","url":"Observation"}},{"fullUrl":"Observation/43ef36dc-b80b-4d4b-a50f-947ef2606529","resource":{"resourceType":"Observation","id":"43ef36dc-b80b-4d4b-a50f-947ef2606529","meta":{"profile":["http://hl7.org/fhir/us/core/StructureDefinition/us-core-head-circumference"]},"status":"final","category":[{"coding":[{"system":"http://terminology.hl7.org/CodeSystem/observation-category","code":"vital-signs","display":"Vital Signs"}]}],"code":{"coding":[{"system":"http://loinc.org","code":"9843-4"}]},"subject":{"reference":"Patient/b96f7fce-ed4c-4536-9b76-d8ac3f260b68"},"effectiveDateTime":"2022-02-19T00:00:00+00:00","valueQuantity":{"value":7.5,"unit":"Inch","system":"http://unitsofmeasure.org","code":"[in_i]"}},"request":{"method":"POST","url":"Observation"}},{"fullUrl":"Observation/79388cb2-981d-41a7-8872-5928e027c349","resource":{"resourceType":"Observation","id":"79388cb2-981d-41a7-8872-5928e027c349","meta":{"profile":["http://hl7.org/fhir/us/core/StructureDefinition/us-core-body-height"]},"status":"final","category":[{"coding":[{"system":"http://terminology.hl7.org/CodeSystem/observation-category","code":"vital-signs","display":"Vital Signs"}]}],"code":{"coding":[{"system":"http://loinc.org","code":"8302-2"}]},"subject":{"reference":"Patient/b96f7fce-ed4c-4536-9b76-d8ac3f260b68"},"effectiveDateTime":"2022-03-26T00:00:00+00:00","valueQuantity":{"value":69.5,"unit":"Inch","system":"http://unitsofmeasure.org","code":"[in_i]"}},"request":{"method":"POST","url":"Observation"}},{"fullUrl":"Observation/34dc4861-3771-475d-9c15-6b13da666c47","resource":{"resourceType":"Observation","id":"34dc4861-3771-475d-9c15-6b13da666c47","meta":{"profile":["http://hl7.org/fhir/us/core/StructureDefinition/us-core-body-weight"]},"status":"final","category":[{"coding":[{"system":"http://terminology.hl7.org/CodeSystem/observation-category","code":"vital-signs","display":"Vital Signs"}]}],"code":{"coding":[{"system":"http://loinc.org","code":"29463-7"}]},"subject":{"reference":"Patient/b96f7fce-ed4c-4536-9b76-d8ac3f260b68"},"effectiveDateTime":"2022-02-26T00:00:00+00:00","valueQuantity":{"value":124.33,"unit":"kilogram","system":"http://unitsofmeasure.org","code":"kg"}},"request":{"method":"POST","url":"Observation"}},{"fullUrl":"Observation/2a955fdf-0a1e-4027-95c3-82f19498a40c","resource":{"resourceType":"Observation","id":"2a955fdf-0a1e-4027-95c3-82f19498a40c","meta":{"profile":["http://hl7.org/fhir/us/core/StructureDefinition/us-core-body-weight"]},"status":"final","category":[{"coding":[{"system":"http://terminology.hl7.org/CodeSystem/observation-category","code":"vital-signs","display":"Vital Signs"}]}],"code":{"coding":[{"system":"http://loinc.org","code":"29463-7"}]},"subject":{"reference":"Patient/b96f7fce-ed4c-4536-9b76-d8ac3f260b68"},"effectiveDateTime":"2022-11-02T00:00:00+00:00","valueQuantity":{"value":30.15,"unit":"kilogram","system":"http://unitsofmeasure.org","code":"kg"}},"request":{"method":"POST","url":"Observation"}},{"fullUrl":"Observation/2ff701b2-8bbd-4836-88c6-51c8d4707277","resource":{"resourceType":"Observation","id":"2ff701b2-8bbd-4836-88c6-51c8d4707277","meta":{"profile":["http://hl7.org/fhir/us/core/StructureDefinition/us-core-body-temperature"]},"status":"final","category":[{"coding":[{"system":"http://terminology.hl7.org/CodeSystem/observation-category","code":"vital-signs","display":"Vital Signs"}]}],"code":{"coding":[{"system":"http://loinc.org","code":"8310-5"}]},"subject":{"reference":"Patient/b96f7fce-ed4c-4536-9b76-d8ac3f260b68"},"effectiveDateTime":"2022-05-10T00:00:00+00:00","valueQuantity":{"value":80.2,"unit":"Degrees Fahrenheit","system":"http://unitsofmeasure.org","code":"[degF]"}},"request":{"method":"POST","url":"Observation"}},{"fullUrl":"Observation/8ad3f9fb-f49f-437a-bcb2-f0f5bb195c90","resource":{"resourceType":"Observation","id":"8ad3f9fb-f49f-437a-bcb2-f0f5bb195c90","meta":{"profile":["http://hl7.org/fhir/us/core/StructureDefinition/us-core-body-temperature"]},"status":"final","category":[{"coding":[{"system":"http://terminology.hl7.org/CodeSystem/observation-category","code":"vital-signs","display":"Vital Signs"}]}],"code":{"coding":[{"system":"http://loinc.org","code":"8310-5"}]},"subject":{"reference":"Patient/b96f7fce-ed4c-4536-9b76-d8ac3f260b68"},"effectiveDateTime":"2022-06-22T00:00:00+00:00","valueQuantity":{"value":35.49,"unit":"Degrees Fahrenheit","system":"http://unitsofmeasure.org","code":"[degF]"}},"request":{"method":"POST","url":"Observation"}},{"fullUrl":"Observation/c6d0de40-89e3-430c-b1a0-26e6a86cee1e","resource":{"resourceType":"Observation","id":"c6d0de40-89e3-430c-b1a0-26e6a86cee1e","meta":{"profile":["http://hl7.org/fhir/us/core/StructureDefinition/us-core-heart-rate"]},"status":"final","category":[{"coding":[{"system":"http://terminology.hl7.org/CodeSystem/observation-category","code":"vital-signs","display":"Vital Signs"}]}],"code":{"coding":[{"system":"http://loinc.org","code":"8867-4"}]},"subject":{"reference":"Patient/b96f7fce-ed4c-4536-9b76-d8ac3f260b68"},"effectiveDateTime":"2022-12-02T00:00:00+00:00","valueQuantity":{"value":98.9,"unit":"Per Minute","system":"http://unitsofmeasure.org","code":"/min"}},"request":{"method":"POST","url":"Observation"}},{"fullUrl":"Observation/e44741c2-90ab-4e84-8fae-2d4725a114f0","resource":{"resourceType":"Observation","id":"e44741c2-90ab-4e84-8fae-2d4725a114f0","meta":{"profile":["http://hl7.org/fhir/us/core/StructureDefinition/us-core-heart-rate"]},"status":"final","category":[{"coding":[{"system":"http://terminology.hl7.org/CodeSystem/observation-category","code":"vital-signs","display":"Vital Signs"}]}],"code":{"coding":[{"system":"http://loinc.org","code":"8867-4"}]},"subject":{"reference":"Patient/b96f7fce-ed4c-4536-9b76-d8ac3f260b68"},"effectiveDateTime":"2022-11-26T00:00:00+00:00","valueQuantity":{"value":98.6,"unit":"Per Minute","system":"http://unitsofmeasure.org","code":"/min"}},"request":{"method":"POST","url":"Observation"}},{"fullUrl":"Patient/5852bca6-ff6d-44a5-b8d9-de3ec554d1a1","resource":{"resourceType":"Patient","id":"5852bca6-ff6d-44a5-b8d9-de3ec554d1a1","meta":{"profile":["http://hl7.org/fhir/us/core/StructureDefinition/us-core-patient"]},"extension":[{"extension":[{"url":"ombCategory","valueCoding":{"system":"http://terminology.hl7.org/CodeSystem/v3-NullFlavor","code":"UNK","display":"unknown"}},{"url":"text","valueString":"unknown"}],"url":"http://hl7.org/fhir/us/core/StructureDefinition/us-core-race"},{"extension":[{"url":"ombCategory","valueCoding":{"system":"urn:oid:2.16.840.1.113883.6.238","code":"2135-2","display":"Hispanic or Latino"}},{"url":"text","valueString":"Hispanic or Latino"}],"url":"http://hl7.org/fhir/us/core/StructureDefinition/us-core-ethnicity"}],"identifier":[{"type":{"coding":[{"system":"http://terminology.hl7.org/CodeSystem/v2-0203","code":"MR"}]},"system":"urn:fhirgen:mrn","value":"043-24-9128"},{"system":"http://hl7.org/fhir/sid/us-ssn","value":"737-99-6452"}],"name":[{"use":"official","family":"Allen","given":["Jamie"]},{"use":"maiden","family":"Butler"}],"telecom":[{"system":"phone","value":"+1-507-113-8105x6516","use":"mobile"},{"system":"email","value":"dtaylor@gmail.com","use":"work"}],"gender":"other","birthDate":"1979-04-18","address":[{"use":"home","line":["0761 Laura River Apt. 983"],"city":"New Robert","state":"WI","postalCode":"32442"},{"use":"old","line":["06131 Austin Village"],"city":"Andrewmouth","state":"IL","postalCode":"07948"}],"maritalStatus":{"coding":[{"system":"http://terminology.hl7.org/CodeSystem/v3-MaritalStatus","code":"I","display":"Interlocutory"}]}},"request":{"method":"POST","url":"Patient"}},{"fullUrl":"Observation/3f85a3be-ceb0-4981-85d0-8a7f8e937c7b","resource":{"resourceType":"Observation","id":"3f85a3be-ceb0-4981-85d0-8a7f8e937c7b","meta":{"profile":["http://hl7.org/fhir/us/core/StructureDefinition/us-core-observation-lab"]},"status":"final","category":[{"coding":[{"system":"http://terminology.hl7.org/CodeSystem/observation-category","code":"laboratory","display":"Laboratory"}]}],"code":{"coding":[{"system":"http://loinc.org","code":"5394-2"}]},"subject":{"reference":"Patient/5852bca6-ff6d-44a5-b8d9-de3ec554d1a1"},"effectiveDateTime":"2022-05-16T00:00:00+00:00","valueRatio":{"numerator":{"value":1},"denominator":{"value":64}}},"request":{"method":"POST","url":"Observation"}},{"fullUrl":"Observation/e65d783b-719e-4e56-b298-afdae4e00d7f","resource":{"resourceType":"Observation","id":"e65d783b-719e-4e56-b298-afdae4e00d7f","meta":{"profile":["http://hl7.org/fhir/us/core/StructureDefinition/us-core-observation-lab"]},"status":"final","category":[{"coding":[{"system":"http://terminology.hl7.org/CodeSystem/observation-category","code":"laboratory","display":"Laboratory"}]}],"code":{"coding":[{"system":"http://loinc.org","code":"31146-4"}]},"subject":{"reference":"Patient/5852bca6-ff6d-44a5-b8d9-de3ec554d1a1"},"effectiveDateTime":"2022-11-23T00:00:00+00:00","valueRatio":{"numerator":{"value":1},"denominator":{"value":32}}},"request":{"method":"POST","url":"Observation"}},{"fullUrl":"Observation/b1b2cd0c-0aa0-4ca5-a0f7-830810fa46e0","resource":{"resourceType":"Observation","id":"b1b2cd0c-0aa0-4ca5-a0f7-830810fa46e0","meta":{"profile":["http://hl7.org/fhir/us/core/StructureDefinition/us-core-observation-lab"]},"status":"final","category":[{"coding":[{"system":"http://terminology.hl7.org/CodeSystem/observation-category","code":"laboratory","display":"Laboratory"}]}],"code":{"coding":[{"system":"http://loinc.org","code":"46203-6"}]},"subject":{"reference":"Patient/5852bca6-ff6d-44a5-b8d9-de3ec554d1a1"},"effectiveDateTime":"2022-06-06T00:00:00+00:00","valueRatio":{"numerator":{"value":1},"denominator":{"value":4}}},"request":{"method":"POST","url":"Observation"}},{"fullUrl":"Condition/ed1e6c65-3e31-4065-b2b9-99e7dbfa32f8","resource":{"resourceType":"Condition","id":"ed1e6c65-3e31-4065-b2b9-99e7dbfa32f8","meta":{"profile":["http://hl7.org/fhir/us/core/StructureDefinition/us-core-condition"]},"clinicalStatus":{"coding":[{"system":"http://terminology.hl7.org/CodeSystem/condition-clinical","code":"active","display":"Active"}]},"category":[{"coding":[{"system":"http://terminology.hl7.org/CodeSystem/condition-category","code":"problem-list-item"}]}],"code":{"coding":[{"system":"http://snomed.info/sct","code":"736686006"}]},"subject":{"reference":"Patient/5852bca6-ff6d-44a5-b8d9-de3ec554d1a1"},"onsetDateTime":"2022-03-22T00:00:00+00:00"},"request":{"method":"POST","url":"Condition"}},{"fullUrl":"Condition/3bd1251a-5d7b-431f-9d32-573cea4ab8be","resource":{"resourceType":"Condition","id":"3bd1251a-5d7b-431f-9d32-573cea4ab8be","meta":{"profile":["http://hl7.org/fhir/us/core/StructureDefinition/us-core-condition"]},"clinicalStatus":{"coding":[{"system":"http://terminology.hl7.org/CodeSystem/condition-clinical","code":"active","display":"Active"}]},"category":[{"coding":[{"system":"http://terminology.hl7.org/CodeSystem/condition-category","code":"problem-list-item"}]}],"code":{"coding":[{"system":"http://snomed.info/sct","code":"709977002"}]},"subject":{"reference":"Patient/5852bca6-ff6d-44a5-b8d9-de3ec554d1a1"},"onsetDateTime":"2022-11-04T00:00:00+00:00"},"request":{"method":"POST","url":"Condition"}},{"fullUrl":"Condition/6f326092-2e49-442d-a563-0317fa733d3b","resource":{"resourceType":"Condition","id":"6f326092-2e49-442d-a563-0317fa733d3b","meta":{"profile":["http://hl7.org/fhir/us/core/StructureDefinition/us-core-condition"]},"clinicalStatus":{"coding":[{"system":"http://terminology.hl7.org/CodeSystem/condition-clinical","code":"active","display":"Active"}]},"category":[{"coding":[{"system":"http://terminology.hl7.org/CodeSystem/condition-category","code":"problem-list-item"}]}],"code":{"coding":[{"system":"http://snomed.info/sct","code":"736686006"}]},"subject":{"reference":"Patient/5852bca6-ff6d-44a5-b8d9-de3ec554d1a1"},"onsetDateTime":"2022-07-08T00:00:00+00:00"},"request":{"method":"POST","url":"Condition"}},{"fullUrl":"Condition/d8fdeee9-7a35-4311-9c36-39ce2d3524c4","resource":{"resourceType":"Condition","id":"d8fdeee9-7a35-4311-9c36-39ce2d3524c4","meta":{"profile":["http://hl7.org/fhir/us/core/StructureDefinition/us-core-condition"]},"clinicalStatus":{"coding":[{"system":"http://terminology.hl7.org/CodeSystem/condition-clinical","code":"active","display":"Active"}]},"category":[{"coding":[{"system":"http://terminology.hl7.org/CodeSystem/condition-category","code":"problem-list-item"}]}],"code":{"coding":[{"system":"http://snomed.info/sct","code":"736686006"}]},"subject":{"reference":"Patient/5852bca6-ff6d-44a5-b8d9-de3ec554d1a1"},"onsetDateTime":"2022-04-12T00:00:00+00:00"},"request":{"method":"POST","url":"Condition"}},{"fullUrl":"Condition/4a3a73ba-18d7-4632-b900-fae6844b84ba","resource":{"resourceType":"Condition","id":"4a3a73ba-18d7-4632-b900-fae6844b84ba","meta":{"profile":["http://hl7.org/fhir/us/core/StructureDefinition/us-core-condition"]},"clinicalStatus":{"coding":[{"system":"http://terminology.hl7.org/CodeSystem/condition-clinical","code":"active","display":"Active"}]},"category":[{"coding":[{"system":"http://terminology.hl7.org/CodeSystem/condition-category","code":"problem-list-item"}]}],"code":{"coding":[{"system":"http://snomed.info/sct","code":"736686006"}]},"subject":{"reference":"Patient/5852bca6-ff6d-44a5-b8d9-de3ec554d1a1"},"onsetDateTime":"2022-02-25T00:00:00+00:00"},"request":{"method":"POST","url":"Condition"}},{"fullUrl":"Condition/d069d711-f61b-49e2-8df2-6e3f84894ce5","resource":{"resourceType":"Condition","id":"d069d711-f61b-49e2-8df2-6e3f84894ce5","meta":{"profile":["http://hl7.org/fhir/us/core/StructureDefinition/us-core-condition"]},"clinicalStatus":{"coding":[{"system":"http://terminology.hl7.org/CodeSystem/condition-clinical","code":"active","display":"Active"}]},"category":[{"coding":[{"system":"http://terminology.hl7.org/CodeSystem/condition-category","code":"problem-list-item"}]}],"code":{"coding":[{"system":"http://snomed.info/sct","code":"709977002"}]},"subject":{"reference":"Patient/5852bca6-ff6d-44a5-b8d9-de3ec554d1a1"},"onsetDateTime":"2022-02-16T00:00:00+00:00"},"request":{"method":"POST","url":"Condition"}},{"fullUrl":"Condition/06a48e4c-459d-47eb-8729-e49650f94e75","resource":{"resourceType":"Condition","id":"06a48e4c-459d-47eb-8729-e49650f94e75","meta":{"profile":["http://hl7.org/fhir/us/core/StructureDefinition/us-core-condition"]},"clinicalStatus":{"coding":[{"system":"http://terminology.hl7.org/CodeSystem/condition-clinical","code":"active","display":"Active"}]},"category":[{"coding":[{"system":"http://terminology.hl7.org/CodeSystem/condition-category","code":"problem-list-item"}]}],"code":{"coding":[{"system":"http://snomed.info/sct","code":"418290006"}]},"subject":{"reference":"Patient/5852bca6-ff6d-44a5-b8d9-de3ec554d1a1"},"onsetDateTime":"2022-11-06T00:00:00+00:00"},"request":{"method":"POST","url":"Condition"}},{"fullUrl":"Condition/3c260c0a-c3dc-4e8a-8e4f-57b918ebf032","resource":{"resourceType":"Condition","id":"3c260c0a-c3dc-4e8a-8e4f-57b918ebf032","meta":{"profile":["http://hl7.org/fhir/us/core/StructureDefinition/us-core-condition"]},"clinicalStatus":{"coding":[{"system":"http://terminology.hl7.org/CodeSystem/condition-clinical","code":"active","display":"Active"}]},"category":[{"coding":[{"system":"http://terminology.hl7.org/CodeSystem/condition-category","code":"problem-list-item"}]}],"code":{"coding":[{"system":"http://snomed.info/sct","code":"44882003"}]},"subject":{"reference":"Patient/5852bca6-ff6d-44a5-b8d9-de3ec554d1a1"},"onsetDateTime":"2022-11-08T00:00:00+00:00"},"request":{"method":"POST","url":"Condition"}},{"fullUrl":"Observation/547fc1c2-e8e0-46f0-ad06-0973c0fedbb4","resource":{"resourceType":"Observation","id":"547fc1c2-e8e0-46f0-ad06-0973c0fedbb4","meta":{"profile":["http://hl7.org/fhir/us/core/StructureDefinition/us-core-observation-lab"]},"status":"final","category":[{"coding":[{"system":"http://terminology.hl7.org/CodeSystem/observation-category","code":"laboratory","display":"Laboratory"}]}],"code":{"coding":[{"system":"http://loinc.org","code":"49498-9"}]},"subject":{"reference":"Patient/5852bca6-ff6d-44a5-b8d9-de3ec554d1a1"},"effectiveDateTime":"2022-02-16T00:00:00+00:00","valueQuantity":{"value":10.2}},"request":{"method":"POST","url":"Observation"}},{"fullUrl":"Observation/705a237c-b090-4181-8ab8-0825981b49dc","resource":{"resourceType":"Observation","id":"705a237c-b090-4181-8ab8-0825981b49dc","meta":{"profile":["http://hl7.org/fhir/us/core/StructureDefinition/us-core-observation-lab"]},"status":"final","category":[{"coding":[{"system":"http://terminology.hl7.org/CodeSystem/observation-category","code":"laboratory","display":"Laboratory"}]}],"code":{"coding":[{"system":"http://loinc.org","code":"804-5"}]},"subject":{"reference":"Patient/5852bca6-ff6d-44a5-b8d9-de3ec554d1a1"},"effectiveDateTime":"2022-03-04T00:00:00+00:00","valueQuantity":{"value":7.9}},"request":{"method":"POST","url":"Observation"}},{"fullUrl":"Observation/76bdfbe0-fcc9-478d-800b-d31d2c5040ee","resource":{"resourceType":"Observation","id":"76bdfbe0-fcc9-478d-800b-d31d2c5040ee","meta":{"profile":["http://hl7.org/fhir/us/core/StructureDefinition/us-core-bmi"]},"status":"final","category":[{"coding":[{"system":"http://terminology.hl7.org/CodeSystem/observation-category","code":"vital-signs","display":"Vital Signs"}]}],"code":{"coding":[{"system":"http://loinc.org","code":"39156-5"}]},"subject":{"reference":"Patient/5852bca6-ff6d-44a5-b8d9-de3ec554d1a1"},"effectiveDateTime":"2022-06-07T00:00:00+00:00","valueQuantity":{"value":22.92,"unit":"kg/m2","system":"http://unitsofmeasure.org","code":"kg/m2"}},"request":{"method":"POST","url":"Observation"}},{"fullUrl":"Observation/3977eafc-1701-440c-814d-0a03dd3f18fc","resource":{"resourceType":"Observation","id":"3977eafc-1701-440c-814d-0a03dd3f18fc","meta":{"profile":["http://hl7.org/fhir/us/core/StructureDefinition/us-core-bmi"]},"status":"final","category":[{"coding":[{"system":"http://terminology.hl7.org/CodeSystem/observation-category","code":"vital-signs","display":"Vital Signs"}]}],"code":{"coding":[{"system":"http://loinc.org","code":"39156-5"}]},"subject":{"reference":"Patient/5852bca6-ff6d-44a5-b8d9-de3ec554d1a1"},"effectiveDateTime":"2022-08-09T00:00:00+00:00","valueQuantity":{"value":18.67,"unit":"kg/m2","system":"http://unitsofmeasure.org","code":"kg/m2"}},"request":{"method":"POST","url":"Observation"}},{"fullUrl":"Observation/bb7e1778-d74e-4615-927f-cdf36bb99174","resource":{"resourceType":"Observation","id":"bb7e1778-d74e-4615-927f-cdf36bb99174","meta":{"profile":["http://hl7.org/fhir/us/core/StructureDefinition/us-core-head-circumference"]},"status":"final","category":[{"coding":[{"system":"http://terminology.hl7.org/CodeSystem/observation-category","code":"vital-signs","display":"Vital Signs"}]}],"code":{"coding":[{"system":"http://loinc.org","code":"9843-4"}]},"subject":{"reference":"Patient/5852bca6-ff6d-44a5-b8d9-de3ec554d1a1"},"effectiveDateTime":"2022-12-04T00:00:00+00:00","valueQuantity":{"value":5.5,"unit":"Inch","system":"http://unitsofmeasure.org","code":"[in_i]"}},"request":{"method":"POST","url":"Observation"}},{"fullUrl":"Observation/9983fa3a-2a68-4808-b0b7-cd25574936a9","resource":{"resourceType":"Observation","id":"9983fa3a-2a68-4808-b0b7-cd25574936a9","meta":{"profile":["http://hl7.org/fhir/us/core/StructureDefinition/us-core-body-height"]},"status":"final","category":[{"coding":[{"system":"http://terminology.hl7.org/CodeSystem/observation-category","code":"vital-signs","display":"Vital Signs"}]}],"code":{"coding":[{"system":"http://loinc.org","code":"8302-2"}]},"subject":{"reference":"Patient/5852bca6-ff6d-44a5-b8d9-de3ec554d1a1"},"effectiveDateTime":"2022-06-03T00:00:00+00:00","valueQuantity":{"value":72.5,"unit":"Inch","system":"http://unitsofmeasure.org","code":"[in_i]"}},"request":{"method":"POST","url":"Observation"}},{"fullUrl":"Observation/4b62292f-3e49-4c88-a134-939e758b3a27","resource":{"resourceType":"Observation","id":"4b62292f-3e49-4c88-a134-939e758b3a27","meta":{"profile":["http://hl7.org/fhir/us/core/StructureDefinition/us-core-body-height"]},"status":"final","category":[{"coding":[{"system":"http://terminology.hl7.org/CodeSystem/observation-category","code":"vital-signs","display":"Vital Signs"}]}],"code":{"coding":[{"system":"http://loinc.org","code":"8302-2"}]},"subject":{"reference":"Patient/5852bca6-ff6d-44a5-b8d9-de3ec554d1a1"},"effectiveDateTime":"2022-11-07T00:00:00+00:00","valueQuantity":{"value":77.3,"unit":"Inch","system":"http://unitsofmeasure.org","code":"[in_i]"}},"request":{"method":"POST","url":"Observation"}},{"fullUrl":"Observation/4e708cb8-a7c4-4f11-b9ec-b2bd09c4742d","resource":{"resourceType":"Observation","id":"4e708cb8-a7c4-4f11-b9ec-b2bd09c4742d","meta":{"profile":["http://hl7.org/fhir/us/core/StructureDefinition/us-core-body-weight"]},"status":"final","category":[{"coding":[{"system":"http://terminology.hl7.org/CodeSystem/observation-category","code":"vital-signs","display":"Vital Signs"}]}],"code":{"coding":[{"system":"http://loinc.org","code":"29463-7"}]},"subject":{"reference":"Patient/5852bca6-ff6d-44a5-b8d9-de3ec554d1a1"},"effectiveDateTime":"2022-01-15T00:00:00+00:00","valueQuantity":{"value":64.76,"unit":"kilogram","system":"http://unitsofmeasure.org","code":"kg"}},"request":{"method":"POST","url":"Observation"}},{"fullUrl":"Observation/dc45d54f-a104-430c-b355-c8fefb68f3f7","resource":{"resourceType":"Observation","id":"dc45d54f-a104-430c-b355-c8fefb68f3f7","meta":{"profile":["http://hl7.org/fhir/us/core/StructureDefinition/us-core-body-temperature"]},"status":"final","category":[{"coding":[{"system":"http://terminology.hl7.org/CodeSystem/observation-category","code":"vital-signs","display":"Vital Signs"}]}],"code":{"coding":[{"system":"http://loinc.org","code":"8310-5"}]},"subject":{"reference":"Patient/5852bca6-ff6d-44a5-b8d9-de3ec554d1a1"},"effectiveDateTime":"2022-03-06T00:00:00+00:00","valueQuantity":{"value":145.94,"unit":"Degrees Fahrenheit","system":"http://unitsofmeasure.org","code":"[degF]"}},"request":{"method":"POST","url":"Observation"}},{"fullUrl":"Observation/6295dd3b-2b5f-430a-8efd-8a86489f8b43","resource":{"resourceType":"Observation","id":"6295dd3b-2b5f-430a-8efd-8a86489f8b43","meta":{"profile":["http://hl7.org/fhir/us/core/StructureDefinition/us-core-heart-rate"]},"status":"final","category":[{"coding":[{"system":"http://terminology.hl7.org/CodeSystem/observation-category","code":"vital-signs","display":"Vital Signs"}]}],"code":{"coding":[{"system":"http://loinc.org","code":"8867-4"}]},"subject":{"reference":"Patient/5852bca6-ff6d-44a5-b8d9-de3ec554d1a1"},"effectiveDateTime":"2022-03-15T00:00:00+00:00","valueQuantity":{"value":98.7,"unit":"Per Minute","system":"http://unitsofmeasure.org","code":"/min"}},"request":{"method":"POST","url":"Observation"}},{"fullUrl":"Observation/cc423903-4196-4e43-ac38-a7b30e89ef11","resource":{"resourceType":"Observation","id":"cc423903-4196-4e43-ac38-a7b30e89ef11","meta":{"profile":["http://hl7.org/fhir/us/core/StructureDefinition/us-core-heart-rate"]},"status":"final","category":[{"coding":[{"system":"http://terminology.hl7.org/CodeSystem/observation-category","code":"vital-signs","display":"Vital Signs"}]}],"code":{"coding":[{"system":"http://loinc.org","code":"8867-4"}]},"subject":{"reference":"Patient/5852bca6-ff6d-44a5-b8d9-de3ec554d1a1"},"effectiveDateTime":"2022-01-19T00:00:00+00:00","valueQuantity":{"value":100.3,"unit":"Per Minute","system":"http://unitsofmeasure.org","code":"/min"}},"request":{"method":"POST","url":"Observation"}}]}