{"resourceType":"Bundle","id":"5e284f8a-7ee0-45d8-a8e0-10017b94aafa","type":"collection","entry":[{"fullUrl":"Patient/02fa31cb-6fc1-489e-8298-0cd66b9e73ba","resource":{"resourceType":"Patient","id":"02fa31cb-6fc1-489e-8298-0cd66b9e73ba","meta":{"profile":["http://hl7.org/fhir/us/core/StructureDefinition/us-core-patient"]},"extension":[{"extension":[{"url":"ombCategory","valueCoding":{"system":"urn:oid:2.16.840.1.113883.6.238","code":"1002-5","display":"American Indian or Alaska Native"}},{"url":"text","valueString":"American Indian or Alaska Native"}],"url":"http://hl7.org/fhir/us/core/StructureDefinition/us-core-race"},{"extension":[{"url":"ombCategory","valueCoding":{"system":"urn:oid:2.16.840.1.113883.6.238","code":"2186-5","display":"Non Hispanic or Latino"}},{"url":"text","valueString":"Non Hispanic or Latino"}],"url":"http://hl7.org/fhir/us/core/StructureDefinition/us-core-ethnicity"}],"identifier":[{"type":{"coding":[{"system":"http://terminology.hl7.org/CodeSystem/v2-0203","code":"MR"}]},"system":"urn:fhirgen:mrn","value":"830-75-4490"}],"name":[{"use":"official","family":"Summers","given":["David"]},{"use":"maiden","family":"Clark"}],"telecom":[{"system":"phone","value":"496-511-1366x6938","use":"home"},{"system":"email","value":"jeffreyclark@hotmail.com","use":"mobile"}],"gender":"male","birthDate":"1969-07-18","address":[{"use":"home","line":["613 Carmen Roads"],"city":"Jeremyburgh","state":"MA","postalCode":"07474"},{"use":"old","line":["6241 Cannon Road Suite 489"],"city":"Brittanymouth","state":"GA","postalCode":"67002"}]}},{"fullUrl":"Observation/d080c704-c78a-4498-a8bc-aa5fedb7167c","resource":{"resourceType":"Observation","id":"d080c704-c78a-4498-a8bc-aa5fedb7167c","meta":{"profile":["http://hl7.org/fhir/us/core/StructureDefinition/us-core-observation-lab"]},"status":"final","category":[{"coding":[{"system":"http://terminology.hl7.org/CodeSystem/observation-category","code":"laboratory","display":"Laboratory"}]}],"code":{"coding":[{"system":"http://loinc.org","code":"47476-7"}]},"subject":{"reference":"Patient/02fa31cb-6fc1-489e-8298-0cd66b9e73ba"},"effectiveDateTime":"2022-08-03T00:00:00+00:00","valueRatio":{"numerator":{"value":1},"denominator":{"value":32}}}},{"fullUrl":"Observation/ed11e9ba-c0d7-49f1-9d92-2a6c7b98d1ef","resource":{"resourceType":"Observation","id":"ed11e9ba-c0d7-49f1-9d92-2a6c7b98d1ef","meta":{"profile":["http://hl7.org/fhir/us/core/StructureDefinition/us-core-observation-lab"]},"status":"final","category":[{"coding":[{"system":"http://terminology.hl7.org/CodeSystem/observation-category","code":"laboratory","display":"Laboratory"}]}],"code":{"coding":[{"system":"http://loinc.org","code":"5394-2"}]},"subject":{"reference":"Patient/02fa31cb-6fc1-489e-8298-0cd66b9e73ba"},"effectiveDateTime":"2022-01-12T00:00:00+00:00","valueRatio":{"numerator":{"value":1},"denominator":{"value":64}}}},{"fullUrl":"Condition/bac476d7-524f-42de-8531-007c838db90d","resource":{"resourceType":"Condition","id":"bac476d7-524f-42de-8531-007c838db90d","meta":{"profile":["http://hl7.org/fhir/us/core/StructureDefinition/us-core-condition"]},"clinicalStatus":{"coding":[{"system":"http://terminology.hl7.org/CodeSystem/condition-clinical","code":"active","display":"Active"}]},"category":[{"coding":[{"system":"http://terminology.hl7.org/CodeSystem/condition-category","code":"problem-list-item"}]}],"code":{"coding":[{"system":"http://snomed.info/sct","code":"736686006"}]},"subject":{"reference":"Patient/02fa31cb-6fc1-489e-8298-0cd66b9e73ba"},"onsetDateTime":"2022-09-01T00:00:00+00:00"}},{"fullUrl":"Condition/4951f732-a742-48dd-a80b-d1add7c7c7af","resource":{"resourceType":"Condition","id":"4951f732-a742-48dd-a80b-d1add7c7c7af","meta":{"profile":["http://hl7.org/fhir/us/core/StructureDefinition/us-core-condition"]},"clinicalStatus":{"coding":[{"system":"http://terminology.hl7.org/CodeSystem/condition-clinical","code":"active","display":"Active"}]},"category":[{"coding":[{"system":"http://terminology.hl7.org/CodeSystem/condition-category","code":"problem-list-item"}]}],"code":{"coding":[{"system":"http://snomed.info/sct","code":"44882003"}]},"subject":{"reference":"Patient/02fa31cb-6fc1-489e-8298-0cd66b9e73ba"},"onsetDateTime":"2022-07-15T00:00:00+00:00"}},{"fullUrl":"Condition/2e1763d3-9e32-4c46-8eba-1d45b808b65f","resource":{"resourceType":"Condition","id":"2e1763d3-9e32-4c46-8eba-1d45b808b65f","meta":{"profile":["http://hl7.org/fhir/us/core/StructureDefinition/us-core-condition"]},"clinicalStatus":{"coding":[{"system":"http://terminology.hl7.org/CodeSystem/condition-clinical","code":"active","display":"Active"}]},"category":[{"coding":[{"system":"http://terminology.hl7.org/CodeSystem/condition-category","code":"problem-list-item"}]}],"code":{"coding":[{"system":"http://snomed.info/sct","code":"418290006"}]},"subject":{"reference":"Patient/02fa31cb-6fc1-489e-8298-0cd66b9e73ba"},"onsetDateTime":"2022-10-17T00:00:00+00:00"}},{"fullUrl":"Condition/6d5d999e-b8bc-47c6-b93a-e17aee42404a","resource":{"resourceType":"Condition","id":"6d5d999e-b8bc-47c6-b93a-e17aee42404a","meta":{"profile":["http://hl7.org/fhir/us/core/StructureDefinition/us-core-condition"]},"clinicalStatus":{"coding":[{"system":"http://terminology.hl7.org/CodeSystem/condition-clinical","code":"active","display":"Active"}]},"category":[{"coding":[{"system":"http://terminology.hl7.org/CodeSystem/condition-category","code":"problem-list-item"}]}],"code":{"coding":[{"system":"http://snomed.info/sct","code":"418290006"}]},"subject":{"reference":"Patient/02fa31cb-6fc1-489e-8298-0cd66b9e73ba"},"onsetDateTime":"2022-07-30T00:00:00+00:00"}},{"fullUrl":"Condition/fae3fd39-6a7f-4dd6-935d-e791a47073c6","resource":{"resourceType":"Condition","id":"fae3fd39-6a7f-4dd6-935d-e791a47073c6","meta":{"profile":["http://hl7.org/fhir/us/core/StructureDefinition/us-core-condition"]},"clinicalStatus":{"coding":[{"system":"http://terminology.hl7.org/CodeSystem/condition-clinical","code":"active","display":"Active"}]},"category":[{"coding":[{"system":"http://terminology.hl7.org/CodeSystem/condition-category","code":"problem-list-item"}]}],"code":{"coding":[{"system":"http://snomed.info/sct","code":"709977002"}]},"subject":{"reference":"Patient/02fa31cb-6fc1-489e-8298-0cd66b9e73ba"},"onsetDateTime":"2022-10-25T00:00:00+00:00"}},{"fullUrl":"Condition/0bbc7224-e9da-4774-91de-bd4f93d4e6b8","resource":{"resourceType":"Condition","id":"0bbc7224-e9da-4774-91de-bd4f93d4e6b8","meta":{"profile":["http://hl7.org/fhir/us/core/StructureDefinition/us-core-condition"]},"clinicalStatus":{"coding":[{"system":"http://terminology.hl7.org/CodeSystem/condition-clinical","code":"active","display":"Active"}]},"category":[{"coding":[{"system":"http://terminology.hl7.org/CodeSystem/condition-category","code":"problem-list-item"}]}],"code":{"coding":[{"system":"http://snomed.info/sct","code":"44882003"}]},"subject":{"reference":"Patient/02fa31cb-6fc1-489e-8298-0cd66b9e73ba"},"onsetDateTime":"2022-05-18T00:00:00+00:00"}},{"fullUrl":"Condition/1ba1932d-2cdf-4336-b87c-3a883eff88d9","resource":{"resourceType":"Condition","id":"1ba1932d-2cdf-4336-b87c-3a883eff88d9","meta":{"profile":["http://hl7.org/fhir/us/core/StructureDefinition/us-core-condition"]},"clinicalStatus":{"coding":[{"system":"http://terminology.hl7.org/CodeSystem/condition-clinical","code":"active","display":"Active"}]},"category":[{"coding":[{"system":"http://terminology.hl7.org/CodeSystem/condition-category","code":"problem-list-item"}]}],"code":{"coding":[{"system":"http://snomed.info/sct","code":"736686006"}]},"subject":{"reference":"Patient/02fa31cb-6fc1-489e-8298-0cd66b9e73ba"},"onsetDateTime":"2022-09-15T00:00:00+00:00"}},{"fullUrl":"Observation/f4c3372b-14e9-4367-8257-4033dfedb3f0","resource":{"resourceType":"Observation","id":"f4c3372b-14e9-4367-8257-4033dfedb3f0","meta":{"profile":["http://hl7.org/fhir/us/core/StructureDefinition/us-core-observation-lab"]},"status":"final","category":[{"coding":[{"system":"http://terminology.hl7.org/CodeSystem/observation-category","code":"laboratory","display":"Laboratory"}]}],"code":{"coding":[{"system":"http://loinc.org","code":"26464-8"}]},"subject":{"reference":"Patient/02fa31cb-6fc1-489e-8298-0cd66b9e73ba"},"effectiveDateTime":"2022-03-18T00:00:00+00:00","valueQuantity":{"value":7}}},{"fullUrl":"Observation/20e1436f-c6e0-454d-95cf-01648e02f95b","resource":{"resourceType":"Observation","id":"20e1436f-c6e0-454d-95cf-01648e02f95b","meta":{"profile":["http://hl7.org/fhir/us/core/StructureDefinition/us-core-observation-lab"]},"status":"final","category":[{"coding":[{"system":"http://terminology.hl7.org/CodeSystem/observation-category","code":"laboratory","display":"Laboratory"}]}],"code":{"coding":[{"system":"http://loinc.org","code":"49498-9"}]},"subject":{"reference":"Patient/02fa31cb-6fc1-489e-8298-0cd66b9e73ba"},"effectiveDateTime":"2022-02-17T00:00:00+00:00","valueQuantity":{"value":10.1}}},{"fullUrl":"Observation/063f85f4-8dbe-4c7d-8a26-ca16482ff005","resource":{"resourceType":"Observation","id":"063f85f4-8dbe-4c7d-8a26-ca16482ff005","meta":{"profile":["http://hl7.org/fhir/us/core/StructureDefinition/us-core-bmi"]},"status":"final","category":[{"coding":[{"system":"http://terminology.hl7.org/CodeSystem/observation-category","code":"vital-signs","display":"Vital Signs"}]}],"code":{"coding":[{"system":"http://loinc.org","code":"39156-5"}]},"subject":{"reference":"Patient/02fa31cb-6fc1-489e-8298-0cd66b9e73ba"},"effectiveDateTime":"2022-12-03T00:00:00+00:00","valueQuantity":{"value":13.5,"unit":"kg/m2","system":"http://unitsofmeasure.org","code":"kg/m2"}}},{"fullUrl":"Observation/77872482-41ae-4303-a486-9ec959c4d461","resource":{"resourceType":"Observation","id":"77872482-41ae-4303-a486-9ec959c4d461","meta":{"profile":["http://hl7.org/fhir/us/core/StructureDefinition/us-core-bmi"]},"status":"final","category":[{"coding":[{"system":"http://terminology.hl7.org/CodeSystem/observation-category","code":"vital-signs","display":"Vital Signs"}]}],"code":{"coding":[{"system":"http://loinc.org","code":"39156-5"}]},"subject":{"reference":"Patient/02fa31cb-6fc1-489e-8298-0cd66b9e73ba"},"effectiveDateTime":"2022-10-06T00:00:00+00:00","valueQuantity":{"value":27.48,"unit":"kg/m2","system":"http://unitsofmeasure.org","code":"kg/m2"}}},{"fullUrl":"Observation/5875ef58-94af-44b8-9199-49fd08e78fff","resource":{"resourceType":"Observation","id":"5875ef58-94af-44b8-9199-49fd08e78fff","meta":{"profile":["http://hl7.org/fhir/us/core/StructureDefinition/us-core-head-circumference"]},"status":"final","category":[{"coding":[{"system":"http://terminology.hl7.org/CodeSystem/observation-category","code":"vital-signs","display":"Vital Signs"}]}],"code":{"coding":[{"system":"http://loinc.org","code":"9843-4"}]},"subject":{"reference":"Patient/02fa31cb-6fc1-489e-8298-0cd66b9e73ba"},"effectiveDateTime":"2022-03-12T00:00:00+00:00","valueQuantity":{"value":8.1,"unit":"Inch","system":"http://unitsofmeasure.org","code":"[in_i]"}}},{"fullUrl":"Observation/be698716-74f4-4497-8933-04a2ff543a5e","resource":{"resourceType":"Observation","id":"be698716-74f4-4497-8933-04a2ff543a5e","meta":{"profile":["http://hl7.org/fhir/us/core/StructureDefinition/us-core-head-circumference"]},"status":"final","category":[{"coding":[{"system":"http://terminology.hl7.org/CodeSystem/observation-category","code":"vital-signs","display":"Vital Signs"}]}],"code":{"coding":[{"system":"http://loinc.org","code":"9843-4"}]},"subject":{"reference":"Patient/02fa31cb-6fc1-489e-8298-0cd66b9e73ba"},"effectiveDateTime":"2022-08-07T00:00:00+00:00","valueQuantity":{"value":9.9,"unit":"Inch","system":"http://unitsofmeasure.org","code":"[in_i]"}}},{"fullUrl":"Observation/25abcc89-90ae-41a8-b47c-d51fb55abf96","resource":{"resourceType":"Observation","id":"25abcc89-90ae-41a8-b47c-d51fb55abf96","meta":{"profile":["http://hl7.org/fhir/us/core/StructureDefinition/us-core-body-height"]},"status":"final","category":[{"coding":[{"system":"http://terminology.hl7.org/CodeSystem/observation-category","code":"vital-signs","display":"Vital Signs"}]}],"code":{"coding":[{"system":"http://loinc.org","code":"8302-2"}]},"subject":{"reference":"Patient/02fa31cb-6fc1-489e-8298-0cd66b9e73ba"},"effectiveDateTime":"2022-07-27T00:00:00+00:00","valueQuantity":{"value":79.4,"unit":"Inch","system":"http://unitsofmeasure.org","code":"[in_i]"}}},{"fullUrl":"Observation/b063f648-8e01-45a1-b51a-8811845eeec5","resource":{"resourceType":"Observation","id":"b063f648-8e01-45a1-b51a-8811845eeec5","meta":{"profile":["http://hl7.org/fhir/us/core/StructureDefinition/us-core-body-weight"]},"status":"final","category":[{"coding":[{"system":"http://terminology.hl7.org/CodeSystem/observation-category","code":"vital-signs","display":"Vital Signs"}]}],"code":{"coding":[{"system":"http://loinc.org","code":"29463-7"}]},"subject":{"reference":"Patient/02fa31cb-6fc1-489e-8298-0cd66b9e73ba"},"effectiveDateTime":"2022-11-04T00:00:00+00:00","valueQuantity":{"value":21.52,"unit":"kilogram","system":"http://unitsofmeasure.org","code":"kg"}}},{"fullUrl":"Observation/04ec3c0a-949e-4b74-aab4-008224515b90","resource":{"resourceType":"Observation","id":"04ec3c0a-949e-4b74-aab4-008224515b90","meta":{"profile":["http://hl7.org/fhir/us/core/StructureDefinition/us-core-body-temperature"]},"status":"final","category":[{"coding":[{"system":"http://terminology.hl7.org/CodeSystem/observation-category","code":"vital-signs","display":"Vital Signs"}]}],"code":{"coding":[{"system":"http://loinc.org","code":"8310-5"}]},"subject":{"reference":"Patient/02fa31cb-6fc1-489e-8298-0cd66b9e73ba"},"effectiveDateTime":"2022-06-22T00:00:00+00:00","valueQuantity":{"value":118.79,"unit":"Degrees Fahrenheit","system":"http://unitsofmeasure.org","code":"[degF]"}}},{"fullUrl":"Observation/50bc0e48-62e3-43b5-8a2f-9aa5c3adffe4","resource":{"resourceType":"Observation","id":"50bc0e48-62e3-43b5-8a2f-9aa5c3adffe4","meta":{"profile":["http://hl7.org/fhir/us/core/StructureDefinition/us-core-body-temperature"]},"status":"final","category":[{"coding":[{"system":"http://terminology.hl7.org/CodeSystem/observation-category","code":"vital-signs","display":"Vital Signs"}]}],"code":{"coding":[{"system":"http://loinc.org","code":"8310-5"}]},"subject":{"reference":"Patient/02fa31cb-6fc1-489e-8298-0cd66b9e73ba"},"effectiveDateTime":"2022-04-27T00:00:00+00:00","valueQuantity":{"value":55.46,"unit":"Degrees Fahrenheit","system":"http://unitsofmeasure.org","code":"[degF]"}}},{"fullUrl":"Observation/351d6590-e56f-4cfd-8214-5ab80f9aa714","resource":{"resourceType":"Observation","id":"351d6590-e56f-4cfd-8214-5ab80f9aa714","meta":{"profile":["http://hl7.org/fhir/us/core/StructureDefinition/us-core-heart-rate"]},"status":"final","category":[{"coding":[{"system":"http://terminology.hl7.org/CodeSystem/observation-category","code":"vital-signs","display":"Vital Signs"}]}],"code":{"coding":[{"system":"http://loinc.org","code":"8867-4"}]},"subject":{"reference":"Patient/02fa31cb-6fc1-489e-8298-0cd66b9e73ba"},"effectiveDateTime":"2022-01-25T00:00:00+00:00","valueQuantity":{"value":96,"unit":"Per Minute","system":"http://unitsofmeasure.org","code":"/min"}}},{"fullUrl":"Observation/ac689730-a094-4d03-b8e0-ac05e9e3e417","resource":{"resourceType":"Observation","id":"ac689730-a094-4d03-b8e0-ac05e9e3e417","meta":{"profile":["http://hl7.org/fhir/us/core/StructureDefinition/us-core-heart-rate"]},"status":"final","category":[{"coding":[{"system":"http://terminology.hl7.org/CodeSystem/observation-category","code":"vital-signs","display":"Vital Signs"}]}],"code":{"coding":[{"system":"http://loinc.org","code":"8867-4"}]},"subject":{"reference":"Patient/02fa31cb-6fc1-489e-8298-0cd66b9e73ba"},"effectiveDateTime":"2022-07-21T00:00:00+00:00","valueQuantity":{"value":95.4,"unit":"Per Minute","system":"http://unitsofmeasure.org","code":"/min"}}},{"fullUrl":"Patient/3d568127-c3d1-4fa3-bac1-26e4d4246aaa","resource":{"resourceType":"Patient","id":"3d568127-c3d1-4fa3-bac1-26e4d4246aaa","meta":{"profile":["http://hl7.org/fhir/us/core/StructureDefinition/us-core-patient"]},"extension":[{"extension":[{"url":"ombCategory","valueCoding":{"system":"urn:oid:2.16.840.1.113883.6.238","code":"2054-5","display":"Black or African American"}},{"url":"text","valueString":"Black or African American"}],"url":"http://hl7.org/fhir/us/core/StructureDefinition/us-core-race"},{"extension":[{"url":"ombCategory","valueCoding":{"system":"urn:oid:2.16.840.1.113883.6.238","code":"2186-5","display":"Non Hispanic or Latino"}},{"url":"text","valueString":"Non Hispanic or Latino"}],"url":"http://hl7.org/fhir/us/core/StructureDefinition/us-core-ethnicity"}],"identifier":[{"type":{"coding":[{"system":"http://terminology.hl7.org/CodeSystem/v2-0203","code":"MR"}]},"system":"urn:fhirgen:mrn","value":"153-68-7624"}],"name":[{"use":"official","family":"Brady","given":["Scott"]},{"use":"maiden","family":"Fox"}],"telecom":[{"system":"phone","value":"705.674.8767x3516","use":"home"},{"system":"email","value":"xschultz@yahoo.com","use":"mobile"}],"gender":"male","birthDate":"1969-12-20","address":[{"use":"home","line":["93145 Reyes Station"],"city":"Aaronstad","state":"HI","postalCode":"39340"},{"use":"old","line":["918 Andrew Rapids"],"city":"East Jeffrey","state":"IL","postalCode":"16924"}]}},{"fullUrl":"Observation/1e383a6f-20c3-45c4-9113-ab8330193fd0","resource":{"resourceType":"Observation","id":"1e383a6f-20c3-45c4-9113-ab8330193fd0","meta":{"profile":["http://hl7.org/fhir/us/core/StructureDefinition/us-core-observation-lab"]},"status":"final","category":[{"coding":[{"system":"http://terminology.hl7.org/CodeSystem/observation-category","code":"laboratory","display":"Laboratory"}]}],"code":{"coding":[{"system":"http://loinc.org","code":"50690-7"}]},"subject":{"reference":"Patient/3d568127-c3d1-4fa3-bac1-26e4d4246aaa"},"effectiveDateTime":"2022-08-14T00:00:00+00:00","valueRatio":{"numerator":{"value":1},"denominator":{"value":64}}}},{"fullUrl":"Observation/aed88bc9-ebde-4251-85e9-a20b9830cda3","resource":{"resourceType":"Observation","id":"aed88bc9-ebde-4251-85e9-a20b9830cda3","meta":{"profile":["http://hl7.org/fhir/us/core/StructureDefinition/us-core-observation-lab"]},"status":"final","category":[{"coding":[{"system":"http://terminology.hl7.org/CodeSystem/observation-category","code":"laboratory","display":"Laboratory"}]}],"code":{"coding":[{"system":"http://loinc.org","code":"50695-6"}]},"subject":{"reference":"Patient/3d568127-c3d1-4fa3-bac1-26e4d4246aaa"},"effectiveDateTime":"2022-11-02T00:00:00+00:00","valueRatio":{"numerator":{"value":1},"denominator":{"value":4}}}},{"fullUrl":"Observation/0303f0db-bab0-40cb-8946-581cf5e52adf","resource":{"resourceType":"Observation","id":"0303f0db-bab0-40cb-8946-581cf5e52adf","meta":{"profile":["http://hl7.org/fhir/us/core/StructureDefinition/us-core-observation-lab"]},"status":"final","category":[{"coding":[{"system":"http://terminology.hl7.org/CodeSystem/observation-category","code":"laboratory","display":"Laboratory"}]}],"code":{"coding":[{"system":"http://loinc.org","code":"87925-4"}]},"subject":{"reference":"Patient/3d568127-c3d1-4fa3-bac1-26e4d4246aaa"},"effectiveDateTime":"2022-07-17T00:00:00+00:00","valueRatio":{"numerator":{"value":1},"denominator":{"value":64}}}},{"fullUrl":"Condition/2346b19e-0b06-4b5e-91fa-5620f7bbd36f","resource":{"resourceType":"Condition","id":"2346b19e-0b06-4b5e-91fa-5620f7bbd36f","meta":{"profile":["http://hl7.org/fhir/us/core/StructureDefinition/us-core-condition"]},"clinicalStatus":{"coding":[{"system":"http://terminology.hl7.org/CodeSystem/condition-clinical","code":"active","display":"Active"}]},"category":[{"coding":[{"system":"http://terminology.hl7.org/CodeSystem/condition-category","code":"problem-list-item"}]}],"code":{"coding":[{"system":"http://snomed.info/sct","code":"44882003"}]},"subject":{"reference":"Patient/3d568127-c3d1-4fa3-bac1-26e4d4246aaa"},"onsetDateTime":"2022-01-10T00:00:00+00:00"}},{"fullUrl":"Condition/e2707c36-b161-49a1-9645-2959d643c71e","resource":{"resourceType":"Condition","id":"e2707c36-b161-49a1-9645-2959d643c71e","meta":{"profile":["http://hl7.org/fhir/us/core/StructureDefinition/us-core-condition"]},"clinicalStatus":{"coding":[{"system":"http://terminology.hl7.org/CodeSystem/condition-clinical","code":"active","display":"Active"}]},"category":[{"coding":[{"system":"http://terminology.hl7.org/CodeSystem/condition-category","code":"problem-list-item"}]}],"code":{"coding":[{"system":"http://snomed.info/sct","code":"736686006"}]},"subject":{"reference":"Patient/3d568127-c3d1-4fa3-bac1-26e4d4246aaa"},"onsetDateTime":"2022-05-21T00:00:00+00:00"}},{"fullUrl":"Condition/ffdfe9e6-8616-49c0-aef0-9c34ef9f4eff","resource":{"resourceType":"Condition","id":"ffdfe9e6-8616-49c0-aef0-9c34ef9f4eff","meta":{"profile":["http://hl7.org/fhir/us/core/StructureDefinition/us-core-condition"]},"clinicalStatus":{"coding":[{"system":"http://terminology.hl7.org/CodeSystem/condition-clinical","code":"active","display":"Active"}]},"category":[{"coding":[{"system":"http://terminology.hl7.org/CodeSystem/condition-category","code":"problem-list-item"}]}],"code":{"coding":[{"system":"http://snomed.info/sct","code":"44882003"}]},"subject":{"reference":"Patient/3d568127-c3d1-4fa3-bac1-26e4d4246aaa"},"onsetDateTime":"2022-09-01T00:00:00+00:00"}},{"fullUrl":"Condition/c33d0a13-24d8-4383-b4e4-7a05c3b322f1","resource":{"resourceType":"Condition","id":"c33d0a13-24d8-4383-b4e4-7a05c3b322f1","meta":{"profile":["http://hl7.org/fhir/us/core/StructureDefinition/us-core-condition"]},"clinicalStatus":{"coding":[{"system":"http://terminology.hl7.org/CodeSystem/condition-clinical","code":"active","display":"Active"}]},"category":[{"coding":[{"system":"http://terminology.hl7.org/CodeSystem/condition-category","code":"problem-list-item"}]}],"code":{"coding":[{"system":"http://snomed.info/sct","code":"418290006"}]},"subject":{"reference":"Patient/3d568127-c3d1-4fa3-bac1-26e4d4246aaa"},"onsetDateTime":"2022-07-15T00:00:00+00:00"}},{"fullUrl":"Condition/0b3c6aab-86f4-4dc1-93b8-153f539d58d4","resource":{"resourceType":"Condition","id":"0b3c6aab-86f4-4dc1-93b8-153f539d58d4","meta":{"profile":["http://hl7.org/fhir/us/core/StructureDefinition/us-core-condition"]},"clinicalStatus":{"coding":[{"system":"http://terminology.hl7.org/CodeSystem/condition-clinical","code":"active","display":"Active"}]},"category":[{"coding":[{"system":"http://terminology.hl7.org/CodeSystem/condition-category","code":"problem-list-item"}]}],"code":{"coding":[{"system":"http://snomed.info/sct","code":"709977002"}]},"subject":{"reference":"Patient/3d568127-c3d1-4fa3-bac1-26e4d4246aaa"},"onsetDateTime":"2022-04-06T00:00:00+00:00"}},{"fullUrl":"Observation/0b26d673-5dce-4d75-a7e6-f058799c998a","resource":{"resourceType":"Observation","id":"0b26d673-5dce-4d75-a7e6-f058799c998a","meta":{"profile":["http://hl7.org/fhir/us/core/StructureDefinition/us-core-observation-lab"]},"status":"final","category":[{"coding":[{"system":"http://terminology.hl7.org/CodeSystem/observation-category","code":"laboratory","display":"Laboratory"}]}],"code":{"coding":[{"system":"http://loinc.org","code":"804-5"}]},"subject":{"reference":"Patient/3d568127-c3d1-4fa3-bac1-26e4d4246aaa"},"effectiveDateTime":"2022-10-30T00:00:00+00:00","valueQuantity":{"value":9.1}}},{"fullUrl":"Observation/c20e6ade-69c5-4f8e-b462-47996c4d16ec","resource":{"resourceType":"Observation","id":"c20e6ade-69c5-4f8e-b462-47996c4d16ec","meta":{"profile":["http://hl7.org/fhir/us/core/StructureDefinition/us-core-observation-lab"]},"status":"final","category":[{"coding":[{"system":"http://terminology.hl7.org/CodeSystem/observation-category","code":"laboratory","display":"Laboratory"}]}],"code":{"coding":[{"system":"http://loinc.org","code":"6690-2"}]},"subject":{"reference":"Patient/3d568127-c3d1-4fa3-bac1-26e4d4246aaa"},"effectiveDateTime":"2022-03-15T00:00:00+00:00","valueQuantity":{"value":10.9}}},{"fullUrl":"Observation/7e979b79-d64a-4de5-9b44-e44e20275df5","resource":{"resourceType":"Observation","id":"7e979b79-d64a-4de5-9b44-e44e20275df5","meta":{"profile":["http://hl7.org/fhir/us/core/StructureDefinition/us-core-bmi"]},"status":"final","category":[{"coding":[{"system":"http://terminology.hl7.org/CodeSystem/observation-category","code":"vital-signs","display":"Vital Signs"}]}],"code":{"coding":[{"system":"http://loinc.org","code":"39156-5"}]},"subject":{"reference":"Patient/3d568127-c3d1-4fa3-bac1-26e4d4246aaa"},"effectiveDateTime":"2022-06-30T00:00:00+00:00","valueQuantity":{"value":28.71,"unit":"kg/m2","system":"http://unitsofmeasure.org","code":"kg/m2"}}},{"fullUrl":"Observation/acd09c36-7a38-4424-af67-cbf84c0b35be","resource":{"resourceType":"Observation","id":"acd09c36-7a38-4424-af67-cbf84c0b35be","meta":{"profile":["http://hl7.org/fhir/us/core/StructureDefinition/us-core-head-circumference"]},"status":"final","category":[{"coding":[{"system":"http://terminology.hl7.org/CodeSystem/observation-category","code":"vital-signs","display":"Vital Signs"}]}],"code":{"coding":[{"system":"http://loinc.org","code":"9843-4"}]},"subject":{"reference":"Patient/3d568127-c3d1-4fa3-bac1-26e4d4246aaa"},"effectiveDateTime":"2022-03-13T00:00:00+00:00","valueQuantity":{"value":1.6,"unit":"Inch","system":"http://unitsofmeasure.org","code":"[in_i]"}}},{"fullUrl":"Observation/553f30f0-1703-4b73-8bcb-4a8559659775","resource":{"resourceType":"Observation","id":"553f30f0-1703-4b73-8bcb-4a8559659775","meta":{"profile":["http://hl7.org/fhir/us/core/StructureDefinition/us-core-body-height"]},"status":"final","category":[{"coding":[{"system":"http://terminology.hl7.org/CodeSystem/observation-category","code":"vital-signs","display":"Vital Signs"}]}],"code":{"coding":[{"system":"http://loinc.org","code":"8302-2"}]},"subject":{"reference":"Patient/3d568127-c3d1-4fa3-bac1-26e4d4246aaa"},"effectiveDateTime":"2022-09-08T00:00:00+00:00","valueQuantity":{"value":76.1,"unit":"Inch","system":"http://unitsofmeasure.org","code":"[in_i]"}}},{"fullUrl":"Observation/d75313b5-1412-4b36-b8e8-0dec835882be","resource":{"resourceType":"Observation","id":"d75313b5-1412-4b36-b8e8-0dec835882be","meta":{"profile":["http://hl7.org/fhir/us/core/StructureDefinition/us-core-body-weight"]},"status":"final","category":[{"coding":[{"system":"http://terminology.hl7.org/CodeSystem/observation-category","code":"vital-signs","display":"Vital Signs"}]}],"code":{"coding":[{"system":"http://loinc.org","code":"29463-7"}]},"subject":{"reference":"Patient/3d568127-c3d1-4fa3-bac1-26e4d4246aaa"},"effectiveDateTime":"2022-07-08T00:00:00+00:00","valueQuantity":{"value":36.83,"unit":"kilogram","system":"http://unitsofmeasure.org","code":"kg"}}},{"fullUrl":"Observation/d7d8d4f9-07d1-4db0-a643-03653fb2964e","resource":{"resourceType":"Observation","id":"d7d8d4f9-07d1-4db0-a643-03653fb2964e","meta":{"profile":["http://hl7.org/fhir/us/core/StructureDefinition/us-core-body-temperature"]},"status":"final","category":[{"coding":[{"system":"http://terminology.hl7.org/CodeSystem/observation-category","code":"vital-signs","display":"Vital Signs"}]}],"code":{"coding":[{"system":"http://loinc.org","code":"8310-5"}]},"subject":{"reference":"Patient/3d568127-c3d1-4fa3-bac1-26e4d4246aaa"},"effectiveDateTime":"2022-08-02T00:00:00+00:00","valueQuantity":{"value":145.03,"unit":"Degrees Fahrenheit","system":"http://unitsofmeasure.org","code":"[degF]"}}},{"fullUrl":"Observation/f941c987-29eb-4c3c-a1d7-0450ae3d457f","resource":{"resourceType":"Observation","id":"f941c987-29eb-4c3c-a1d7-0450ae3d457f","meta":{"profile":["http://hl7.org/fhir/us/core/StructureDefinition/us-core-body-temperature"]},"status":"final","category":[{"coding":[{"system":"http://terminology.hl7.org/CodeSystem/observation-category","code":"vital-signs","display":"Vital Signs"}]}],"code":{"coding":[{"system":"http://loinc.org","code":"8310-5"}]},"subject":{"reference":"Patient/3d568127-c3d1-4fa3-bac1-26e4d4246aaa"},"effectiveDateTime":"2022-05-30T00:00:00+00:00","valueQuantity":{"value":32.26,"unit":"Degrees Fahrenheit","system":"http://unitsofmeasure.org","code":"[degF]"}}},{"fullUrl":"Observation/c7619c06-5e35-4330-81ad-01734de7ea4e","resource":{"resourceType":"Observation","id":"c7619c06-5e35-4330-81ad-01734de7ea4e","meta":{"profile":["http://hl7.org/fhir/us/core/StructureDefinition/us-core-heart-rate"]},"status":"final","category":[{"coding":[{"system":"http://terminology.hl7.org/CodeSystem/observation-category","code":"vital-signs","display":"Vital Signs"}]}],"code":{"coding":[{"system":"http://loinc.org","code":"8867-4"}]},"subject":{"reference":"Patient/3d568127-c3d1-4fa3-bac1-26e4d4246aaa"},"effectiveDateTime":"2022-11-22T00:00:00+00:00","valueQuantity":{"value":95.2,"unit":"Per Minute","system":"http://unitsofmeasure.org","code":"/min"}}},{"fullUrl":"Observation/999117a3-80b4-4e15-b8d1-ce185398b1a0","resource":{"resourceType":"Observation","id":"999117a3-80b4-4e15-b8d1-ce185398b1a0","meta":{"profile":["http://hl7.org/fhir/us/core/StructureDefinition/us-core-heart-rate"]},"status":"final","category":[{"coding":[{"system":"http://terminology.hl7.org/CodeSystem/observation-category","code":"vital-signs","display":"Vital Signs"}]}],"code":{"coding":[{"system":"http://loinc.org","code":"8867-4"}]},"subject":{"reference":"Patient/3d568127-c3d1-4fa3-bac1-26e4d4246aaa"},"effectiveDateTime":"2022-11-12T00:00:00+00:00","valueQuantity":{"value":99.2,"unit":"Per Minute","system":"http://unitsofmeasure.org","code":"/min"}}},{"fullUrl":"Patient/2712986c-3eea-495a-b412-092425c81148","resource":{"resourceType":"Patient","id":"2712986c-3eea-495a-b412-092425c81148","meta":{"profile":["http://hl7.org/fhir/us/core/StructureDefinition/us-core-patient"]},"extension":[{"extension":[{"url":"ombCategory","valueCoding":{"system":"urn:oid:2.16.840.1.113883.6.238","code":"2054-5","display":"Black or African American"}},{"url":"text","valueString":"Black or African American"}],"url":"http://hl7.org/fhir/us/core/StructureDefinition/us-core-race"},{"extension":[{"url":"ombCategory","valueCoding":{"system":"urn:oid:2.16.840.1.113883.6.238","code":"2135-2","display":"Hispanic or Latino"}},{"url":"text","valueString":"Hispanic or Latino"}],"url":"http://hl7.org/fhir/us/core/StructureDefinition/us-core-ethnicity"}],"identifier":[{"type":{"coding":[{"system":"http://terminology.hl7.org/CodeSystem/v2-0203","code":"MR"}]},"system":"urn:fhirgen:mrn","value":"365-55-0882"}],"name":[{"use":"official","family":"Frazier","given":["Joan"]},{"use":"maiden","family":"Davis"}],"telecom":[{"system":"phone","value":"+1-482-704-8889x044","use":"home"},{"system":"email","value":"michelehall@gmail.com","use":"home"}],"gender":"female","birthDate":"1977-12-15","address":[{"use":"home","line":["612 Frank Landing"],"city":"Port Danielle","state":"ND","postalCode":"51679"},{"use":"old","line":["008 Lowe Spring"],"city":"Victoriaberg","state":"CA","postalCode":"77479"}]}},{"fullUrl":"Observation/cb37dfa8-a21c-46e8-bf32-743fbfdcde3b","resource":{"resourceType":"Observation","id":"cb37dfa8-a21c-46e8-bf32-743fbfdcde3b","meta":{"profile":["http://hl7.org/fhir/us/core/StructureDefinition/us-core-observation-lab"]},"status":"final","category":[{"coding":[{"system":"http://terminology.hl7.org/CodeSystem/observation-category","code":"laboratory","display":"Laboratory"}]}],"code":{"coding":[{"system":"http://loinc.org","code":"46203-6"}]},"subject":{"reference":"Patient/2712986c-3eea-495a-b412-092425c81148"},"effectiveDateTime":"2022-07-18T00:00:00+00:00","valueRatio":{"numerator":{"value":1},"denominator":{"value":64}}}},{"fullUrl":"Observation/55cb1030-a83f-4f9e-a6fb-4967de3d1b90","resource":{"resourceType":"Observation","id":"55cb1030-a83f-4f9e-a6fb-4967de3d1b90","meta":{"profile":["http://hl7.org/fhir/us/core/StructureDefinition/us-core-observation-lab"]},"status":"final","category":[{"coding":[{"system":"http://terminology.hl7.org/CodeSystem/observation-category","code":"laboratory","display":"Laboratory"}]}],"code":{"coding":[{"system":"http://loinc.org","code":"87925-4"}]},"subject":{"reference":"Patient/2712986c-3eea-495a-b412-092425c81148"},"effectiveDateTime":"2022-04-20T00:00:00+00:00","valueRatio":{"numerator":{"value":1},"denominator":{"value":64}}}},{"fullUrl":"Condition/5fc84118-4340-4d0f-beb1-5f596f142ec3","resource":{"resourceType":"Condition","id":"5fc84118-4340-4d0f-beb1-5f596f142ec3","meta":{"profile":["http://hl7.org/fhir/us/core/StructureDefinition/us-core-condition"]},"clinicalStatus":{"coding":[{"system":"http://terminology.hl7.org/CodeSystem/condition-clinical","code":"active","display":"Active"}]},"category":[{"coding":[{"system":"http://terminology.hl7.org/CodeSystem/condition-category","code":"problem-list-item"}]}],"code":{"coding":[{"system":"http://snomed.info/sct","code":"44882003"}]},"subject":{"reference":"Patient/2712986c-3eea-495a-b412-092425c81148"},"onsetDateTime":"2022-12-22T00:00:00+00:00"}},{"fullUrl":"Condition/998acc36-de93-4c15-a336-a540c335d443","resource":{"resourceType":"Condition","id":"998acc36-de93-4c15-a336-a540c335d443","meta":{"profile":["http://hl7.org/fhir/us/core/StructureDefinition/us-core-condition"]},"clinicalStatus":{"coding":[{"system":"http://terminology.hl7.org/CodeSystem/condition-clinical","code":"active","display":"Active"}]},"category":[{"coding":[{"system":"http://terminology.hl7.org/CodeSystem/condition-category","code":"problem-list-item"}]}],"code":{"coding":[{"system":"http://snomed.info/sct","code":"91554004"}]},"subject":{"reference":"Patient/2712986c-3eea-495a-b412-092425c81148"},"onsetDateTime":"2022-01-09T00:00:00+00:00"}},{"fullUrl":"Condition/a833d9b7-453b-4855-afc7-fafe69951f8f","resource":{"resourceType":"Condition","id":"a833d9b7-453b-4855-afc7-fafe69951f8f","meta":{"profile":["http://hl7.org/fhir/us/core/StructureDefinition/us-core-condition"]},"clinicalStatus":{"coding":[{"system":"http://terminology.hl7.org/CodeSystem/condition-clinical","code":"active","display":"Active"}]},"category":[{"coding":[{"system":"http://terminology.hl7.org/CodeSystem/condition-category","code":"problem-list-item"}]}],"code":{"coding":[{"system":"http://snomed.info/sct","code":"709977002"}]},"subject":{"reference":"Patient/2712986c-3eea-495a-b412-092425c81148"},"onsetDateTime":"2022-09-02T00:00:00+00:00"}},{"fullUrl":"Observation/e2c831f3-0944-460f-83e9-b3da8576b60d","resource":{"resourceType":"Observation","id":"e2c831f3-0944-460f-83e9-b3da8576b60d","meta":{"profile":["http://hl7.org/fhir/us/core/StructureDefinition/us-core-observation-lab"]},"status":"final","category":[{"coding":[{"system":"http://terminology.hl7.org/CodeSystem/observation-category","code":"laboratory","display":"Laboratory"}]}],"code":{"coding":[{"system":"http://loinc.org","code":"26464-8"}]},"subject":{"reference":"Patient/2712986c-3eea-495a-b412-092425c81148"},"effectiveDateTime":"2022-09-18T00:00:00+00:00","valueQuantity":{"value":4}}},{"fullUrl":"Observation/5efa8bc7-71c0-4144-8e3e-477a5565653d","resource":{"resourceType":"Observation","id":"5efa8bc7-71c0-4144-8e3e-477a5565653d","meta":{"profile":["http://hl7.org/fhir/us/core/StructureDefinition/us-core-observation-lab"]},"status":"final","category":[{"coding":[{"system":"http://terminology.hl7.org/CodeSystem/observation-category","code":"laboratory","display":"Laboratory"}]}],"code":{"coding":[{"system":"http://loinc.org","code":"6690-2"}]},"subject":{"reference":"Patient/2712986c-3eea-495a-b412-092425c81148"},"effectiveDateTime":"2022-05-24T00:00:00+00:00","valueQuantity":{"value":8.4}}},{"fullUrl":"Observation/62b6b4e2-1e93-430a-9fd3-6c02ba38967a","resource":{"resourceType":"Observation","id":"62b6b4e2-1e93-430a-9fd3-6c02ba38967a","meta":{"profile":["http://hl7.org/fhir/us/core/StructureDefinition/us-core-bmi"]},"status":"final","category":[{"coding":[{"system":"http://terminology.hl7.org/CodeSystem/observation-category","code":"vital-signs","display":"Vital Signs"}]}],"code":{"coding":[{"system":"http://loinc.org","code":"39156-5"}]},"subject":{"reference":"Patient/2712986c-3eea-495a-b412-092425c81148"},"effectiveDateTime":"2022-11-15T00:00:00+00:00","valueQuantity":{"value":18.77,"unit":"kg/m2","system":"http://unitsofmeasure.org","code":"kg/m2"}}},{"fullUrl":"Observation/5472e0af-75a9-48ca-b663-e2188e95f457","resource":{"resourceType":"Observation","id":"5472e0af-75a9-48ca-b663-e2188e95f457","meta":{"profile":["http://hl7.org/fhir/us/core/StructureDefinition/us-core-head-circumference"]},"status":"final","category":[{"coding":[{"system":"http://terminology.hl7.org/CodeSystem/observation-category","code":"vital-signs","display":"Vital Signs"}]}],"code":{"coding":[{"system":"http://loinc.org","code":"9843-4"}]},"subject":{"reference":"Patient/2712986c-3eea-495a-b412-092425c81148"},"effectiveDateTime":"2022-05-22T00:00:00+00:00","valueQuantity":{"value":7.4,"unit":"Inch","system":"http://unitsofmeasure.org","code":"[in_i]"}}},{"fullUrl":"Observation/26e73546-66b1-4542-a4e6-9d04da7fb2dc","resource":{"resourceType":"Observation","id":"26e73546-66b1-4542-a4e6-9d04da7fb2dc","meta":{"profile":["http://hl7.org/fhir/us/core/StructureDefinition/us-core-body-height"]},"status":"final","category":[{"coding":[{"system":"http://terminology.hl7.org/CodeSystem/observation-category","code":"vital-signs","display":"Vital Signs"}]}],"code":{"coding":[{"system":"http://loinc.org","code":"8302-2"}]},"subject":{"reference":"Patient/2712986c-3eea-495a-b412-092425c81148"},"effectiveDateTime":"2022-06-28T00:00:00+00:00","valueQuantity":{"value":73.9,"unit":"Inch","system":"http://unitsofmeasure.org","code":"[in_i]"}}},{"fullUrl":"Observation/18cf6bb8-4807-4b56-9065-143877370972","resource":{"resourceType":"Observation","id":"18cf6bb8-4807-4b56-9065-143877370972","meta":{"profile":["http://hl7.org/fhir/us/core/StructureDefinition/us-core-body-height"]},"status":"final","category":[{"coding":[{"system":"http://terminology.hl7.org/CodeSystem/observation-category","code":"vital-signs","display":"Vital Signs"}]}],"code":{"coding":[{"system":"http://loinc.org","code":"8302-2"}]},"subject":{"reference":"Patient/2712986c-3eea-495a-b412-092425c81148"},"effectiveDateTime":"2022-03-24T00:00:00+00:00","valueQuantity":{"value":68,"unit":"Inch","system":"http://unitsofmeasure.org","code":"[in_i]"}}},{"fullUrl":"Observation/bfb517e6-e8e1-490e-a565-d59b0ce62ed0","resource":{"resourceType":"Observation","id":"bfb517e6-e8e1-490e-a565-d59b0ce62ed0","meta":{"profile":["http://hl7.org/fhir/us/core/StructureDefinition/us-core-body-weight"]},"status":"final","category":[{"coding":[{"system":"http://terminology.hl7.org/CodeSystem/observation-category","code":"vital-signs","display":"Vital Signs"}]}],"code":{"coding":[{"system":"http://loinc.org","code":"29463-7"}]},"subject":{"reference":"Patient/2712986c-3eea-495a-b412-092425c81148"},"effectiveDateTime":"2022-03-06T00:00:00+00:00","valueQuantity":{"value":76.78,"unit":"kilogram","system":"http://unitsofmeasure.org","code":"kg"}}},{"fullUrl":"Observation/39d29534-d88a-4f13-901d-25fe3f1ee8a4","resource":{"resourceType":"Observation","id":"39d29534-d88a-4f13-901d-25fe3f1ee8a4","meta":{"profile":["http://hl7.org/fhir/us/core/StructureDefinition/us-core-body-temperature"]},"status":"final","category":[{"coding":[{"system":"http://terminology.hl7.org/CodeSystem/observation-category","code":"vital-signs","display":"Vital Signs"}]}],"code":{"coding":[{"system":"http://loinc.org","code":"8310-5"}]},"subject":{"reference":"Patient/2712986c-3eea-495a-b412-092425c81148"},"effectiveDateTime":"2022-07-10T00:00:00+00:00","valueQuantity":{"value":111.81,"unit":"Degrees Fahrenheit","system":"http://unitsofmeasure.org","code":"[degF]"}}},{"fullUrl":"Observation/b142c926-1313-4920-95d8-212d02721465","resource":{"resourceType":"Observation","id":"b142c926-1313-4920-95d8-212d02721465","meta":{"profile":["http://hl7.org/fhir/us/core/StructureDefinition/us-core-heart-rate"]},"status":"final","category":[{"coding":[{"system":"http://terminology.hl7.org/CodeSystem/observation-category","code":"vital-signs","display":"Vital Signs"}]}],"code":{"coding":[{"system":"http://loinc.org","code":"8867-4"}]},"subject":{"reference":"Patient/2712986c-3eea-495a-b412-092425c81148"},"effectiveDateTime":"2022-04-12T00:00:00+00:00","valueQuantity":{"value":95.4,"unit":"Per Minute","system":"http://unitsofmeasure.org","code":"/min"}}},{"fullUrl":"Patient/b8eac90d-41ee-4cbf-9e2b-997a4f2769ac","resource":{"resourceType":"Patient","id":"b8eac90d-41ee-4cbf-9e2b-997a4f2769ac","meta":{"profile":["http://hl7.org/fhir/us/core/StructureDefinition/us-core-patient"]},"extension":[{"extension":[{"url":"ombCategory","valueCoding":{"system":"http://terminology.hl7.org/CodeSystem/v3-NullFlavor","code":"ASKU","display":"asked but unknown"}},{"url":"text","valueString":"asked but unknown"}],"url":"http://hl7.org/fhir/us/core/StructureDefinition/us-core-race"},{"extension":[{"url":"ombCategory","valueCoding":{"system":"urn:oid:2.16.840.1.113883.6.238","code":"2186-5","display":"Non Hispanic or Latino"}},{"url":"text","valueString":"Non Hispanic or Latino"}],"url":"http://hl7.org/fhir/us/core/StructureDefinition/us-core-ethnicity"}],"identifier":[{"type":{"coding":[{"system":"http://terminology.hl7.org/CodeSystem/v2-0203","code":"MR"}]},"system":"urn:fhirgen:mrn","value":"019-57-4130"}],"name":[{"use":"official","family":"Miller","given":["Stephanie"]},{"use":"maiden","family":"Walker"}],"telecom":[{"system":"phone","value":"359.244.0582x88417","use":"mobile"},{"system":"email","value":"jared15@hotmail.com","use":"mobile"}],"gender":"female","birthDate":"1967-04-22","address":[{"use":"home","line":["892 Hensley Estate"],"city":"New Michelle","state":"PA","postalCode":"11743"},{"use":"old","line":["3548 Alvarado Garden"],"city":"East Kevinmouth","state":"MA","postalCode":"50393"}]}},{"fullUrl":"Observation/f4f10dc7-6712-412a-807d-5f37d3de3673","resource":{"resourceType":"Observation","id":"f4f10dc7-6712-412a-807d-5f37d3de3673","meta":{"profile":["http://hl7.org/fhir/us/core/StructureDefinition/us-core-observation-lab"]},"status":"final","category":[{"coding":[{"system":"http://terminology.hl7.org/CodeSystem/observation-category","code":"laboratory","display":"Laboratory"}]}],"code":{"coding":[{"system":"http://loinc.org","code":"47476-7"}]},"subject":{"reference":"Patient/b8eac90d-41ee-4cbf-9e2b-997a4f2769ac"},"effectiveDateTime":"2022-09-04T00:00:00+00:00","valueRatio":{"numerator":{"value":1},"denominator":{"value":64}}}},{"fullUrl":"Observation/0cf1b091-a6fe-45c9-84e1-1301f611c3b1","resource":{"resourceType":"Observation","id":"0cf1b091-a6fe-45c9-84e1-1301f611c3b1","meta":{"profile":["http://hl7.org/fhir/us/core/StructureDefinition/us-core-observation-lab"]},"status":"final","category":[{"coding":[{"system":"http://terminology.hl7.org/CodeSystem/observation-category","code":"laboratory","display":"Laboratory"}]}],"code":{"coding":[{"system":"http://loinc.org","code":"11084-1"}]},"subject":{"reference":"Patient/b8eac90d-41ee-4cbf-9e2b-997a4f2769ac"},"effectiveDateTime":"2022-11-14T00:00:00+00:00","valueRatio":{"numerator":{"value":1},"denominator":{"value":32}}}},{"fullUrl":"Observation/f5e72701-3698-4ae0-a6fa-8f59ce2f7202","resource":{"resourceType":"Observation","id":"f5e72701-3698-4ae0-a6fa-8f59ce2f7202","meta":{"profile":["http://hl7.org/fhir/us/core/StructureDefinition/us-core-observation-lab"]},"status":"final","category":[{"coding":[{"system":"http://terminology.hl7.org/CodeSystem/observation-category","code":"laboratory","display":"Laboratory"}]}],"code":{"coding":[{"system":"http://loinc.org","code":"71793-4"}]},"subject":{"reference":"Patient/b8eac90d-41ee-4cbf-9e2b-997a4f2769ac"},"effectiveDateTime":"2022-08-26T00:00:00+00:00","valueRatio":{"numerator":{"value":1},"denominator":{"value":32}}}},{"fullUrl":"Condition/9b976e25-e8bf-4922-8652-8cebc35911ba","resource":{"resourceType":"Condition","id":"9b976e25-e8bf-4922-8652-8cebc35911ba","meta":{"profile":["http://hl7.org/fhir/us/core/StructureDefinition/us-core-condition"]},"clinicalStatus":{"coding":[{"system":"http://terminology.hl7.org/CodeSystem/condition-clinical","code":"active","display":"Active"}]},"category":[{"coding":[{"system":"http://terminology.hl7.org/CodeSystem/condition-category","code":"problem-list-item"}]}],"code":{"coding":[{"system":"http://snomed.info/sct","code":"418290006"}]},"subject":{"reference":"Patient/b8eac90d-41ee-4cbf-9e2b-997a4f2769ac"},"onsetDateTime":"2022-02-17T00:00:00+00:00"}},{"fullUrl":"Condition/96c5ce20-dab8-4119-8832-4d870fb94521","resource":{"resourceType":"Condition","id":"96c5ce20-dab8-4119-8832-4d870fb94521","meta":{"profile":["http://hl7.org/fhir/us/core/StructureDefinition/us-core-condition"]},"clinicalStatus":{"coding":[{"system":"http://terminology.hl7.org/CodeSystem/condition-clinical","code":"active","display":"Active"}]},"category":[{"coding":[{"system":"http://terminology.hl7.org/CodeSystem/condition-category","code":"problem-list-item"}]}],"code":{"coding":[{"system":"http://snomed.info/sct","code":"418290006"}]},"subject":{"reference":"Patient/b8eac90d-41ee-4cbf-9e2b-997a4f2769ac"},"onsetDateTime":"2022-10-09T00:00:00+00:00"}},{"fullUrl":"Condition/e9777fc5-a7f0-44e8-b698-93fdb0770505","resource":{"resourceType":"Condition","id":"e9777fc5-a7f0-44e8-b698-93fdb0770505","meta":{"profile":["http://hl7.org/fhir/us/core/StructureDefinition/us-core-condition"]},"clinicalStatus":{"coding":[{"system":"http://terminology.hl7.org/CodeSystem/condition-clinical","code":"active","display":"Active"}]},"category":[{"coding":[{"system":"http://terminology.hl7.org/CodeSystem/condition-category","code":"problem-list-item"}]}],"code":{"coding":[{"system":"http://snomed.info/sct","code":"91554004"}]},"subject":{"reference":"Patient/b8eac90d-41ee-4cbf-9e2b-997a4f2769ac"},"onsetDateTime":"2022-09-15T00:00:00+00:00"}},{"fullUrl":"Condition/c0f7f705-ab2c-44fb-8ee1-403f46726d58","resource":{"resourceType":"Condition","id":"c0f7f705-ab2c-44fb-8ee1-403f46726d58","meta":{"profile":["http://hl7.org/fhir/us/core/StructureDefinition/us-core-condition"]},"clinicalStatus":{"coding":[{"system":"http://terminology.hl7.org/CodeSystem/condition-clinical","code":"active","display":"Active"}]},"category":[{"coding":[{"system":"http://terminology.hl7.org/CodeSystem/condition-category","code":"problem-list-item"}]}],"code":{"coding":[{"system":"http://snomed.info/sct","code":"736686006"}]},"subject":{"reference":"Patient/b8eac90d-41ee-4cbf-9e2b-997a4f2769ac"},"onsetDateTime":"2022-08-20T00:00:00+00:00"}},{"fullUrl":"Condition/671da29d-6db6-4716-9d45-0f994c48acb9","resource":{"resourceType":"Condition","id":"671da29d-6db6-4716-9d45-0f994c48acb9","meta":{"profile":["http://hl7.org/fhir/us/core/StructureDefinition/us-core-condition"]},"clinicalStatus":{"coding":[{"system":"http://terminology.hl7.org/CodeSystem/condition-clinical","code":"active","display":"Active"}]},"category":[{"coding":[{"system":"http://terminology.hl7.org/CodeSystem/condition-category","code":"problem-list-item"}]}],"code":{"coding":[{"system":"http://snomed.info/sct","code":"709977002"}]},"subject":{"reference":"Patient/b8eac90d-41ee-4cbf-9e2b-997a4f2769ac"},"onsetDateTime":"2022-03-05T00:00:00+00:00"}},{"fullUrl":"Condition/e348adcc-ad87-44f8-bd76-84e7729bce21","resource":{"resourceType":"Condition","id":"e348adcc-ad87-44f8-bd76-84e7729bce21","meta":{"profile":["http://hl7.org/fhir/us/core/StructureDefinition/us-core-condition"]},"clinicalStatus":{"coding":[{"system":"http://terminology.hl7.org/CodeSystem/condition-clinical","code":"active","display":"Active"}]},"category":[{"coding":[{"system":"http://terminology.hl7.org/CodeSystem/condition-category","code":"problem-list-item"}]}],"code":{"coding":[{"system":"http://snomed.info/sct","code":"91554004"}]},"subject":{"reference":"Patient/b8eac90d-41ee-4cbf-9e2b-997a4f2769ac"},"onsetDateTime":"2022-08-09T00:00:00+00:00"}},{"fullUrl":"Observation/e4f677f0-2f31-40e7-8184-ac2f67a02b9e","resource":{"resourceType":"Observation","id":"e4f677f0-2f31-40e7-8184-ac2f67a02b9e","meta":{"profile":["http://hl7.org/fhir/us/core/StructureDefinition/us-core-observation-lab"]},"status":"final","category":[{"coding":[{"system":"http://terminology.hl7.org/CodeSystem/observation-category","code":"laboratory","display":"Laboratory"}]}],"code":{"coding":[{"system":"http://loinc.org","code":"49498-9"}]},"subject":{"reference":"Patient/b8eac90d-41ee-4cbf-9e2b-997a4f2769ac"},"effectiveDateTime":"2022-05-29T00:00:00+00:00","valueQuantity":{"value":5}}},{"fullUrl":"Observation/477f8137-f267-4890-82df-832b14ea9c70","resource":{"resourceType":"Observation","id":"477f8137-f267-4890-82df-832b14ea9c70","meta":{"profile":["http://hl7.org/fhir/us/core/StructureDefinition/us-core-observation-lab"]},"status":"final","category":[{"coding":[{"system":"http://terminology.hl7.org/CodeSystem/observation-category","code":"laboratory","display":"Laboratory"}]}],"code":{"coding":[{"system":"http://loinc.org","code":"26464-8"}]},"subject":{"reference":"Patient/b8eac90d-41ee-4cbf-9e2b-997a4f2769ac"},"effectiveDateTime":"2022-01-05T00:00:00+00:00","valueQuantity":{"value":7.9}}},{"fullUrl":"Observation/6d4e1840-981d-48ab-b11c-1213241b8593","resource":{"resourceType":"Observation","id":"6d4e1840-981d-48ab-b11c-1213241b8593","meta":{"profile":["http://hl7.org/fhir/us/core/StructureDefinition/us-core-observation-lab"]},"status":"final","category":[{"coding":[{"system":"http://terminology.hl7.org/CodeSystem/observation-category","code":"laboratory","display":"Laboratory"}]}],"code":{"coding":[{"system":"http://loinc.org","code":"6690-2"}]},"subject":{"reference":"Patient/b8eac90d-41ee-4cbf-9e2b-997a4f2769ac"},"effectiveDateTime":"2022-12-11T00:00:00+00:00","valueQuantity":{"value":6.2}}},{"fullUrl":"Observation/d9abee70-a2c9-49d9-9f5c-9d2bc0639852","resource":{"resourceType":"Observation","id":"d9abee70-a2c9-49d9-9f5c-9d2bc0639852","meta":{"profile":["http://hl7.org/fhir/us/core/StructureDefinition/us-core-bmi"]},"status":"final","category":[{"coding":[{"system":"http://terminology.hl7.org/CodeSystem/observation-category","code":"vital-signs","display":"Vital Signs"}]}],"code":{"coding":[{"system":"http://loinc.org","code":"39156-5"}]},"subject":{"reference":"Patient/b8eac90d-41ee-4cbf-9e2b-997a4f2769ac"},"effectiveDateTime":"2022-01-03T00:00:00+00:00","valueQuantity":{"value":13.71,"unit":"kg/m2","system":"http://unitsofmeasure.org","code":"kg/m2"}}},{"fullUrl":"Observation/7b8c2e89-7857-4747-9ae3-18584037dc08","resource":{"resourceType":"Observation","id":"7b8c2e89-7857-4747-9ae3-18584037dc08","meta":{"profile":["http://hl7.org/fhir/us/core/StructureDefinition/us-core-head-circumference"]},"status":"final","category":[{"coding":[{"system":"http://terminology.hl7.org/CodeSystem/observation-category","code":"vital-signs","display":"Vital Signs"}]}],"code":{"coding":[{"system":"http://loinc.org","code":"9843-4"}]},"subject":{"reference":"Patient/b8eac90d-41ee-4cbf-9e2b-997a4f2769ac"},"effectiveDateTime":"2022-02-22T00:00:00+00:00","valueQuantity":{"value":5.2,"unit":"Inch","system":"http://unitsofmeasure.org","code":"[in_i]"}}},{"fullUrl":"Observation/e790b86a-eae3-415c-8029-05b27c075519","resource":{"resourceType":"Observation","id":"e790b86a-eae3-415c-8029-05b27c075519","meta":{"profile":["http://hl7.org/fhir/us/core/StructureDefinition/us-core-body-height"]},"status":"final","category":[{"coding":[{"system":"http://terminology.hl7.org/CodeSystem/observation-category","code":"vital-signs","display":"Vital Signs"}]}],"code":{"coding":[{"system":"http://loinc.org","code":"8302-2"}]},"subject":{"reference":"Patient/b8eac90d-41ee-4cbf-9e2b-997a4f2769ac"},"effectiveDateTime":"2022-10-12T00:00:00+00:00","valueQuantity":{"value":77.4,"unit":"Inch","system":"http://unitsofmeasure.org","code":"[in_i]"}}},{"fullUrl":"Observation/04e3dbfd-5b74-4180-9955-b96dc6567eeb","resource":{"resourceType":"Observation","id":"04e3dbfd-5b74-4180-9955-b96dc6567eeb","meta":{"profile":["http://hl7.org/fhir/us/core/StructureDefinition/us-core-body-weight"]},"status":"final","category":[{"coding":[{"system":"http://terminology.hl7.org/CodeSystem/observation-category","code":"vital-signs","display":"Vital Signs"}]}],"code":{"coding":[{"system":"http://loinc.org","code":"29463-7"}]},"subject":{"reference":"Patient/b8eac90d-41ee-4cbf-9e2b-997a4f2769ac"},"effectiveDateTime":"2022-10-13T00:00:00+00:00","valueQuantity":{"value":76.79,"unit":"kilogram","system":"http://unitsofmeasure.org","code":"kg"}}},{"fullUrl":"Observation/5208a905-5388-4aa9-a70d-f111dbd66e47","resource":{"resourceType":"Observation","id":"5208a905-5388-4aa9-a70d-f111dbd66e47","meta":{"profile":["http://hl7.org/fhir/us/core/StructureDefinition/us-core-body-temperature"]},"status":"final","category":[{"coding":[{"system":"http://terminology.hl7.org/CodeSystem/observation-category","code":"vital-signs","display":"Vital Signs"}]}],"code":{"coding":[{"system":"http://loinc.org","code":"8310-5"}]},"subject":{"reference":"Patient/b8eac90d-41ee-4cbf-9e2b-997a4f2769ac"},"effectiveDateTime":"2022-12-30T00:00:00+00:00","valueQuantity":{"value":130.86,"unit":"Degrees Fahrenheit","system":"http://unitsofmeasure.org","code":"[degF]"}}},{"fullUrl":"Observation/9675b974-890b-4993-8be2-45264e075471","resource":{"resourceType":"Observation","id":"9675b974-890b-4993-8be2-45264e075471","meta":{"profile":["http://hl7.org/fhir/us/core/StructureDefinition/us-core-heart-rate"]},"status":"final","category":[{"coding":[{"system":"http://terminology.hl7.org/CodeSystem/observation-category","code":"vital-signs","display":"Vital Signs"}]}],"code":{"coding":[{"system":"http://loinc.org","code":"8867-4"}]},"subject":{"reference":"Patient/b8eac90d-41ee-4cbf-9e2b-997a4f2769ac"},"effectiveDateTime":"2022-02-09T00:00:00+00:00","valueQuantity":{"value":99.7,"unit":"Per Minute","system":"http://unitsofmeasure.org","code":"/min"}}},{"fullUrl":"Observation/58491949-166e-4c7c-885b-7e7839cd1b54","resource":{"resourceType":"Observation","id":"58491949-166e-4c7c-885b-7e7839cd1b54","meta":{"profile":["http://hl7.org/fhir/us/core/StructureDefinition/us-core-heart-rate"]},"status":"final","category":[{"coding":[{"system":"http://terminology.hl7.org/CodeSystem/observation-category","code":"vital-signs","display":"Vital Signs"}]}],"code":{"coding":[{"system":"http://loinc.org","code":"8867-4"}]},"subject":{"reference":"Patient/b8eac90d-41ee-4cbf-9e2b-997a4f2769ac"},"effectiveDateTime":"2022-07-03T00:00:00+00:00","valueQuantity":{"value":100.4,"unit":"Per Minute","system":"http://unitsofmeasure.org","code":"/min"}}},{"fullUrl":"Patient/0c054291-5858-4248-921c-43996c970ef6","resource":{"resourceType":"Patient","id":"0c054291-5858-4248-921c-43996c970ef6","meta":{"profile":["http://hl7.org/fhir/us/core/StructureDefinition/us-core-patient"]},"extension":[{"extension":[{"url":"ombCategory","valueCoding":{"system":"urn:oid:2.16.840.1.113883.6.238","code":"1002-5","display":"American Indian or Alaska Native"}},{"url":"text","valueString":"American Indian or Alaska Native"}],"url":"http://hl7.org/fhir/us/core/StructureDefinition/us-core-race"},{"extension":[{"url":"ombCategory","valueCoding":{"system":"urn:oid:2.16.840.1.113883.6.238","code":"2186-5","display":"Non Hispanic or Latino"}},{"url":"text","valueString":"Non Hispanic or Latino"}],"url":"http://hl7.org/fhir/us/core/StructureDefinition/us-core-ethnicity"}],"identifier":[{"type":{"coding":[{"system":"http://terminology.hl7.org/CodeSystem/v2-0203","code":"MR"}]},"system":"urn:fhirgen:mrn","value":"195-73-1260"}],"name":[{"use":"official","family":"Floyd","given":["Kathryn"]},{"use":"maiden","family":"West"}],"telecom":[{"system":"phone","value":"+1-443-880-8292x6943","use":"mobile"},{"system":"email","value":"adamosborne@hotmail.com","use":"mobile"}],"gender":"other","birthDate":"1945-01-31","address":[{"use":"home","line":["95312 Elizabeth Parks"],"city":"Moodyside","state":"LA","postalCode":"42914"},{"use":"old","line":["6207 Jerry Fort Apt. 470"],"city":"South Johnnyton","state":"DC","postalCode":"91568"}]}},{"fullUrl":"Observation/763337f8-3e23-42fa-afef-12dff11fa1f3","resource":{"resourceType":"Observation","id":"763337f8-3e23-42fa-afef-12dff11fa1f3","meta":{"profile":["http://hl7.org/fhir/us/core/StructureDefinition/us-core-observation-lab"]},"status":"final","category":[{"coding":[{"system":"http://terminology.hl7.org/CodeSystem/observation-category","code":"laboratory","display":"Laboratory"}]}],"code":{"coding":[{"system":"http://loinc.org","code":"51475-2"}]},"subject":{"reference":"Patient/0c054291-5858-4248-921c-43996c970ef6"},"effectiveDateTime":"2022-05-21T00:00:00+00:00","valueRatio":{"numerator":{"value":1},"denominator":{"value":4}}}},{"fullUrl":"Observation/e5d2263b-ae39-49b6-a18a-e927c551cacb","resource":{"resourceType":"Observation","id":"e5d2263b-ae39-49b6-a18a-e927c551cacb","meta":{"profile":["http://hl7.org/fhir/us/core/StructureDefinition/us-core-observation-lab"]},"status":"final","category":[{"coding":[{"system":"http://terminology.hl7.org/CodeSystem/observation-category","code":"laboratory","display":"Laboratory"}]}],"code":{"coding":[{"system":"http://loinc.org","code":"71793-4"}]},"subject":{"reference":"Patient/0c054291-5858-4248-921c-43996c970ef6"},"effectiveDateTime":"2022-07-18T00:00:00+00:00","valueRatio":{"numerator":{"value":1},"denominator":{"value":64}}}},{"fullUrl":"Condition/18d12403-cb08-4af8-a863-51fbbb17d284","resource":{"resourceType":"Condition","id":"18d12403-cb08-4af8-a863-51fbbb17d284","meta":{"profile":["http://hl7.org/fhir/us/core/StructureDefinition/us-core-condition"]},"clinicalStatus":{"coding":[{"system":"http://terminology.hl7.org/CodeSystem/condition-clinical","code":"active","display":"Active"}]},"category":[{"coding":[{"system":"http://terminology.hl7.org/CodeSystem/condition-category","code":"problem-list-item"}]}],"code":{"coding":[{"system":"http://snomed.info/sct","code":"91554004"}]},"subject":{"reference":"Patient/0c054291-5858-4248-921c-43996c970ef6"},"onsetDateTime":"2022-05-05T00:00:00+00:00"}},{"fullUrl":"Condition/b8245da8-1e23-44f3-946a-24457daba471","resource":{"resourceType":"Condition","id":"b8245da8-1e23-44f3-946a-24457daba471","meta":{"profile":["http://hl7.org/fhir/us/core/StructureDefinition/us-core-condition"]},"clinicalStatus":{"coding":[{"system":"http://terminology.hl7.org/CodeSystem/condition-clinical","code":"active","display":"Active"}]},"category":[{"coding":[{"system":"http://terminology.hl7.org/CodeSystem/condition-category","code":"problem-list-item"}]}],"code":{"coding":[{"system":"http://snomed.info/sct","code":"418290006"}]},"subject":{"reference":"Patient/0c054291-5858-4248-921c-43996c970ef6"},"onsetDateTime":"2022-08-10T00:00:00+00:00"}},{"fullUrl":"Condition/e563b9b9-572f-4553-b141-3dd91df6f4a4","resource":{"resourceType":"Condition","id":"e563b9b9-572f-4553-b141-3dd91df6f4a4","meta":{"profile":["http://hl7.org/fhir/us/core/StructureDefinition/us-core-condition"]},"clinicalStatus":{"coding":[{"system":"http://terminology.hl7.org/CodeSystem/condition-clinical","code":"active","display":"Active"}]},"category":[{"coding":[{"system":"http://terminology.hl7.org/CodeSystem/condition-category","code":"problem-list-item"}]}],"code":{"coding":[{"system":"http://snomed.info/sct","code":"91554004"}]},"subject":{"reference":"Patient/0c054291-5858-4248-921c-43996c970ef6"},"onsetDateTime":"2022-03-07T00:00:00+00:00"}},{"fullUrl":"Condition/8a0b7596-d2e6-4282-9590-f90e2afe7012","resource":{"resourceType":"Condition","id":"8a0b7596-d2e6-4282-9590-f90e2afe7012","meta":{"profile":["http://hl7.org/fhir/us/core/StructureDefinition/us-core-condition"]},"clinicalStatus":{"coding":[{"system":"http://terminology.hl7.org/CodeSystem/condition-clinical","code":"active","display":"Active"}]},"category":[{"coding":[{"system":"http://terminology.hl7.org/CodeSystem/condition-category","code":"problem-list-item"}]}],"code":{"coding":[{"system":"http://snomed.info/sct","code":"709977002"}]},"subject":{"reference":"Patient/0c054291-5858-4248-921c-43996c970ef6"},"onsetDateTime":"2022-02-24T00:00:00+00:00"}},{"fullUrl":"Condition/e86ad57a-e1ca-44d4-b91f-202a7adc4e83","resource":{"resourceType":"Condition","id":"e86ad57a-e1ca-44d4-b91f-202a7adc4e83","meta":{"profile":["http://hl7.org/fhir/us/core/StructureDefinition/us-core-condition"]},"clinicalStatus":{"coding":[{"system":"http://terminology.hl7.org/CodeSystem/condition-clinical","code":"active","display":"Active"}]},"category":[{"coding":[{"system":"http://terminology.hl7.org/CodeSystem/condition-category","code":"problem-list-item"}]}],"code":{"coding":[{"system":"http://snomed.info/sct","code":"736686006"}]},"subject":{"reference":"Patient/0c054291-5858-4248-921c-43996c970ef6"},"onsetDateTime":"2022-09-14T00:00:00+00:00"}},{"fullUrl":"Condition/22401e04-10fb-4020-a755-9b9894bb2047","resource":{"resourceType":"Condition","id":"22401e04-10fb-4020-a755-9b9894bb2047","meta":{"profile":["http://hl7.org/fhir/us/core/StructureDefinition/us-core-condition"]},"clinicalStatus":{"coding":[{"system":"http://terminology.hl7.org/CodeSystem/condition-clinical","code":"active","display":"Active"}]},"category":[{"coding":[{"system":"http://terminology.hl7.org/CodeSystem/condition-category","code":"problem-list-item"}]}],"code":{"coding":[{"system":"http://snomed.info/sct","code":"418290006"}]},"subject":{"reference":"Patient/0c054291-5858-4248-921c-43996c970ef6"},"onsetDateTime":"2022-08-13T00:00:00+00:00"}},{"fullUrl":"Observation/ec231c49-c40a-4db0-afd2-e1da239f156e","resource":{"resourceType":"Observation","id":"ec231c49-c40a-4db0-afd2-e1da239f156e","meta":{"profile":["http://hl7.org/fhir/us/core/StructureDefinition/us-core-observation-lab"]},"status":"final","category":[{"coding":[{"system":"http://terminology.hl7.org/CodeSystem/observation-category","code":"laboratory","display":"Laboratory"}]}],"code":{"coding":[{"system":"http://loinc.org","code":"804-5"}]},"subject":{"reference":"Patient/0c054291-5858-4248-921c-43996c970ef6"},"effectiveDateTime":"2022-06-11T00:00:00+00:00","valueQuantity":{"value":6.7}}},{"fullUrl":"Observation/5565c714-9909-4890-baad-a9cd114746ca","resource":{"resourceType":"Observation","id":"5565c714-9909-4890-baad-a9cd114746ca","meta":{"profile":["http://hl7.org/fhir/us/core/StructureDefinition/us-core-observation-lab"]},"status":"final","category":[{"coding":[{"system":"http://terminology.hl7.org/CodeSystem/observation-category","code":"laboratory","display":"Laboratory"}]}],"code":{"coding":[{"system":"http://loinc.org","code":"6690-2"}]},"subject":{"reference":"Patient/0c054291-5858-4248-921c-43996c970ef6"},"effectiveDateTime":"2022-09-15T00:00:00+00:00","valueQuantity":{"value":5.8}}},{"fullUrl":"Observation/5985a075-805b-4e3b-871b-142da1f50555","resource":{"resourceType":"Observation","id":"5985a075-805b-4e3b-871b-142da1f50555","meta":{"profile":["http://hl7.org/fhir/us/core/StructureDefinition/us-core-bmi"]},"status":"final","category":[{"coding":[{"system":"http://terminology.hl7.org/CodeSystem/observation-category","code":"vital-signs","display":"Vital Signs"}]}],"code":{"coding":[{"system":"http://loinc.org","code":"39156-5"}]},"subject":{"reference":"Patient/0c054291-5858-4248-921c-43996c970ef6"},"effectiveDateTime":"2022-11-06T00:00:00+00:00","valueQuantity":{"value":21.74,"unit":"kg/m2","system":"http://unitsofmeasure.org","code":"kg/m2"}}},{"fullUrl":"Observation/66cc3f64-6a63-484b-a8ff-4de21f0f3237","resource":{"resourceType":"Observation","id":"66cc3f64-6a63-484b-a8ff-4de21f0f3237","meta":{"profile":["http://hl7.org/fhir/us/core/StructureDefinition/us-core-bmi"]},"status":"final","category":[{"coding":[{"system":"http://terminology.hl7.org/CodeSystem/observation-category","code":"vital-signs","display":"Vital Signs"}]}],"code":{"coding":[{"system":"http://loinc.org","code":"39156-5"}]},"subject":{"reference":"Patient/0c054291-5858-4248-921c-43996c970ef6"},"effectiveDateTime":"2022-11-15T00:00:00+00:00","valueQuantity":{"value":21.58,"unit":"kg/m2","system":"http://unitsofmeasure.org","code":"kg/m2"}}},{"fullUrl":"Observation/34bb8da7-d080-4c9f-83fa-5259fa941438","resource":{"resourceType":"Observation","id":"34bb8da7-d080-4c9f-83fa-5259fa941438","meta":{"profile":["http://hl7.org/fhir/us/core/StructureDefinition/us-core-head-circumference"]},"status":"final","category":[{"coding":[{"system":"http://terminology.hl7.org/CodeSystem/observation-category","code":"vital-signs","display":"Vital Signs"}]}],"code":{"coding":[{"system":"http://loinc.org","code":"9843-4"}]},"subject":{"reference":"Patient/0c054291-5858-4248-921c-43996c970ef6"},"effectiveDateTime":"2022-07-06T00:00:00+00:00","valueQuantity":{"value":2.2,"unit":"Inch","system":"http://unitsofmeasure.org","code":"[in_i]"}}},{"fullUrl":"Observation/f7b04483-3d4b-4768-abce-5e4306a44687","resource":{"resourceType":"Observation","id":"f7b04483-3d4b-4768-abce-5e4306a44687","meta":{"profile":["http://hl7.org/fhir/us/core/StructureDefinition/us-core-head-circumference"]},"status":"final","category":[{"coding":[{"system":"http://terminology.hl7.org/CodeSystem/observation-category","code":"vital-signs","display":"Vital Signs"}]}],"code":{"coding":[{"system":"http://loinc.org","code":"9843-4"}]},"subject":{"reference":"Patient/0c054291-5858-4248-921c-43996c970ef6"},"effectiveDateTime":"2022-10-29T00:00:00+00:00","valueQuantity":{"value":9.9,"unit":"Inch","system":"http://unitsofmeasure.org","code":"[in_i]"}}},{"fullUrl":"Observation/c4b5424b-8c52-4bbc-b6e3-b134115be28c","resource":{"resourceType":"Observation","id":"c4b5424b-8c52-4bbc-b6e3-b134115be28c","meta":{"profile":["http://hl7.org/fhir/us/core/StructureDefinition/us-core-body-height"]},"status":"final","category":[{"coding":[{"system":"http://terminology.hl7.org/CodeSystem/observation-category","code":"vital-signs","display":"Vital Signs"}]}],"code":{"coding":[{"system":"http://loinc.org","code":"8302-2"}]},"subject":{"reference":"Patient/0c054291-5858-4248-921c-43996c970ef6"},"effectiveDateTime":"2022-07-12T00:00:00+00:00","valueQuantity":{"value":62.2,"unit":"Inch","system":"http://unitsofmeasure.org","code":"[in_i]"}}},{"fullUrl":"Observation/bc5b974e-2ce7-4b2e-a9b4-fd4d451c4b97","resource":{"resourceType":"Observation","id":"bc5b974e-2ce7-4b2e-a9b4-fd4d451c4b97","meta":{"profile":["http://hl7.org/fhir/us/core/StructureDefinition/us-core-body-weight"]},"status":"final","category":[{"coding":[{"system":"http://terminology.hl7.org/CodeSystem/observation-category","code":"vital-signs","display":"Vital Signs"}]}],"code":{"coding":[{"system":"http://loinc.org","code":"29463-7"}]},"subject":{"reference":"Patient/0c054291-5858-4248-921c-43996c970ef6"},"effectiveDateTime":"2022-04-12T00:00:00+00:00","valueQuantity":{"value":70.24,"unit":"kilogram","system":"http://unitsofmeasure.org","code":"kg"}}},{"fullUrl":"Observation/593a68f9-322f-4e81-a892-14f53c47f54e","resource":{"resourceType":"Observation","id":"593a68f9-322f-4e81-a892-14f53c47f54e","meta":{"profile":["http://hl7.org/fhir/us/core/StructureDefinition/us-core-body-weight"]},"status":"final","category":[{"coding":[{"system":"http://terminology.hl7.org/CodeSystem/observation-category","code":"vital-signs","display":"Vital Signs"}]}],"code":{"coding":[{"system":"http://loinc.org","code":"29463-7"}]},"subject":{"reference":"Patient/0c054291-5858-4248-921c-43996c970ef6"},"effectiveDateTime":"2022-08-28T00:00:00+00:00","valueQuantity":{"value":48.65,"unit":"kilogram","system":"http://unitsofmeasure.org","code":"kg"}}},{"fullUrl":"Observation/4aeac17a-855a-430c-8b02-258df2f488e4","resource":{"resourceType":"Observation","id":"4aeac17a-855a-430c-8b02-258df2f488e4","meta":{"profile":["http://hl7.org/fhir/us/core/StructureDefinition/us-core-body-temperature"]},"status":"final","category":[{"coding":[{"system":"http://terminology.hl7.org/CodeSystem/observation-category","code":"vital-signs","display":"Vital Signs"}]}],"code":{"coding":[{"system":"http://loinc.org","code":"8310-5"}]},"subject":{"reference":"Patient/0c054291-5858-4248-921c-43996c970ef6"},"effectiveDateTime":"2022-11-24T00:00:00+00:00","valueQuantity":{"value":80.68,"unit":"Degrees Fahrenheit","system":"http://unitsofmeasure.org","code":"[degF]"}}},{"fullUrl":"Observation/71aefa62-6230-4699-829b-9cf0f6656641","resource":{"resourceType":"Observation","id":"71aefa62-6230-4699-829b-9cf0f6656641","meta":{"profile":["http://hl7.org/fhir/us/core/StructureDefinition/us-core-heart-rate"]},"status":"final","category":[{"coding":[{"system":"http://terminology.hl7.org/CodeSystem/observation-category","code":"vital-signs","display":"Vital Signs"}]}],"code":{"coding":[{"system":"http://loinc.org","code":"8867-4"}]},"subject":{"reference":"Patient/0c054291-5858-4248-921c-43996c970ef6"},"effectiveDateTime":"2022-05-06T00:00:00+00:00","valueQuantity":{"value":95.6,"unit":"Per Minute","system":"http://unitsofmeasure.org","code":"/min"}}}]}