{"resourceType":"Bundle","id":"23bfdfb8-2345-44ca-b8b2-d29a232529be","type":"transaction","entry":[{"fullUrl":"Patient/6ee79598-1d80-4fb2-badf-31447c79ef7d","resource":{"resourceType":"Patient","id":"6ee79598-1d80-4fb2-badf-31447c79ef7d","meta":{"profile":["http://hl7.org/fhir/us/core/StructureDefinition/us-core-patient"]},"extension":[{"extension":[{"url":"ombCategory","valueCoding":{"system":"http://terminology.hl7.org/CodeSystem/v3-NullFlavor","code":"UNK","display":"Unknonw"}},{"url":"text","valueString":"Unknonw"}],"url":"http://hl7.org/fhir/us/core/StructureDefinition/us-core-race"},{"extension":[{"url":"ombCategory","valueCoding":{"system":"urn:oid:2.16.840.1.113883.6.238","code":"2186-5","display":"Non Hispanic or Latino"}},{"url":"text","valueString":"Non Hispanic or Latino"}],"url":"http://hl7.org/fhir/us/core/StructureDefinition/us-core-ethnicity"}],"identifier":[{"type":{"coding":[{"system":"http://terminology.hl7.org/CodeSystem/v2-0203","code":"MR"}]},"system":"urn:fhirgen:mrn","value":"556-48-2985"}],"name":[{"family":"Kirk","given":["Eric"]}],"telecom":[{"system":"phone","value":"1754551535","use":"home"}],"gender":"male","birthDate":"1966-02-04","address":[{"line":["65370 Stacey Rapid"],"city":"North Carolynfort","state":"Maryland","postalCode":"42536"}]},"request":{"method":"POST","url":"Patient"}},{"fullUrl":"Observation/e9c4c36c-a5c2-4a6d-a2db-0dabfce0bc9b","resource":{"resourceType":"Observation","id":"e9c4c36c-a5c2-4a6d-a2db-0dabfce0bc9b","meta":{"profile":["http://hl7.org/fhir/us/core/StructureDefinition/us-core-observation-lab"]},"status":"final","category":[{"coding":[{"system":"http://terminology.hl7.org/CodeSystem/observation-category","code":"laboratory","display":"Laboratory"}]}],"code":{"coding":[{"system":"http://loinc.org","code":"71793-4"}]},"subject":{"reference":"Patient/6ee79598-1d80-4fb2-badf-31447c79ef7d"},"effectiveDateTime":"2022-02-07T00:00:00+00:00","valueRatio":{"numerator":{"value":1},"denominator":{"value":4}}},"request":{"method":"POST","url":"Observation"}},{"fullUrl":"Observation/f6c2c21d-f407-4e51-b989-58a349294052","resource":{"resourceType":"Observation","id":"f6c2c21d-f407-4e51-b989-58a349294052","meta":{"profile":["http://hl7.org/fhir/us/core/StructureDefinition/us-core-observation-lab"]},"status":"final","category":[{"coding":[{"system":"http://terminology.hl7.org/CodeSystem/observation-category","code":"laboratory","display":"Laboratory"}]}],"code":{"coding":[{"system":"http://loinc.org","code":"31147-2"}]},"subject":{"reference":"Patient/6ee79598-1d80-4fb2-badf-31447c79ef7d"},"effectiveDateTime":"2022-11-08T00:00:00+00:00","valueRatio":{"numerator":{"value":1},"denominator":{"value":32}}},"request":{"method":"POST","url":"Observation"}},{"fullUrl":"Observation/36710b2e-5c3d-406f-90be-ea8f29d9f4df","resource":{"resourceType":"Observation","id":"36710b2e-5c3d-406f-90be-ea8f29d9f4df","meta":{"profile":["http://hl7.org/fhir/us/core/StructureDefinition/us-core-observation-lab"]},"status":"final","category":[{"coding":[{"system":"http://terminology.hl7.org/CodeSystem/observation-category","code":"laboratory","display":"Laboratory"}]}],"code":{"coding":[{"system":"http://loinc.org","code":"47235-7"}]},"subject":{"reference":"Patient/6ee79598-1d80-4fb2-badf-31447c79ef7d"},"effectiveDateTime":"2022-02-03T00:00:00+00:00","valueRatio":{"numerator":{"value":1},"denominator":{"value":32}}},"request":{"method":"POST","url":"Observation"}},{"fullUrl":"Condition/f41f7f9c-15d7-4608-b50d-1b27a5119ba8","resource":{"resourceType":"Condition","id":"f41f7f9c-15d7-4608-b50d-1b27a5119ba8","meta":{"profile":["http://hl7.org/fhir/us/core/StructureDefinition/us-core-condition"]},"clinicalStatus":{"coding":[{"system":"http://terminology.hl7.org/CodeSystem/condition-clinical","code":"active","display":"Active"}]},"category":[{"coding":[{"system":"http://terminology.hl7.org/CodeSystem/condition-ver-status","code":"confirmed"}]}],"code":{"coding":[{"system":"http://snomed.info/sct","code":"418290006"}]},"subject":{"reference":"Patient/6ee79598-1d80-4fb2-badf-31447c79ef7d"},"onsetDateTime":"2022-06-29T00:00:00+00:00"},"request":{"method":"POST","url":"Condition"}},{"fullUrl":"Condition/a7f2c5de-e7b1-484b-8912-008edc71ad28","resource":{"resourceType":"Condition","id":"a7f2c5de-e7b1-484b-8912-008edc71ad28","meta":{"profile":["http://hl7.org/fhir/us/core/StructureDefinition/us-core-condition"]},"clinicalStatus":{"coding":[{"system":"http://terminology.hl7.org/CodeSystem/condition-clinical","code":"active","display":"Active"}]},"category":[{"coding":[{"system":"http://terminology.hl7.org/CodeSystem/condition-ver-status","code":"confirmed"}]}],"code":{"coding":[{"system":"http://snomed.info/sct","code":"418290006"}]},"subject":{"reference":"Patient/6ee79598-1d80-4fb2-badf-31447c79ef7d"},"onsetDateTime":"2022-02-17T00:00:00+00:00"},"request":{"method":"POST","url":"Condition"}},{"fullUrl":"Condition/cf0cd37b-4e5b-4535-b52e-6a57fc2d6d23","resource":{"resourceType":"Condition","id":"cf0cd37b-4e5b-4535-b52e-6a57fc2d6d23","meta":{"profile":["http://hl7.org/fhir/us/core/StructureDefinition/us-core-condition"]},"clinicalStatus":{"coding":[{"system":"http://terminology.hl7.org/CodeSystem/condition-clinical","code":"active","display":"Active"}]},"category":[{"coding":[{"system":"http://terminology.hl7.org/CodeSystem/condition-ver-status","code":"confirmed"}]}],"code":{"coding":[{"system":"http://snomed.info/sct","code":"418290006"}]},"subject":{"reference":"Patient/6ee79598-1d80-4fb2-badf-31447c79ef7d"},"onsetDateTime":"2022-04-08T00:00:00+00:00"},"request":{"method":"POST","url":"Condition"}},{"fullUrl":"Observation/e725c61f-0cfb-47e2-ab9a-cfe634c2fce6","resource":{"resourceType":"Observation","id":"e725c61f-0cfb-47e2-ab9a-cfe634c2fce6","meta":{"profile":["http://hl7.org/fhir/us/core/StructureDefinition/us-core-observation-lab"]},"status":"final","category":[{"coding":[{"system":"http://terminology.hl7.org/CodeSystem/observation-category","code":"laboratory","display":"Laboratory"}]}],"code":{"coding":[{"system":"http://loinc.org","code":"804-5"}]},"subject":{"reference":"Patient/6ee79598-1d80-4fb2-badf-31447c79ef7d"},"effectiveDateTime":"2022-06-05T00:00:00+00:00","valueQuantity":{"value":5}},"request":{"method":"POST","url":"Observation"}},{"fullUrl":"Observation/fb214680-65bf-4bbd-8129-ba3dcf813609","resource":{"resourceType":"Observation","id":"fb214680-65bf-4bbd-8129-ba3dcf813609","meta":{"profile":["http://hl7.org/fhir/us/core/StructureDefinition/us-core-observation-lab"]},"status":"final","category":[{"coding":[{"system":"http://terminology.hl7.org/CodeSystem/observation-category","code":"laboratory","display":"Laboratory"}]}],"code":{"coding":[{"system":"http://loinc.org","code":"804-5"}]},"subject":{"reference":"Patient/6ee79598-1d80-4fb2-badf-31447c79ef7d"},"effectiveDateTime":"2022-09-30T00:00:00+00:00","valueQuantity":{"value":7}},"request":{"method":"POST","url":"Observation"}},{"fullUrl":"Observation/1ae21a6a-ebe3-420b-835a-eae0547ce59c","resource":{"resourceType":"Observation","id":"1ae21a6a-ebe3-420b-835a-eae0547ce59c","meta":{"profile":["http://hl7.org/fhir/us/core/StructureDefinition/us-core-observation-lab"]},"status":"final","category":[{"coding":[{"system":"http://terminology.hl7.org/CodeSystem/observation-category","code":"laboratory","display":"Laboratory"}]}],"code":{"coding":[{"system":"http://loinc.org","code":"804-5"}]},"subject":{"reference":"Patient/6ee79598-1d80-4fb2-badf-31447c79ef7d"},"effectiveDateTime":"2022-08-18T00:00:00+00:00","valueQuantity":{"value":4.7}},"request":{"method":"POST","url":"Observation"}},{"fullUrl":"Observation/c887d7be-d911-47de-ba82-27b985bd028b","resource":{"resourceType":"Observation","id":"c887d7be-d911-47de-ba82-27b985bd028b","meta":{"profile":["http://hl7.org/fhir/us/core/StructureDefinition/us-core-bmi"]},"status":"final","category":[{"coding":[{"system":"http://terminology.hl7.org/CodeSystem/observation-category","code":"vital-signs","display":"Vital Signs"}]}],"code":{"coding":[{"system":"http://loinc.org","code":"39156-5"}]},"subject":{"reference":"Patient/6ee79598-1d80-4fb2-badf-31447c79ef7d"},"effectiveDateTime":"2022-11-25T00:00:00+00:00","valueQuantity":{"value":19.75,"unit":"kg/m2","system":"http://unitsofmeasure.org","code":"kg/m2"}},"request":{"method":"POST","url":"Observation"}},{"fullUrl":"Observation/2b8785b7-14ac-470e-b011-7675ae002655","resource":{"resourceType":"Observation","id":"2b8785b7-14ac-470e-b011-7675ae002655","meta":{"profile":["http://hl7.org/fhir/us/core/StructureDefinition/us-core-head-circumference"]},"status":"final","category":[{"coding":[{"system":"http://terminology.hl7.org/CodeSystem/observation-category","code":"vital-signs","display":"Vital Signs"}]}],"code":{"coding":[{"system":"http://loinc.org","code":"9843-4"}]},"subject":{"reference":"Patient/6ee79598-1d80-4fb2-badf-31447c79ef7d"},"effectiveDateTime":"2022-08-08T00:00:00+00:00","valueQuantity":{"value":7.5,"unit":"Inch","system":"http://unitsofmeasure.org","code":"[in_i]"}},"request":{"method":"POST","url":"Observation"}},{"fullUrl":"Observation/b2d1a394-0c81-46fa-bf48-099ca7d06a37","resource":{"resourceType":"Observation","id":"b2d1a394-0c81-46fa-bf48-099ca7d06a37","meta":{"profile":["http://hl7.org/fhir/us/core/StructureDefinition/us-core-head-circumference"]},"status":"final","category":[{"coding":[{"system":"http://terminology.hl7.org/CodeSystem/observation-category","code":"vital-signs","display":"Vital Signs"}]}],"code":{"coding":[{"system":"http://loinc.org","code":"9843-4"}]},"subject":{"reference":"Patient/6ee79598-1d80-4fb2-badf-31447c79ef7d"},"effectiveDateTime":"2022-12-25T00:00:00+00:00","valueQuantity":{"value":2.7,"unit":"Inch","system":"http://unitsofmeasure.org","code":"[in_i]"}},"request":{"method":"POST","url":"Observation"}},{"fullUrl":"Observation/6278579e-1eb9-4e69-8d37-6d471de35bbb","resource":{"resourceType":"Observation","id":"6278579e-1eb9-4e69-8d37-6d471de35bbb","meta":{"profile":["http://hl7.org/fhir/us/core/StructureDefinition/us-core-body-height"]},"status":"final","category":[{"coding":[{"system":"http://terminology.hl7.org/CodeSystem/observation-category","code":"vital-signs","display":"Vital Signs"}]}],"code":{"coding":[{"system":"http://loinc.org","code":"8302-2"}]},"subject":{"reference":"Patient/6ee79598-1d80-4fb2-badf-31447c79ef7d"},"effectiveDateTime":"2022-04-30T00:00:00+00:00","valueQuantity":{"value":80.6,"unit":"Inch","system":"http://unitsofmeasure.org","code":"[in_i]"}},"request":{"method":"POST","url":"Observation"}},{"fullUrl":"Observation/656b0686-bfc3-43b5-91ea-6367bc302167","resource":{"resourceType":"Observation","id":"656b0686-bfc3-43b5-91ea-6367bc302167","meta":{"profile":["http://hl7.org/fhir/us/core/StructureDefinition/us-core-body-weight"]},"status":"final","category":[{"coding":[{"system":"http://terminology.hl7.org/CodeSystem/observation-category","code":"vital-signs","display":"Vital Signs"}]}],"code":{"coding":[{"system":"http://loinc.org","code":"29463-7"}]},"subject":{"reference":"Patient/6ee79598-1d80-4fb2-badf-31447c79ef7d"},"effectiveDateTime":"2022-04-07T00:00:00+00:00","valueQuantity":{"value":23.46,"unit":"kilogram","system":"http://unitsofmeasure.org","code":"kg"}},"request":{"method":"POST","url":"Observation"}},{"fullUrl":"Observation/e7d16a48-8741-4db1-93da-22fa61057582","resource":{"resourceType":"Observation","id":"e7d16a48-8741-4db1-93da-22fa61057582","meta":{"profile":["http://hl7.org/fhir/us/core/StructureDefinition/us-core-body-weight"]},"status":"final","category":[{"coding":[{"system":"http://terminology.hl7.org/CodeSystem/observation-category","code":"vital-signs","display":"Vital Signs"}]}],"code":{"coding":[{"system":"http://loinc.org","code":"29463-7"}]},"subject":{"reference":"Patient/6ee79598-1d80-4fb2-badf-31447c79ef7d"},"effectiveDateTime":"2022-04-23T00:00:00+00:00","valueQuantity":{"value":100.92,"unit":"kilogram","system":"http://unitsofmeasure.org","code":"kg"}},"request":{"method":"POST","url":"Observation"}},{"fullUrl":"Observation/7a05131f-8886-4fc8-b6ae-999603dc2c19","resource":{"resourceType":"Observation","id":"7a05131f-8886-4fc8-b6ae-999603dc2c19","meta":{"profile":["http://hl7.org/fhir/us/core/StructureDefinition/us-core-body-temperature"]},"status":"final","category":[{"coding":[{"system":"http://terminology.hl7.org/CodeSystem/observation-category","code":"vital-signs","display":"Vital Signs"}]}],"code":{"coding":[{"system":"http://loinc.org","code":"8310-5"}]},"subject":{"reference":"Patient/6ee79598-1d80-4fb2-badf-31447c79ef7d"},"effectiveDateTime":"2022-07-29T00:00:00+00:00","valueQuantity":{"value":83.11,"unit":"kilogram","system":"http://unitsofmeasure.org","code":"kg"}},"request":{"method":"POST","url":"Observation"}},{"fullUrl":"Observation/863e9ddc-e5aa-4501-86dc-2b23ad886b54","resource":{"resourceType":"Observation","id":"863e9ddc-e5aa-4501-86dc-2b23ad886b54","meta":{"profile":["http://hl7.org/fhir/us/core/StructureDefinition/us-core-body-temperature"]},"status":"final","category":[{"coding":[{"system":"http://terminology.hl7.org/CodeSystem/observation-category","code":"vital-signs","display":"Vital Signs"}]}],"code":{"coding":[{"system":"http://loinc.org","code":"8310-5"}]},"subject":{"reference":"Patient/6ee79598-1d80-4fb2-badf-31447c79ef7d"},"effectiveDateTime":"2022-10-06T00:00:00+00:00","valueQuantity":{"value":21.72,"unit":"kilogram","system":"http://unitsofmeasure.org","code":"kg"}},"request":{"method":"POST","url":"Observation"}},{"fullUrl":"Observation/fdb758e5-f5a5-4cc7-9429-d17691faf70d","resource":{"resourceType":"Observation","id":"fdb758e5-f5a5-4cc7-9429-d17691faf70d","meta":{"profile":["http://hl7.org/fhir/us/core/StructureDefinition/us-core-heart-rate"]},"status":"final","category":[{"coding":[{"system":"http://terminology.hl7.org/CodeSystem/observation-category","code":"vital-signs","display":"Vital Signs"}]}],"code":{"coding":[{"system":"http://loinc.org","code":"8867-4"}]},"subject":{"reference":"Patient/6ee79598-1d80-4fb2-badf-31447c79ef7d"},"effectiveDateTime":"2022-10-06T00:00:00+00:00","valueQuantity":{"value":96.9,"unit":"Degrees Fahrenheit","system":"http://unitsofmeasure.org","code":"[degF]"}},"request":{"method":"POST","url":"Observation"}},{"fullUrl":"Patient/c7691c15-b0f2-48fb-9928-4b87d2c31849","resource":{"resourceType":"Patient","id":"c7691c15-b0f2-48fb-9928-4b87d2c31849","meta":{"profile":["http://hl7.org/fhir/us/core/StructureDefinition/us-core-patient"]},"extension":[{"extension":[{"url":"ombCategory","valueCoding":{"system":"http://terminology.hl7.org/CodeSystem/v3-NullFlavor","code":"ASKU","display":"Asked but no answer"}},{"url":"text","valueString":"Asked but no answer"}],"url":"http://hl7.org/fhir/us/core/StructureDefinition/us-core-race"},{"extension":[{"url":"ombCategory","valueCoding":{"system":"urn:oid:2.16.840.1.113883.6.238","code":"2186-5","display":"Non Hispanic or Latino"}},{"url":"text","valueString":"Non Hispanic or Latino"}],"url":"http://hl7.org/fhir/us/core/StructureDefinition/us-core-ethnicity"}],"identifier":[{"type":{"coding":[{"system":"http://terminology.hl7.org/CodeSystem/v2-0203","code":"MR"}]},"system":"urn:fhirgen:mrn","value":"584-95-8683"}],"name":[{"family":"Strong","given":["Robert"]}],"telecom":[{"system":"phone","value":"(839)389-4895x36612","use":"home"}],"gender":"male","birthDate":"1960-02-05","address":[{"line":["31112 Grant Gateway Suite 596"],"city":"New Kelli","state":"Colorado","postalCode":"14216"}]},"request":{"method":"POST","url":"Patient"}},{"fullUrl":"Observation/45485ce5-f7dc-4281-b9e9-f4528207af2d","resource":{"resourceType":"Observation","id":"45485ce5-f7dc-4281-b9e9-f4528207af2d","meta":{"profile":["http://hl7.org/fhir/us/core/StructureDefinition/us-core-observation-lab"]},"status":"final","category":[{"coding":[{"system":"http://terminology.hl7.org/CodeSystem/observation-category","code":"laboratory","display":"Laboratory"}]}],"code":{"coding":[{"system":"http://loinc.org","code":"46203-6"}]},"subject":{"reference":"Patient/c7691c15-b0f2-48fb-9928-4b87d2c31849"},"effectiveDateTime":"2022-10-02T00:00:00+00:00","valueRatio":{"numerator":{"value":1},"denominator":{"value":32}}},"request":{"method":"POST","url":"Observation"}},{"fullUrl":"Observation/6bb5cda9-692c-43ad-a506-fb068b0c9758","resource":{"resourceType":"Observation","id":"6bb5cda9-692c-43ad-a506-fb068b0c9758","meta":{"profile":["http://hl7.org/fhir/us/core/StructureDefinition/us-core-observation-lab"]},"status":"final","category":[{"coding":[{"system":"http://terminology.hl7.org/CodeSystem/observation-category","code":"laboratory","display":"Laboratory"}]}],"code":{"coding":[{"system":"http://loinc.org","code":"22590-4"}]},"subject":{"reference":"Patient/c7691c15-b0f2-48fb-9928-4b87d2c31849"},"effectiveDateTime":"2022-02-08T00:00:00+00:00","valueRatio":{"numerator":{"value":1},"denominator":{"value":64}}},"request":{"method":"POST","url":"Observation"}},{"fullUrl":"Observation/213b9406-1e4a-41ee-9e75-9714b51666ce","resource":{"resourceType":"Observation","id":"213b9406-1e4a-41ee-9e75-9714b51666ce","meta":{"profile":["http://hl7.org/fhir/us/core/StructureDefinition/us-core-observation-lab"]},"status":"final","category":[{"coding":[{"system":"http://terminology.hl7.org/CodeSystem/observation-category","code":"laboratory","display":"Laboratory"}]}],"code":{"coding":[{"system":"http://loinc.org","code":"47235-7"}]},"subject":{"reference":"Patient/c7691c15-b0f2-48fb-9928-4b87d2c31849"},"effectiveDateTime":"2022-12-12T00:00:00+00:00","valueRatio":{"numerator":{"value":1},"denominator":{"value":4}}},"request":{"method":"POST","url":"Observation"}},{"fullUrl":"Condition/20ea2f80-84bd-4726-ac88-4b8c9e4f63f1","resource":{"resourceType":"Condition","id":"20ea2f80-84bd-4726-ac88-4b8c9e4f63f1","meta":{"profile":["http://hl7.org/fhir/us/core/StructureDefinition/us-core-condition"]},"clinicalStatus":{"coding":[{"system":"http://terminology.hl7.org/CodeSystem/condition-clinical","code":"active","display":"Active"}]},"category":[{"coding":[{"system":"http://terminology.hl7.org/CodeSystem/condition-ver-status","code":"confirmed"}]}],"code":{"coding":[{"system":"http://snomed.info/sct","code":"91554004"}]},"subject":{"reference":"Patient/c7691c15-b0f2-48fb-9928-4b87d2c31849"},"onsetDateTime":"2022-06-09T00:00:00+00:00"},"request":{"method":"POST","url":"Condition"}},{"fullUrl":"Condition/9fa20a4f-5f19-4444-b4f7-54f7eb45f9a7","resource":{"resourceType":"Condition","id":"9fa20a4f-5f19-4444-b4f7-54f7eb45f9a7","meta":{"profile":["http://hl7.org/fhir/us/core/StructureDefinition/us-core-condition"]},"clinicalStatus":{"coding":[{"system":"http://terminology.hl7.org/CodeSystem/condition-clinical","code":"active","display":"Active"}]},"category":[{"coding":[{"system":"http://terminology.hl7.org/CodeSystem/condition-ver-status","code":"confirmed"}]}],"code":{"coding":[{"system":"http://snomed.info/sct","code":"709977002"}]},"subject":{"reference":"Patient/c7691c15-b0f2-48fb-9928-4b87d2c31849"},"onsetDateTime":"2022-07-09T00:00:00+00:00"},"request":{"method":"POST","url":"Condition"}},{"fullUrl":"Condition/b1983289-37a6-4008-815b-f9b6e2378eed","resource":{"resourceType":"Condition","id":"b1983289-37a6-4008-815b-f9b6e2378eed","meta":{"profile":["http://hl7.org/fhir/us/core/StructureDefinition/us-core-condition"]},"clinicalStatus":{"coding":[{"system":"http://terminology.hl7.org/CodeSystem/condition-clinical","code":"active","display":"Active"}]},"category":[{"coding":[{"system":"http://terminology.hl7.org/CodeSystem/condition-ver-status","code":"confirmed"}]}],"code":{"coding":[{"system":"http://snomed.info/sct","code":"91554004"}]},"subject":{"reference":"Patient/c7691c15-b0f2-48fb-9928-4b87d2c31849"},"onsetDateTime":"2022-07-27T00:00:00+00:00"},"request":{"method":"POST","url":"Condition"}},{"fullUrl":"Condition/6f326920-2c81-46f6-bb5d-b1b707f006ed","resource":{"resourceType":"Condition","id":"6f326920-2c81-46f6-bb5d-b1b707f006ed","meta":{"profile":["http://hl7.org/fhir/us/core/StructureDefinition/us-core-condition"]},"clinicalStatus":{"coding":[{"system":"http://terminology.hl7.org/CodeSystem/condition-clinical","code":"active","display":"Active"}]},"category":[{"coding":[{"system":"http://terminology.hl7.org/CodeSystem/condition-ver-status","code":"confirmed"}]}],"code":{"coding":[{"system":"http://snomed.info/sct","code":"418290006"}]},"subject":{"reference":"Patient/c7691c15-b0f2-48fb-9928-4b87d2c31849"},"onsetDateTime":"2022-12-13T00:00:00+00:00"},"request":{"method":"POST","url":"Condition"}},{"fullUrl":"Condition/4f4a2ac1-0cbc-4874-ad67-7ab3df633ddb","resource":{"resourceType":"Condition","id":"4f4a2ac1-0cbc-4874-ad67-7ab3df633ddb","meta":{"profile":["http://hl7.org/fhir/us/core/StructureDefinition/us-core-condition"]},"clinicalStatus":{"coding":[{"system":"http://terminology.hl7.org/CodeSystem/condition-clinical","code":"active","display":"Active"}]},"category":[{"coding":[{"system":"http://terminology.hl7.org/CodeSystem/condition-ver-status","code":"confirmed"}]}],"code":{"coding":[{"system":"http://snomed.info/sct","code":"709977002"}]},"subject":{"reference":"Patient/c7691c15-b0f2-48fb-9928-4b87d2c31849"},"onsetDateTime":"2022-07-16T00:00:00+00:00"},"request":{"method":"POST","url":"Condition"}},{"fullUrl":"Observation/a7728872-3f00-4f79-a2ed-2b10712acf12","resource":{"resourceType":"Observation","id":"a7728872-3f00-4f79-a2ed-2b10712acf12","meta":{"profile":["http://hl7.org/fhir/us/core/StructureDefinition/us-core-observation-lab"]},"status":"final","category":[{"coding":[{"system":"http://terminology.hl7.org/CodeSystem/observation-category","code":"laboratory","display":"Laboratory"}]}],"code":{"coding":[{"system":"http://loinc.org","code":"49498-9"}]},"subject":{"reference":"Patient/c7691c15-b0f2-48fb-9928-4b87d2c31849"},"effectiveDateTime":"2022-06-29T00:00:00+00:00","valueQuantity":{"value":7.7}},"request":{"method":"POST","url":"Observation"}},{"fullUrl":"Observation/e5dd0448-d918-4929-a6c4-06d91f9cd008","resource":{"resourceType":"Observation","id":"e5dd0448-d918-4929-a6c4-06d91f9cd008","meta":{"profile":["http://hl7.org/fhir/us/core/StructureDefinition/us-core-observation-lab"]},"status":"final","category":[{"coding":[{"system":"http://terminology.hl7.org/CodeSystem/observation-category","code":"laboratory","display":"Laboratory"}]}],"code":{"coding":[{"system":"http://loinc.org","code":"49498-9"}]},"subject":{"reference":"Patient/c7691c15-b0f2-48fb-9928-4b87d2c31849"},"effectiveDateTime":"2022-03-04T00:00:00+00:00","valueQuantity":{"value":8.9}},"request":{"method":"POST","url":"Observation"}},{"fullUrl":"Observation/4e0d2a9d-cd40-4ee8-a80e-cb448af18c10","resource":{"resourceType":"Observation","id":"4e0d2a9d-cd40-4ee8-a80e-cb448af18c10","meta":{"profile":["http://hl7.org/fhir/us/core/StructureDefinition/us-core-observation-lab"]},"status":"final","category":[{"coding":[{"system":"http://terminology.hl7.org/CodeSystem/observation-category","code":"laboratory","display":"Laboratory"}]}],"code":{"coding":[{"system":"http://loinc.org","code":"6690-2"}]},"subject":{"reference":"Patient/c7691c15-b0f2-48fb-9928-4b87d2c31849"},"effectiveDateTime":"2022-12-29T00:00:00+00:00","valueQuantity":{"value":10.2}},"request":{"method":"POST","url":"Observation"}},{"fullUrl":"Observation/4d5ad6ec-691e-4d6c-935f-03e685182180","resource":{"resourceType":"Observation","id":"4d5ad6ec-691e-4d6c-935f-03e685182180","meta":{"profile":["http://hl7.org/fhir/us/core/StructureDefinition/us-core-bmi"]},"status":"final","category":[{"coding":[{"system":"http://terminology.hl7.org/CodeSystem/observation-category","code":"vital-signs","display":"Vital Signs"}]}],"code":{"coding":[{"system":"http://loinc.org","code":"39156-5"}]},"subject":{"reference":"Patient/c7691c15-b0f2-48fb-9928-4b87d2c31849"},"effectiveDateTime":"2022-07-21T00:00:00+00:00","valueQuantity":{"value":20.89,"unit":"kg/m2","system":"http://unitsofmeasure.org","code":"kg/m2"}},"request":{"method":"POST","url":"Observation"}},{"fullUrl":"Observation/40cc7db6-b2d0-42da-99aa-fc1d6e6b5b0e","resource":{"resourceType":"Observation","id":"40cc7db6-b2d0-42da-99aa-fc1d6e6b5b0e","meta":{"profile":["http://hl7.org/fhir/us/core/StructureDefinition/us-core-head-circumference"]},"status":"final","category":[{"coding":[{"system":"http://terminology.hl7.org/CodeSystem/observation-category","code":"vital-signs","display":"Vital Signs"}]}],"code":{"coding":[{"system":"http://loinc.org","code":"9843-4"}]},"subject":{"reference":"Patient/c7691c15-b0f2-48fb-9928-4b87d2c31849"},"effectiveDateTime":"2022-09-06T00:00:00+00:00","valueQuantity":{"value":5.4,"unit":"Inch","system":"http://unitsofmeasure.org","code":"[in_i]"}},"request":{"method":"POST","url":"Observation"}},{"fullUrl":"Observation/f5cc70e3-cc38-4984-9f3b-4b77140e30a6","resource":{"resourceType":"Observation","id":"f5cc70e3-cc38-4984-9f3b-4b77140e30a6","meta":{"profile":["http://hl7.org/fhir/us/core/StructureDefinition/us-core-head-circumference"]},"status":"final","category":[{"coding":[{"system":"http://terminology.hl7.org/CodeSystem/observation-category","code":"vital-signs","display":"Vital Signs"}]}],"code":{"coding":[{"system":"http://loinc.org","code":"9843-4"}]},"subject":{"reference":"Patient/c7691c15-b0f2-48fb-9928-4b87d2c31849"},"effectiveDateTime":"2022-10-11T00:00:00+00:00","valueQuantity":{"value":4.8,"unit":"Inch","system":"http://unitsofmeasure.org","code":"[in_i]"}},"request":{"method":"POST","url":"Observation"}},{"fullUrl":"Observation/090a89ca-36f0-4d9f-8768-ffd4ee18c345","resource":{"resourceType":"Observation","id":"090a89ca-36f0-4d9f-8768-ffd4ee18c345","meta":{"profile":["http://hl7.org/fhir/us/core/StructureDefinition/us-core-body-height"]},"status":"final","category":[{"coding":[{"system":"http://terminology.hl7.org/CodeSystem/observation-category","code":"vital-signs","display":"Vital Signs"}]}],"code":{"coding":[{"system":"http://loinc.org","code":"8302-2"}]},"subject":{"reference":"Patient/c7691c15-b0f2-48fb-9928-4b87d2c31849"},"effectiveDateTime":"2022-03-31T00:00:00+00:00","valueQuantity":{"value":74.4,"unit":"Inch","system":"http://unitsofmeasure.org","code":"[in_i]"}},"request":{"method":"POST","url":"Observation"}},{"fullUrl":"Observation/2c089bb3-c491-4c6e-ad8a-a30ab9714257","resource":{"resourceType":"Observation","id":"2c089bb3-c491-4c6e-ad8a-a30ab9714257","meta":{"profile":["http://hl7.org/fhir/us/core/StructureDefinition/us-core-body-weight"]},"status":"final","category":[{"coding":[{"system":"http://terminology.hl7.org/CodeSystem/observation-category","code":"vital-signs","display":"Vital Signs"}]}],"code":{"coding":[{"system":"http://loinc.org","code":"29463-7"}]},"subject":{"reference":"Patient/c7691c15-b0f2-48fb-9928-4b87d2c31849"},"effectiveDateTime":"2022-04-01T00:00:00+00:00","valueQuantity":{"value":134.07,"unit":"kilogram","system":"http://unitsofmeasure.org","code":"kg"}},"request":{"method":"POST","url":"Observation"}},{"fullUrl":"Observation/e170b356-7451-4502-b4b1-8df1f999c32f","resource":{"resourceType":"Observation","id":"e170b356-7451-4502-b4b1-8df1f999c32f","meta":{"profile":["http://hl7.org/fhir/us/core/StructureDefinition/us-core-body-temperature"]},"status":"final","category":[{"coding":[{"system":"http://terminology.hl7.org/CodeSystem/observation-category","code":"vital-signs","display":"Vital Signs"}]}],"code":{"coding":[{"system":"http://loinc.org","code":"8310-5"}]},"subject":{"reference":"Patient/c7691c15-b0f2-48fb-9928-4b87d2c31849"},"effectiveDateTime":"2022-03-02T00:00:00+00:00","valueQuantity":{"value":46.75,"unit":"kilogram","system":"http://unitsofmeasure.org","code":"kg"}},"request":{"method":"POST","url":"Observation"}},{"fullUrl":"Observation/1b591962-fd89-4dd6-87c7-3466d78407ca","resource":{"resourceType":"Observation","id":"1b591962-fd89-4dd6-87c7-3466d78407ca","meta":{"profile":["http://hl7.org/fhir/us/core/StructureDefinition/us-core-heart-rate"]},"status":"final","category":[{"coding":[{"system":"http://terminology.hl7.org/CodeSystem/observation-category","code":"vital-signs","display":"Vital Signs"}]}],"code":{"coding":[{"system":"http://loinc.org","code":"8867-4"}]},"subject":{"reference":"Patient/c7691c15-b0f2-48fb-9928-4b87d2c31849"},"effectiveDateTime":"2022-06-19T00:00:00+00:00","valueQuantity":{"value":99.5,"unit":"Degrees Fahrenheit","system":"http://unitsofmeasure.org","code":"[degF]"}},"request":{"method":"POST","url":"Observation"}},{"fullUrl":"Patient/cdb23ce3-7db6-44d6-a007-a96a71361b9a","resource":{"resourceType":"Patient","id":"cdb23ce3-7db6-44d6-a007-a96a71361b9a","meta":{"profile":["http://hl7.org/fhir/us/core/StructureDefinition/us-core-patient"]},"extension":[{"extension":[{"url":"ombCategory","valueCoding":{"system":"http://terminology.hl7.org/CodeSystem/v3-NullFlavor","code":"ASKU","display":"Asked but no answer"}},{"url":"text","valueString":"Asked but no answer"}],"url":"http://hl7.org/fhir/us/core/StructureDefinition/us-core-race"},{"extension":[{"url":"ombCategory","valueCoding":{"system":"urn:oid:2.16.840.1.113883.6.238","code":"2186-5","display":"Non Hispanic or Latino"}},{"url":"text","valueString":"Non Hispanic or Latino"}],"url":"http://hl7.org/fhir/us/core/StructureDefinition/us-core-ethnicity"}],"identifier":[{"type":{"coding":[{"system":"http://terminology.hl7.org/CodeSystem/v2-0203","code":"MR"}]},"system":"urn:fhirgen:mrn","value":"802-59-2860"}],"name":[{"family":"Rivers","given":["Shannon"]}],"telecom":[{"system":"phone","value":"(428)182-5103x9768","use":"home"}],"gender":"female","birthDate":"1997-03-11","address":[{"line":["61989 Brian Throughway Apt. 055"],"city":"South William","state":"Pennsylvania","postalCode":"23438"}]},"request":{"method":"POST","url":"Patient"}},{"fullUrl":"Observation/e5a0693f-ff9d-478d-ba1c-ffd9bcffa6ad","resource":{"resourceType":"Observation","id":"e5a0693f-ff9d-478d-ba1c-ffd9bcffa6ad","meta":{"profile":["http://hl7.org/fhir/us/core/StructureDefinition/us-core-observation-lab"]},"status":"final","category":[{"coding":[{"system":"http://terminology.hl7.org/CodeSystem/observation-category","code":"laboratory","display":"Laboratory"}]}],"code":{"coding":[{"system":"http://loinc.org","code":"87925-4"}]},"subject":{"reference":"Patient/cdb23ce3-7db6-44d6-a007-a96a71361b9a"},"effectiveDateTime":"2022-05-28T00:00:00+00:00","valueRatio":{"numerator":{"value":1},"denominator":{"value":32}}},"request":{"method":"POST","url":"Observation"}},{"fullUrl":"Observation/3342cb23-9743-44f7-a725-768e09601aba","resource":{"resourceType":"Observation","id":"3342cb23-9743-44f7-a725-768e09601aba","meta":{"profile":["http://hl7.org/fhir/us/core/StructureDefinition/us-core-observation-lab"]},"status":"final","category":[{"coding":[{"system":"http://terminology.hl7.org/CodeSystem/observation-category","code":"laboratory","display":"Laboratory"}]}],"code":{"coding":[{"system":"http://loinc.org","code":"46203-6"}]},"subject":{"reference":"Patient/cdb23ce3-7db6-44d6-a007-a96a71361b9a"},"effectiveDateTime":"2022-04-03T00:00:00+00:00","valueRatio":{"numerator":{"value":1},"denominator":{"value":4}}},"request":{"method":"POST","url":"Observation"}},{"fullUrl":"Observation/ba3982c3-520d-40e1-bd47-abfceeea7e19","resource":{"resourceType":"Observation","id":"ba3982c3-520d-40e1-bd47-abfceeea7e19","meta":{"profile":["http://hl7.org/fhir/us/core/StructureDefinition/us-core-observation-lab"]},"status":"final","category":[{"coding":[{"system":"http://terminology.hl7.org/CodeSystem/observation-category","code":"laboratory","display":"Laboratory"}]}],"code":{"coding":[{"system":"http://loinc.org","code":"22590-4"}]},"subject":{"reference":"Patient/cdb23ce3-7db6-44d6-a007-a96a71361b9a"},"effectiveDateTime":"2022-05-21T00:00:00+00:00","valueRatio":{"numerator":{"value":1},"denominator":{"value":4}}},"request":{"method":"POST","url":"Observation"}},{"fullUrl":"Condition/decf1a51-f68f-4374-a9c2-637d5dab2fd7","resource":{"resourceType":"Condition","id":"decf1a51-f68f-4374-a9c2-637d5dab2fd7","meta":{"profile":["http://hl7.org/fhir/us/core/StructureDefinition/us-core-condition"]},"clinicalStatus":{"coding":[{"system":"http://terminology.hl7.org/CodeSystem/condition-clinical","code":"active","display":"Active"}]},"category":[{"coding":[{"system":"http://terminology.hl7.org/CodeSystem/condition-ver-status","code":"confirmed"}]}],"code":{"coding":[{"system":"http://snomed.info/sct","code":"709977002"}]},"subject":{"reference":"Patient/cdb23ce3-7db6-44d6-a007-a96a71361b9a"},"onsetDateTime":"2022-11-05T00:00:00+00:00"},"request":{"method":"POST","url":"Condition"}},{"fullUrl":"Condition/bd0c7e01-a844-4b14-929e-3137e2d47046","resource":{"resourceType":"Condition","id":"bd0c7e01-a844-4b14-929e-3137e2d47046","meta":{"profile":["http://hl7.org/fhir/us/core/StructureDefinition/us-core-condition"]},"clinicalStatus":{"coding":[{"system":"http://terminology.hl7.org/CodeSystem/condition-clinical","code":"active","display":"Active"}]},"category":[{"coding":[{"system":"http://terminology.hl7.org/CodeSystem/condition-ver-status","code":"confirmed"}]}],"code":{"coding":[{"system":"http://snomed.info/sct","code":"91554004"}]},"subject":{"reference":"Patient/cdb23ce3-7db6-44d6-a007-a96a71361b9a"},"onsetDateTime":"2022-07-30T00:00:00+00:00"},"request":{"method":"POST","url":"Condition"}},{"fullUrl":"Condition/cfc206aa-9bff-4edb-b8b8-d9f96d809b4d","resource":{"resourceType":"Condition","id":"cfc206aa-9bff-4edb-b8b8-d9f96d809b4d","meta":{"profile":["http://hl7.org/fhir/us/core/StructureDefinition/us-core-condition"]},"clinicalStatus":{"coding":[{"system":"http://terminology.hl7.org/CodeSystem/condition-clinical","code":"active","display":"Active"}]},"category":[{"coding":[{"system":"http://terminology.hl7.org/CodeSystem/condition-ver-status","code":"confirmed"}]}],"code":{"coding":[{"system":"http://snomed.info/sct","code":"91554004"}]},"subject":{"reference":"Patient/cdb23ce3-7db6-44d6-a007-a96a71361b9a"},"onsetDateTime":"2022-06-15T00:00:00+00:00"},"request":{"method":"POST","url":"Condition"}},{"fullUrl":"Condition/68375d6e-9f69-4a32-b3d3-a4b0c7a7c7a5","resource":{"resourceType":"Condition","id":"68375d6e-9f69-4a32-b3d3-a4b0c7a7c7a5","meta":{"profile":["http://hl7.org/fhir/us/core/StructureDefinition/us-core-condition"]},"clinicalStatus":{"coding":[{"system":"http://terminology.hl7.org/CodeSystem/condition-clinical","code":"active","display":"Active"}]},"category":[{"coding":[{"system":"http://terminology.hl7.org/CodeSystem/condition-ver-status","code":"confirmed"}]}],"code":{"coding":[{"system":"http://snomed.info/sct","code":"44882003"}]},"subject":{"reference":"Patient/cdb23ce3-7db6-44d6-a007-a96a71361b9a"},"onsetDateTime":"2022-04-12T00:00:00+00:00"},"request":{"method":"POST","url":"Condition"}},{"fullUrl":"Condition/69e38406-e83d-4ba9-ac44-564213fdff49","resource":{"resourceType":"Condition","id":"69e38406-e83d-4ba9-ac44-564213fdff49","meta":{"profile":["http://hl7.org/fhir/us/core/StructureDefinition/us-core-condition"]},"clinicalStatus":{"coding":[{"system":"http://terminology.hl7.org/CodeSystem/condition-clinical","code":"active","display":"Active"}]},"category":[{"coding":[{"system":"http://terminology.hl7.org/CodeSystem/condition-ver-status","code":"confirmed"}]}],"code":{"coding":[{"system":"http://snomed.info/sct","code":"709977002"}]},"subject":{"reference":"Patient/cdb23ce3-7db6-44d6-a007-a96a71361b9a"},"onsetDateTime":"2022-05-16T00:00:00+00:00"},"request":{"method":"POST","url":"Condition"}},{"fullUrl":"Observation/822210f6-19c4-49cd-a986-3d6a7b95a5d0","resource":{"resourceType":"Observation","id":"822210f6-19c4-49cd-a986-3d6a7b95a5d0","meta":{"profile":["http://hl7.org/fhir/us/core/StructureDefinition/us-core-observation-lab"]},"status":"final","category":[{"coding":[{"system":"http://terminology.hl7.org/CodeSystem/observation-category","code":"laboratory","display":"Laboratory"}]}],"code":{"coding":[{"system":"http://loinc.org","code":"26464-8"}]},"subject":{"reference":"Patient/cdb23ce3-7db6-44d6-a007-a96a71361b9a"},"effectiveDateTime":"2022-09-12T00:00:00+00:00","valueQuantity":{"value":8.1}},"request":{"method":"POST","url":"Observation"}},{"fullUrl":"Observation/22c10150-868c-4a22-9e92-85113fd223e4","resource":{"resourceType":"Observation","id":"22c10150-868c-4a22-9e92-85113fd223e4","meta":{"profile":["http://hl7.org/fhir/us/core/StructureDefinition/us-core-observation-lab"]},"status":"final","category":[{"coding":[{"system":"http://terminology.hl7.org/CodeSystem/observation-category","code":"laboratory","display":"Laboratory"}]}],"code":{"coding":[{"system":"http://loinc.org","code":"26464-8"}]},"subject":{"reference":"Patient/cdb23ce3-7db6-44d6-a007-a96a71361b9a"},"effectiveDateTime":"2022-02-18T00:00:00+00:00","valueQuantity":{"value":9.4}},"request":{"method":"POST","url":"Observation"}},{"fullUrl":"Observation/aab6deae-6ef4-45db-90e6-2584e32e0e59","resource":{"resourceType":"Observation","id":"aab6deae-6ef4-45db-90e6-2584e32e0e59","meta":{"profile":["http://hl7.org/fhir/us/core/StructureDefinition/us-core-observation-lab"]},"status":"final","category":[{"coding":[{"system":"http://terminology.hl7.org/CodeSystem/observation-category","code":"laboratory","display":"Laboratory"}]}],"code":{"coding":[{"system":"http://loinc.org","code":"804-5"}]},"subject":{"reference":"Patient/cdb23ce3-7db6-44d6-a007-a96a71361b9a"},"effectiveDateTime":"2022-11-15T00:00:00+00:00","valueQuantity":{"value":10.7}},"request":{"method":"POST","url":"Observation"}},{"fullUrl":"Observation/fc131aea-b571-4b36-ade7-59beff7ad77b","resource":{"resourceType":"Observation","id":"fc131aea-b571-4b36-ade7-59beff7ad77b","meta":{"profile":["http://hl7.org/fhir/us/core/StructureDefinition/us-core-bmi"]},"status":"final","category":[{"coding":[{"system":"http://terminology.hl7.org/CodeSystem/observation-category","code":"vital-signs","display":"Vital Signs"}]}],"code":{"coding":[{"system":"http://loinc.org","code":"39156-5"}]},"subject":{"reference":"Patient/cdb23ce3-7db6-44d6-a007-a96a71361b9a"},"effectiveDateTime":"2022-06-30T00:00:00+00:00","valueQuantity":{"value":23.19,"unit":"kg/m2","system":"http://unitsofmeasure.org","code":"kg/m2"}},"request":{"method":"POST","url":"Observation"}},{"fullUrl":"Observation/7a21986c-f447-4f4f-a7e7-4656c9c59dba","resource":{"resourceType":"Observation","id":"7a21986c-f447-4f4f-a7e7-4656c9c59dba","meta":{"profile":["http://hl7.org/fhir/us/core/StructureDefinition/us-core-head-circumference"]},"status":"final","category":[{"coding":[{"system":"http://terminology.hl7.org/CodeSystem/observation-category","code":"vital-signs","display":"Vital Signs"}]}],"code":{"coding":[{"system":"http://loinc.org","code":"9843-4"}]},"subject":{"reference":"Patient/cdb23ce3-7db6-44d6-a007-a96a71361b9a"},"effectiveDateTime":"2022-07-24T00:00:00+00:00","valueQuantity":{"value":6.3,"unit":"Inch","system":"http://unitsofmeasure.org","code":"[in_i]"}},"request":{"method":"POST","url":"Observation"}},{"fullUrl":"Observation/1f46662b-8f70-44cd-b0ab-3b6c16b98052","resource":{"resourceType":"Observation","id":"1f46662b-8f70-44cd-b0ab-3b6c16b98052","meta":{"profile":["http://hl7.org/fhir/us/core/StructureDefinition/us-core-body-height"]},"status":"final","category":[{"coding":[{"system":"http://terminology.hl7.org/CodeSystem/observation-category","code":"vital-signs","display":"Vital Signs"}]}],"code":{"coding":[{"system":"http://loinc.org","code":"8302-2"}]},"subject":{"reference":"Patient/cdb23ce3-7db6-44d6-a007-a96a71361b9a"},"effectiveDateTime":"2022-09-04T00:00:00+00:00","valueQuantity":{"value":71.7,"unit":"Inch","system":"http://unitsofmeasure.org","code":"[in_i]"}},"request":{"method":"POST","url":"Observation"}},{"fullUrl":"Observation/091e1339-3946-45ee-b713-5379bc7b15e8","resource":{"resourceType":"Observation","id":"091e1339-3946-45ee-b713-5379bc7b15e8","meta":{"profile":["http://hl7.org/fhir/us/core/StructureDefinition/us-core-body-height"]},"status":"final","category":[{"coding":[{"system":"http://terminology.hl7.org/CodeSystem/observation-category","code":"vital-signs","display":"Vital Signs"}]}],"code":{"coding":[{"system":"http://loinc.org","code":"8302-2"}]},"subject":{"reference":"Patient/cdb23ce3-7db6-44d6-a007-a96a71361b9a"},"effectiveDateTime":"2022-09-01T00:00:00+00:00","valueQuantity":{"value":80.1,"unit":"Inch","system":"http://unitsofmeasure.org","code":"[in_i]"}},"request":{"method":"POST","url":"Observation"}},{"fullUrl":"Observation/e16887e6-732c-4e76-a618-cf161fc3c715","resource":{"resourceType":"Observation","id":"e16887e6-732c-4e76-a618-cf161fc3c715","meta":{"profile":["http://hl7.org/fhir/us/core/StructureDefinition/us-core-body-weight"]},"status":"final","category":[{"coding":[{"system":"http://terminology.hl7.org/CodeSystem/observation-category","code":"vital-signs","display":"Vital Signs"}]}],"code":{"coding":[{"system":"http://loinc.org","code":"29463-7"}]},"subject":{"reference":"Patient/cdb23ce3-7db6-44d6-a007-a96a71361b9a"},"effectiveDateTime":"2022-01-18T00:00:00+00:00","valueQuantity":{"value":133.71,"unit":"kilogram","system":"http://unitsofmeasure.org","code":"kg"}},"request":{"method":"POST","url":"Observation"}},{"fullUrl":"Observation/7cd78912-70d0-4c39-a1ed-b49d1e45840b","resource":{"resourceType":"Observation","id":"7cd78912-70d0-4c39-a1ed-b49d1e45840b","meta":{"profile":["http://hl7.org/fhir/us/core/StructureDefinition/us-core-body-temperature"]},"status":"final","category":[{"coding":[{"system":"http://terminology.hl7.org/CodeSystem/observation-category","code":"vital-signs","display":"Vital Signs"}]}],"code":{"coding":[{"system":"http://loinc.org","code":"8310-5"}]},"subject":{"reference":"Patient/cdb23ce3-7db6-44d6-a007-a96a71361b9a"},"effectiveDateTime":"2022-05-04T00:00:00+00:00","valueQuantity":{"value":138.75,"unit":"kilogram","system":"http://unitsofmeasure.org","code":"kg"}},"request":{"method":"POST","url":"Observation"}},{"fullUrl":"Observation/1d084f41-20d6-45ec-ba2c-e1e628e848a1","resource":{"resourceType":"Observation","id":"1d084f41-20d6-45ec-ba2c-e1e628e848a1","meta":{"profile":["http://hl7.org/fhir/us/core/StructureDefinition/us-core-heart-rate"]},"status":"final","category":[{"coding":[{"system":"http://terminology.hl7.org/CodeSystem/observation-category","code":"vital-signs","display":"Vital Signs"}]}],"code":{"coding":[{"system":"http://loinc.org","code":"8867-4"}]},"subject":{"reference":"Patient/cdb23ce3-7db6-44d6-a007-a96a71361b9a"},"effectiveDateTime":"2022-07-16T00:00:00+00:00","valueQuantity":{"value":101.8,"unit":"Degrees Fahrenheit","system":"http://unitsofmeasure.org","code":"[degF]"}},"request":{"method":"POST","url":"Observation"}},{"fullUrl":"Observation/ac65a958-85d1-4b8e-95ef-9bb2baffef70","resource":{"resourceType":"Observation","id":"ac65a958-85d1-4b8e-95ef-9bb2baffef70","meta":{"profile":["http://hl7.org/fhir/us/core/StructureDefinition/us-core-heart-rate"]},"status":"final","category":[{"coding":[{"system":"http://terminology.hl7.org/CodeSystem/observation-category","code":"vital-signs","display":"Vital Signs"}]}],"code":{"coding":[{"system":"http://loinc.org","code":"8867-4"}]},"subject":{"reference":"Patient/cdb23ce3-7db6-44d6-a007-a96a71361b9a"},"effectiveDateTime":"2022-08-18T00:00:00+00:00","valueQuantity":{"value":97.1,"unit":"Degrees Fahrenheit","system":"http://unitsofmeasure.org","code":"[degF]"}},"request":{"method":"POST","url":"Observation"}},{"fullUrl":"Patient/7b04a672-aed7-4b76-b108-b11ae3375b38","resource":{"resourceType":"Patient","id":"7b04a672-aed7-4b76-b108-b11ae3375b38","meta":{"profile":["http://hl7.org/fhir/us/core/StructureDefinition/us-core-patient"]},"extension":[{"extension":[{"url":"ombCategory","valueCoding":{"system":"http://terminology.hl7.org/CodeSystem/v3-NullFlavor","code":"UNK","display":"Unknonw"}},{"url":"text","valueString":"Unknonw"}],"url":"http://hl7.org/fhir/us/core/StructureDefinition/us-core-race"},{"extension":[{"url":"ombCategory","valueCoding":{"system":"urn:oid:2.16.840.1.113883.6.238","code":"2186-5","display":"Non Hispanic or Latino"}},{"url":"text","valueString":"Non Hispanic or Latino"}],"url":"http://hl7.org/fhir/us/core/StructureDefinition/us-core-ethnicity"}],"identifier":[{"type":{"coding":[{"system":"http://terminology.hl7.org/CodeSystem/v2-0203","code":"MR"}]},"system":"urn:fhirgen:mrn","value":"344-18-6745"}],"name":[{"family":"Burnett","given":["Sara"]}],"telecom":[{"system":"phone","value":"001-241-857-4678x975","use":"home"}],"gender":"female","birthDate":"1964-07-23","address":[{"line":["85726 Brandon Island"],"city":"Port Jesus","state":"Vermont","postalCode":"17783"}]},"request":{"method":"POST","url":"Patient"}},{"fullUrl":"Observation/4b8ae15a-61ad-4a65-bafc-9545bd540306","resource":{"resourceType":"Observation","id":"4b8ae15a-61ad-4a65-bafc-9545bd540306","meta":{"profile":["http://hl7.org/fhir/us/core/StructureDefinition/us-core-observation-lab"]},"status":"final","category":[{"coding":[{"system":"http://terminology.hl7.org/CodeSystem/observation-category","code":"laboratory","display":"Laboratory"}]}],"code":{"coding":[{"system":"http://loinc.org","code":"50695-6"}]},"subject":{"reference":"Patient/7b04a672-aed7-4b76-b108-b11ae3375b38"},"effectiveDateTime":"2022-11-20T00:00:00+00:00","valueRatio":{"numerator":{"value":1},"denominator":{"value":4}}},"request":{"method":"POST","url":"Observation"}},{"fullUrl":"Observation/52147f0b-d1ce-4703-b788-59ec6b996a2d","resource":{"resourceType":"Observation","id":"52147f0b-d1ce-4703-b788-59ec6b996a2d","meta":{"profile":["http://hl7.org/fhir/us/core/StructureDefinition/us-core-observation-lab"]},"status":"final","category":[{"coding":[{"system":"http://terminology.hl7.org/CodeSystem/observation-category","code":"laboratory","display":"Laboratory"}]}],"code":{"coding":[{"system":"http://loinc.org","code":"26009-1"}]},"subject":{"reference":"Patient/7b04a672-aed7-4b76-b108-b11ae3375b38"},"effectiveDateTime":"2022-01-03T00:00:00+00:00","valueRatio":{"numerator":{"value":1},"denominator":{"value":32}}},"request":{"method":"POST","url":"Observation"}},{"fullUrl":"Observation/2d885e42-d28b-44b8-8bc8-3e5d9dba45c0","resource":{"resourceType":"Observation","id":"2d885e42-d28b-44b8-8bc8-3e5d9dba45c0","meta":{"profile":["http://hl7.org/fhir/us/core/StructureDefinition/us-core-observation-lab"]},"status":"final","category":[{"coding":[{"system":"http://terminology.hl7.org/CodeSystem/observation-category","code":"laboratory","display":"Laboratory"}]}],"code":{"coding":[{"system":"http://loinc.org","code":"50695-6"}]},"subject":{"reference":"Patient/7b04a672-aed7-4b76-b108-b11ae3375b38"},"effectiveDateTime":"2022-06-09T00:00:00+00:00","valueRatio":{"numerator":{"value":1},"denominator":{"value":4}}},"request":{"method":"POST","url":"Observation"}},{"fullUrl":"Condition/45ab7db0-73bf-494e-b22f-47224ce9f98f","resource":{"resourceType":"Condition","id":"45ab7db0-73bf-494e-b22f-47224ce9f98f","meta":{"profile":["http://hl7.org/fhir/us/core/StructureDefinition/us-core-condition"]},"clinicalStatus":{"coding":[{"system":"http://terminology.hl7.org/CodeSystem/condition-clinical","code":"active","display":"Active"}]},"category":[{"coding":[{"system":"http://terminology.hl7.org/CodeSystem/condition-ver-status","code":"confirmed"}]}],"code":{"coding":[{"system":"http://snomed.info/sct","code":"709977002"}]},"subject":{"reference":"Patient/7b04a672-aed7-4b76-b108-b11ae3375b38"},"onsetDateTime":"2022-11-08T00:00:00+00:00"},"request":{"method":"POST","url":"Condition"}},{"fullUrl":"Condition/0115b943-62b6-484a-ab84-c2589e173e9f","resource":{"resourceType":"Condition","id":"0115b943-62b6-484a-ab84-c2589e173e9f","meta":{"profile":["http://hl7.org/fhir/us/core/StructureDefinition/us-core-condition"]},"clinicalStatus":{"coding":[{"system":"http://terminology.hl7.org/CodeSystem/condition-clinical","code":"active","display":"Active"}]},"category":[{"coding":[{"system":"http://terminology.hl7.org/CodeSystem/condition-ver-status","code":"confirmed"}]}],"code":{"coding":[{"system":"http://snomed.info/sct","code":"418290006"}]},"subject":{"reference":"Patient/7b04a672-aed7-4b76-b108-b11ae3375b38"},"onsetDateTime":"2022-02-24T00:00:00+00:00"},"request":{"method":"POST","url":"Condition"}},{"fullUrl":"Condition/0cb2579b-70dd-44be-a99a-ff22bb6e58e9","resource":{"resourceType":"Condition","id":"0cb2579b-70dd-44be-a99a-ff22bb6e58e9","meta":{"profile":["http://hl7.org/fhir/us/core/StructureDefinition/us-core-condition"]},"clinicalStatus":{"coding":[{"system":"http://terminology.hl7.org/CodeSystem/condition-clinical","code":"active","display":"Active"}]},"category":[{"coding":[{"system":"http://terminology.hl7.org/CodeSystem/condition-ver-status","code":"confirmed"}]}],"code":{"coding":[{"system":"http://snomed.info/sct","code":"418290006"}]},"subject":{"reference":"Patient/7b04a672-aed7-4b76-b108-b11ae3375b38"},"onsetDateTime":"2022-09-09T00:00:00+00:00"},"request":{"method":"POST","url":"Condition"}},{"fullUrl":"Condition/6652cca7-de82-46ee-adf4-63446e9774ba","resource":{"resourceType":"Condition","id":"6652cca7-de82-46ee-adf4-63446e9774ba","meta":{"profile":["http://hl7.org/fhir/us/core/StructureDefinition/us-core-condition"]},"clinicalStatus":{"coding":[{"system":"http://terminology.hl7.org/CodeSystem/condition-clinical","code":"active","display":"Active"}]},"category":[{"coding":[{"system":"http://terminology.hl7.org/CodeSystem/condition-ver-status","code":"confirmed"}]}],"code":{"coding":[{"system":"http://snomed.info/sct","code":"736686006"}]},"subject":{"reference":"Patient/7b04a672-aed7-4b76-b108-b11ae3375b38"},"onsetDateTime":"2022-06-14T00:00:00+00:00"},"request":{"method":"POST","url":"Condition"}},{"fullUrl":"Condition/72272078-8245-4f5d-81e3-d71bd0ec83b0","resource":{"resourceType":"Condition","id":"72272078-8245-4f5d-81e3-d71bd0ec83b0","meta":{"profile":["http://hl7.org/fhir/us/core/StructureDefinition/us-core-condition"]},"clinicalStatus":{"coding":[{"system":"http://terminology.hl7.org/CodeSystem/condition-clinical","code":"active","display":"Active"}]},"category":[{"coding":[{"system":"http://terminology.hl7.org/CodeSystem/condition-ver-status","code":"confirmed"}]}],"code":{"coding":[{"system":"http://snomed.info/sct","code":"44882003"}]},"subject":{"reference":"Patient/7b04a672-aed7-4b76-b108-b11ae3375b38"},"onsetDateTime":"2022-01-15T00:00:00+00:00"},"request":{"method":"POST","url":"Condition"}},{"fullUrl":"Observation/b4dfb200-d48a-4bd3-904a-58d4ddb4a87e","resource":{"resourceType":"Observation","id":"b4dfb200-d48a-4bd3-904a-58d4ddb4a87e","meta":{"profile":["http://hl7.org/fhir/us/core/StructureDefinition/us-core-observation-lab"]},"status":"final","category":[{"coding":[{"system":"http://terminology.hl7.org/CodeSystem/observation-category","code":"laboratory","display":"Laboratory"}]}],"code":{"coding":[{"system":"http://www.ama-assn.org/go/cpt","code":"85048"}]},"subject":{"reference":"Patient/7b04a672-aed7-4b76-b108-b11ae3375b38"},"effectiveDateTime":"2022-11-13T00:00:00+00:00","valueQuantity":{"value":6.2}},"request":{"method":"POST","url":"Observation"}},{"fullUrl":"Observation/0fe751c4-52f1-47e8-b032-d5e14bc6dcde","resource":{"resourceType":"Observation","id":"0fe751c4-52f1-47e8-b032-d5e14bc6dcde","meta":{"profile":["http://hl7.org/fhir/us/core/StructureDefinition/us-core-observation-lab"]},"status":"final","category":[{"coding":[{"system":"http://terminology.hl7.org/CodeSystem/observation-category","code":"laboratory","display":"Laboratory"}]}],"code":{"coding":[{"system":"http://loinc.org","code":"49498-9"}]},"subject":{"reference":"Patient/7b04a672-aed7-4b76-b108-b11ae3375b38"},"effectiveDateTime":"2022-12-21T00:00:00+00:00","valueQuantity":{"value":6}},"request":{"method":"POST","url":"Observation"}},{"fullUrl":"Observation/e2ddbf9e-b1d1-4a5f-bd44-0c4cd8d23dfc","resource":{"resourceType":"Observation","id":"e2ddbf9e-b1d1-4a5f-bd44-0c4cd8d23dfc","meta":{"profile":["http://hl7.org/fhir/us/core/StructureDefinition/us-core-bmi"]},"status":"final","category":[{"coding":[{"system":"http://terminology.hl7.org/CodeSystem/observation-category","code":"vital-signs","display":"Vital Signs"}]}],"code":{"coding":[{"system":"http://loinc.org","code":"39156-5"}]},"subject":{"reference":"Patient/7b04a672-aed7-4b76-b108-b11ae3375b38"},"effectiveDateTime":"2022-12-31T00:00:00+00:00","valueQuantity":{"value":13.15,"unit":"kg/m2","system":"http://unitsofmeasure.org","code":"kg/m2"}},"request":{"method":"POST","url":"Observation"}},{"fullUrl":"Observation/5fa1d685-e1c7-49bf-9cf7-32b5b6390ca5","resource":{"resourceType":"Observation","id":"5fa1d685-e1c7-49bf-9cf7-32b5b6390ca5","meta":{"profile":["http://hl7.org/fhir/us/core/StructureDefinition/us-core-head-circumference"]},"status":"final","category":[{"coding":[{"system":"http://terminology.hl7.org/CodeSystem/observation-category","code":"vital-signs","display":"Vital Signs"}]}],"code":{"coding":[{"system":"http://loinc.org","code":"9843-4"}]},"subject":{"reference":"Patient/7b04a672-aed7-4b76-b108-b11ae3375b38"},"effectiveDateTime":"2022-05-27T00:00:00+00:00","valueQuantity":{"value":6.7,"unit":"Inch","system":"http://unitsofmeasure.org","code":"[in_i]"}},"request":{"method":"POST","url":"Observation"}},{"fullUrl":"Observation/33c36c1d-6b12-4b88-828e-b0549344d223","resource":{"resourceType":"Observation","id":"33c36c1d-6b12-4b88-828e-b0549344d223","meta":{"profile":["http://hl7.org/fhir/us/core/StructureDefinition/us-core-body-height"]},"status":"final","category":[{"coding":[{"system":"http://terminology.hl7.org/CodeSystem/observation-category","code":"vital-signs","display":"Vital Signs"}]}],"code":{"coding":[{"system":"http://loinc.org","code":"8302-2"}]},"subject":{"reference":"Patient/7b04a672-aed7-4b76-b108-b11ae3375b38"},"effectiveDateTime":"2022-06-28T00:00:00+00:00","valueQuantity":{"value":81.8,"unit":"Inch","system":"http://unitsofmeasure.org","code":"[in_i]"}},"request":{"method":"POST","url":"Observation"}},{"fullUrl":"Observation/f379e45b-535a-4fb4-a7d4-352af8828b44","resource":{"resourceType":"Observation","id":"f379e45b-535a-4fb4-a7d4-352af8828b44","meta":{"profile":["http://hl7.org/fhir/us/core/StructureDefinition/us-core-body-weight"]},"status":"final","category":[{"coding":[{"system":"http://terminology.hl7.org/CodeSystem/observation-category","code":"vital-signs","display":"Vital Signs"}]}],"code":{"coding":[{"system":"http://loinc.org","code":"29463-7"}]},"subject":{"reference":"Patient/7b04a672-aed7-4b76-b108-b11ae3375b38"},"effectiveDateTime":"2022-01-04T00:00:00+00:00","valueQuantity":{"value":125.45,"unit":"kilogram","system":"http://unitsofmeasure.org","code":"kg"}},"request":{"method":"POST","url":"Observation"}},{"fullUrl":"Observation/c4a1d012-6a79-4229-858f-e845d1f3d9cf","resource":{"resourceType":"Observation","id":"c4a1d012-6a79-4229-858f-e845d1f3d9cf","meta":{"profile":["http://hl7.org/fhir/us/core/StructureDefinition/us-core-body-weight"]},"status":"final","category":[{"coding":[{"system":"http://terminology.hl7.org/CodeSystem/observation-category","code":"vital-signs","display":"Vital Signs"}]}],"code":{"coding":[{"system":"http://loinc.org","code":"29463-7"}]},"subject":{"reference":"Patient/7b04a672-aed7-4b76-b108-b11ae3375b38"},"effectiveDateTime":"2022-07-21T00:00:00+00:00","valueQuantity":{"value":142.72,"unit":"kilogram","system":"http://unitsofmeasure.org","code":"kg"}},"request":{"method":"POST","url":"Observation"}},{"fullUrl":"Observation/3e9a1420-62c5-4069-9c94-b95d7dec05db","resource":{"resourceType":"Observation","id":"3e9a1420-62c5-4069-9c94-b95d7dec05db","meta":{"profile":["http://hl7.org/fhir/us/core/StructureDefinition/us-core-body-temperature"]},"status":"final","category":[{"coding":[{"system":"http://terminology.hl7.org/CodeSystem/observation-category","code":"vital-signs","display":"Vital Signs"}]}],"code":{"coding":[{"system":"http://loinc.org","code":"8310-5"}]},"subject":{"reference":"Patient/7b04a672-aed7-4b76-b108-b11ae3375b38"},"effectiveDateTime":"2022-03-10T00:00:00+00:00","valueQuantity":{"value":106.71,"unit":"kilogram","system":"http://unitsofmeasure.org","code":"kg"}},"request":{"method":"POST","url":"Observation"}},{"fullUrl":"Observation/afbec49e-94c1-4f6e-85d6-b6904265ed25","resource":{"resourceType":"Observation","id":"afbec49e-94c1-4f6e-85d6-b6904265ed25","meta":{"profile":["http://hl7.org/fhir/us/core/StructureDefinition/us-core-body-temperature"]},"status":"final","category":[{"coding":[{"system":"http://terminology.hl7.org/CodeSystem/observation-category","code":"vital-signs","display":"Vital Signs"}]}],"code":{"coding":[{"system":"http://loinc.org","code":"8310-5"}]},"subject":{"reference":"Patient/7b04a672-aed7-4b76-b108-b11ae3375b38"},"effectiveDateTime":"2022-11-05T00:00:00+00:00","valueQuantity":{"value":29.04,"unit":"kilogram","system":"http://unitsofmeasure.org","code":"kg"}},"request":{"method":"POST","url":"Observation"}},{"fullUrl":"Observation/7998a7bd-ea28-41a6-977c-f6a7b65da89c","resource":{"resourceType":"Observation","id":"7998a7bd-ea28-41a6-977c-f6a7b65da89c","meta":{"profile":["http://hl7.org/fhir/us/core/StructureDefinition/us-core-heart-rate"]},"status":"final","category":[{"coding":[{"system":"http://terminology.hl7.org/CodeSystem/observation-category","code":"vital-signs","display":"Vital Signs"}]}],"code":{"coding":[{"system":"http://loinc.org","code":"8867-4"}]},"subject":{"reference":"Patient/7b04a672-aed7-4b76-b108-b11ae3375b38"},"effectiveDateTime":"2022-11-19T00:00:00+00:00","valueQuantity":{"value":101.8,"unit":"Degrees Fahrenheit","system":"http://unitsofmeasure.org","code":"[degF]"}},"request":{"method":"POST","url":"Observation"}},{"fullUrl":"Observation/3e98fc6a-b3dc-48c9-ae2f-ba74afc4ad54","resource":{"resourceType":"Observation","id":"3e98fc6a-b3dc-48c9-ae2f-ba74afc4ad54","meta":{"profile":["http://hl7.org/fhir/us/core/StructureDefinition/us-core-heart-rate"]},"status":"final","category":[{"coding":[{"system":"http://terminology.hl7.org/CodeSystem/observation-category","code":"vital-signs","display":"Vital Signs"}]}],"code":{"coding":[{"system":"http://loinc.org","code":"8867-4"}]},"subject":{"reference":"Patient/7b04a672-aed7-4b76-b108-b11ae3375b38"},"effectiveDateTime":"2022-02-21T00:00:00+00:00","valueQuantity":{"value":100.9,"unit":"Degrees Fahrenheit","system":"http://unitsofmeasure.org","code":"[degF]"}},"request":{"method":"POST","url":"Observation"}},{"fullUrl":"Patient/499a4ef8-f958-4630-b820-451aee513742","resource":{"resourceType":"Patient","id":"499a4ef8-f958-4630-b820-451aee513742","meta":{"profile":["http://hl7.org/fhir/us/core/StructureDefinition/us-core-patient"]},"extension":[{"extension":[{"url":"ombCategory","valueCoding":{"system":"urn:oid:2.16.840.1.113883.6.238","code":"1002-5","display":"American Indian or Alaska Native"}},{"url":"text","valueString":"American Indian or Alaska Native"}],"url":"http://hl7.org/fhir/us/core/StructureDefinition/us-core-race"},{"extension":[{"url":"ombCategory","valueCoding":{"system":"urn:oid:2.16.840.1.113883.6.238","code":"2186-5","display":"Non Hispanic or Latino"}},{"url":"text","valueString":"Non Hispanic or Latino"}],"url":"http://hl7.org/fhir/us/core/StructureDefinition/us-core-ethnicity"}],"identifier":[{"type":{"coding":[{"system":"http://terminology.hl7.org/CodeSystem/v2-0203","code":"MR"}]},"system":"urn:fhirgen:mrn","value":"284-48-2844"}],"name":[{"family":"Garcia","given":["Kelsey"]}],"telecom":[{"system":"phone","value":"(240)049-4960x02009","use":"home"}],"gender":"other","birthDate":"1947-09-29","address":[{"line":["9745 Tammy Hill"],"city":"Port Thomastown","state":"North Dakota","postalCode":"49541"}]},"request":{"method":"POST","url":"Patient"}},{"fullUrl":"Observation/d0d724c3-5889-4821-b6a8-92aaa1d07289","resource":{"resourceType":"Observation","id":"d0d724c3-5889-4821-b6a8-92aaa1d07289","meta":{"profile":["http://hl7.org/fhir/us/core/StructureDefinition/us-core-observation-lab"]},"status":"final","category":[{"coding":[{"system":"http://terminology.hl7.org/CodeSystem/observation-category","code":"laboratory","display":"Laboratory"}]}],"code":{"coding":[{"system":"http://loinc.org","code":"47235-7"}]},"subject":{"reference":"Patient/499a4ef8-f958-4630-b820-451aee513742"},"effectiveDateTime":"2022-08-14T00:00:00+00:00","valueRatio":{"numerator":{"value":1},"denominator":{"value":4}}},"request":{"method":"POST","url":"Observation"}},{"fullUrl":"Observation/44e73015-9f9a-401d-82f5-4ec0a6ab4506","resource":{"resourceType":"Observation","id":"44e73015-9f9a-401d-82f5-4ec0a6ab4506","meta":{"profile":["http://hl7.org/fhir/us/core/StructureDefinition/us-core-observation-lab"]},"status":"final","category":[{"coding":[{"system":"http://terminology.hl7.org/CodeSystem/observation-category","code":"laboratory","display":"Laboratory"}]}],"code":{"coding":[{"system":"http://loinc.org","code":"5394-2"}]},"subject":{"reference":"Patient/499a4ef8-f958-4630-b820-451aee513742"},"effectiveDateTime":"2022-10-02T00:00:00+00:00","valueRatio":{"numerator":{"value":1},"denominator":{"value":64}}},"request":{"method":"POST","url":"Observation"}},{"fullUrl":"Observation/841f1d67-4e51-48ae-84a9-59d9cd4c9552","resource":{"resourceType":"Observation","id":"841f1d67-4e51-48ae-84a9-59d9cd4c9552","meta":{"profile":["http://hl7.org/fhir/us/core/StructureDefinition/us-core-observation-lab"]},"status":"final","category":[{"coding":[{"system":"http://terminology.hl7.org/CodeSystem/observation-category","code":"laboratory","display":"Laboratory"}]}],"code":{"coding":[{"system":"http://loinc.org","code":"31146-4"}]},"subject":{"reference":"Patient/499a4ef8-f958-4630-b820-451aee513742"},"effectiveDateTime":"2022-08-26T00:00:00+00:00","valueRatio":{"numerator":{"value":1},"denominator":{"value":4}}},"request":{"method":"POST","url":"Observation"}},{"fullUrl":"Condition/44b858c2-d89d-4c8b-a874-69a17e2de333","resource":{"resourceType":"Condition","id":"44b858c2-d89d-4c8b-a874-69a17e2de333","meta":{"profile":["http://hl7.org/fhir/us/core/StructureDefinition/us-core-condition"]},"clinicalStatus":{"coding":[{"system":"http://terminology.hl7.org/CodeSystem/condition-clinical","code":"active","display":"Active"}]},"category":[{"coding":[{"system":"http://terminology.hl7.org/CodeSystem/condition-ver-status","code":"confirmed"}]}],"code":{"coding":[{"system":"http://snomed.info/sct","code":"91554004"}]},"subject":{"reference":"Patient/499a4ef8-f958-4630-b820-451aee513742"},"onsetDateTime":"2022-08-15T00:00:00+00:00"},"request":{"method":"POST","url":"Condition"}},{"fullUrl":"Condition/39b0f4fc-fa31-48b9-975e-d0723bc6bf85","resource":{"resourceType":"Condition","id":"39b0f4fc-fa31-48b9-975e-d0723bc6bf85","meta":{"profile":["http://hl7.org/fhir/us/core/StructureDefinition/us-core-condition"]},"clinicalStatus":{"coding":[{"system":"http://terminology.hl7.org/CodeSystem/condition-clinical","code":"active","display":"Active"}]},"category":[{"coding":[{"system":"http://terminology.hl7.org/CodeSystem/condition-ver-status","code":"confirmed"}]}],"code":{"coding":[{"system":"http://snomed.info/sct","code":"44882003"}]},"subject":{"reference":"Patient/499a4ef8-f958-4630-b820-451aee513742"},"onsetDateTime":"2022-05-08T00:00:00+00:00"},"request":{"method":"POST","url":"Condition"}},{"fullUrl":"Condition/184f7091-87a3-4911-873a-851baf387914","resource":{"resourceType":"Condition","id":"184f7091-87a3-4911-873a-851baf387914","meta":{"profile":["http://hl7.org/fhir/us/core/StructureDefinition/us-core-condition"]},"clinicalStatus":{"coding":[{"system":"http://terminology.hl7.org/CodeSystem/condition-clinical","code":"active","display":"Active"}]},"category":[{"coding":[{"system":"http://terminology.hl7.org/CodeSystem/condition-ver-status","code":"confirmed"}]}],"code":{"coding":[{"system":"http://snomed.info/sct","code":"709977002"}]},"subject":{"reference":"Patient/499a4ef8-f958-4630-b820-451aee513742"},"onsetDateTime":"2022-12-09T00:00:00+00:00"},"request":{"method":"POST","url":"Condition"}},{"fullUrl":"Condition/e747d373-b07d-479b-b352-5cac0adc4ee3","resource":{"resourceType":"Condition","id":"e747d373-b07d-479b-b352-5cac0adc4ee3","meta":{"profile":["http://hl7.org/fhir/us/core/StructureDefinition/us-core-condition"]},"clinicalStatus":{"coding":[{"system":"http://terminology.hl7.org/CodeSystem/condition-clinical","code":"active","display":"Active"}]},"category":[{"coding":[{"system":"http://terminology.hl7.org/CodeSystem/condition-ver-status","code":"confirmed"}]}],"code":{"coding":[{"system":"http://snomed.info/sct","code":"44882003"}]},"subject":{"reference":"Patient/499a4ef8-f958-4630-b820-451aee513742"},"onsetDateTime":"2022-03-16T00:00:00+00:00"},"request":{"method":"POST","url":"Condition"}},{"fullUrl":"Condition/c442cd40-718d-4eee-bafd-0fe1fe87ef74","resource":{"resourceType":"Condition","id":"c442cd40-718d-4eee-bafd-0fe1fe87ef74","meta":{"profile":["http://hl7.org/fhir/us/core/StructureDefinition/us-core-condition"]},"clinicalStatus":{"coding":[{"system":"http://terminology.hl7.org/CodeSystem/condition-clinical","code":"active","display":"Active"}]},"category":[{"coding":[{"system":"http://terminology.hl7.org/CodeSystem/condition-ver-status","code":"confirmed"}]}],"code":{"coding":[{"system":"http://snomed.info/sct","code":"44882003"}]},"subject":{"reference":"Patient/499a4ef8-f958-4630-b820-451aee513742"},"onsetDateTime":"2022-03-23T00:00:00+00:00"},"request":{"method":"POST","url":"Condition"}},{"fullUrl":"Condition/f8564a47-f9c0-4730-b437-a59511e74d49","resource":{"resourceType":"Condition","id":"f8564a47-f9c0-4730-b437-a59511e74d49","meta":{"profile":["http://hl7.org/fhir/us/core/StructureDefinition/us-core-condition"]},"clinicalStatus":{"coding":[{"system":"http://terminology.hl7.org/CodeSystem/condition-clinical","code":"active","display":"Active"}]},"category":[{"coding":[{"system":"http://terminology.hl7.org/CodeSystem/condition-ver-status","code":"confirmed"}]}],"code":{"coding":[{"system":"http://snomed.info/sct","code":"91554004"}]},"subject":{"reference":"Patient/499a4ef8-f958-4630-b820-451aee513742"},"onsetDateTime":"2022-11-19T00:00:00+00:00"},"request":{"method":"POST","url":"Condition"}},{"fullUrl":"Condition/0062a51c-2e40-49b6-9609-285d4b556fbc","resource":{"resourceType":"Condition","id":"0062a51c-2e40-49b6-9609-285d4b556fbc","meta":{"profile":["http://hl7.org/fhir/us/core/StructureDefinition/us-core-condition"]},"clinicalStatus":{"coding":[{"system":"http://terminology.hl7.org/CodeSystem/condition-clinical","code":"active","display":"Active"}]},"category":[{"coding":[{"system":"http://terminology.hl7.org/CodeSystem/condition-ver-status","code":"confirmed"}]}],"code":{"coding":[{"system":"http://snomed.info/sct","code":"418290006"}]},"subject":{"reference":"Patient/499a4ef8-f958-4630-b820-451aee513742"},"onsetDateTime":"2022-12-23T00:00:00+00:00"},"request":{"method":"POST","url":"Condition"}},{"fullUrl":"Condition/592e2979-b2c1-4091-9d98-6a93c4d49b73","resource":{"resourceType":"Condition","id":"592e2979-b2c1-4091-9d98-6a93c4d49b73","meta":{"profile":["http://hl7.org/fhir/us/core/StructureDefinition/us-core-condition"]},"clinicalStatus":{"coding":[{"system":"http://terminology.hl7.org/CodeSystem/condition-clinical","code":"active","display":"Active"}]},"category":[{"coding":[{"system":"http://terminology.hl7.org/CodeSystem/condition-ver-status","code":"confirmed"}]}],"code":{"coding":[{"system":"http://snomed.info/sct","code":"736686006"}]},"subject":{"reference":"Patient/499a4ef8-f958-4630-b820-451aee513742"},"onsetDateTime":"2022-08-28T00:00:00+00:00"},"request":{"method":"POST","url":"Condition"}},{"fullUrl":"Observation/3f3d55f2-ea68-41b4-8ffa-01b663ac7ba1","resource":{"resourceType":"Observation","id":"3f3d55f2-ea68-41b4-8ffa-01b663ac7ba1","meta":{"profile":["http://hl7.org/fhir/us/core/StructureDefinition/us-core-observation-lab"]},"status":"final","category":[{"coding":[{"system":"http://terminology.hl7.org/CodeSystem/observation-category","code":"laboratory","display":"Laboratory"}]}],"code":{"coding":[{"system":"http://loinc.org","code":"804-5"}]},"subject":{"reference":"Patient/499a4ef8-f958-4630-b820-451aee513742"},"effectiveDateTime":"2022-07-18T00:00:00+00:00","valueQuantity":{"value":4.8}},"request":{"method":"POST","url":"Observation"}},{"fullUrl":"Observation/8aaac1f0-3ed4-4336-93e4-932208042f4a","resource":{"resourceType":"Observation","id":"8aaac1f0-3ed4-4336-93e4-932208042f4a","meta":{"profile":["http://hl7.org/fhir/us/core/StructureDefinition/us-core-observation-lab"]},"status":"final","category":[{"coding":[{"system":"http://terminology.hl7.org/CodeSystem/observation-category","code":"laboratory","display":"Laboratory"}]}],"code":{"coding":[{"system":"http://loinc.org","code":"804-5"}]},"subject":{"reference":"Patient/499a4ef8-f958-4630-b820-451aee513742"},"effectiveDateTime":"2022-12-07T00:00:00+00:00","valueQuantity":{"value":4}},"request":{"method":"POST","url":"Observation"}},{"fullUrl":"Observation/95bc6dd7-0241-4e57-bec6-2fecd7b790ff","resource":{"resourceType":"Observation","id":"95bc6dd7-0241-4e57-bec6-2fecd7b790ff","meta":{"profile":["http://hl7.org/fhir/us/core/StructureDefinition/us-core-bmi"]},"status":"final","category":[{"coding":[{"system":"http://terminology.hl7.org/CodeSystem/observation-category","code":"vital-signs","display":"Vital Signs"}]}],"code":{"coding":[{"system":"http://loinc.org","code":"39156-5"}]},"subject":{"reference":"Patient/499a4ef8-f958-4630-b820-451aee513742"},"effectiveDateTime":"2022-11-06T00:00:00+00:00","valueQuantity":{"value":24.48,"unit":"kg/m2","system":"http://unitsofmeasure.org","code":"kg/m2"}},"request":{"method":"POST","url":"Observation"}},{"fullUrl":"Observation/5c9cfcb9-f47c-4d58-9955-780334c95099","resource":{"resourceType":"Observation","id":"5c9cfcb9-f47c-4d58-9955-780334c95099","meta":{"profile":["http://hl7.org/fhir/us/core/StructureDefinition/us-core-head-circumference"]},"status":"final","category":[{"coding":[{"system":"http://terminology.hl7.org/CodeSystem/observation-category","code":"vital-signs","display":"Vital Signs"}]}],"code":{"coding":[{"system":"http://loinc.org","code":"9843-4"}]},"subject":{"reference":"Patient/499a4ef8-f958-4630-b820-451aee513742"},"effectiveDateTime":"2022-06-30T00:00:00+00:00","valueQuantity":{"value":5.9,"unit":"Inch","system":"http://unitsofmeasure.org","code":"[in_i]"}},"request":{"method":"POST","url":"Observation"}},{"fullUrl":"Observation/5b59ba88-db6b-4aff-bb4a-7d82b4cd66a7","resource":{"resourceType":"Observation","id":"5b59ba88-db6b-4aff-bb4a-7d82b4cd66a7","meta":{"profile":["http://hl7.org/fhir/us/core/StructureDefinition/us-core-head-circumference"]},"status":"final","category":[{"coding":[{"system":"http://terminology.hl7.org/CodeSystem/observation-category","code":"vital-signs","display":"Vital Signs"}]}],"code":{"coding":[{"system":"http://loinc.org","code":"9843-4"}]},"subject":{"reference":"Patient/499a4ef8-f958-4630-b820-451aee513742"},"effectiveDateTime":"2022-01-06T00:00:00+00:00","valueQuantity":{"value":3.8,"unit":"Inch","system":"http://unitsofmeasure.org","code":"[in_i]"}},"request":{"method":"POST","url":"Observation"}},{"fullUrl":"Observation/0c2b14ad-6a48-4553-89bb-a4b3815054ad","resource":{"resourceType":"Observation","id":"0c2b14ad-6a48-4553-89bb-a4b3815054ad","meta":{"profile":["http://hl7.org/fhir/us/core/StructureDefinition/us-core-body-height"]},"status":"final","category":[{"coding":[{"system":"http://terminology.hl7.org/CodeSystem/observation-category","code":"vital-signs","display":"Vital Signs"}]}],"code":{"coding":[{"system":"http://loinc.org","code":"8302-2"}]},"subject":{"reference":"Patient/499a4ef8-f958-4630-b820-451aee513742"},"effectiveDateTime":"2022-08-15T00:00:00+00:00","valueQuantity":{"value":72.1,"unit":"Inch","system":"http://unitsofmeasure.org","code":"[in_i]"}},"request":{"method":"POST","url":"Observation"}},{"fullUrl":"Observation/bba1273e-8fd6-4392-884b-1d44f294dd1f","resource":{"resourceType":"Observation","id":"bba1273e-8fd6-4392-884b-1d44f294dd1f","meta":{"profile":["http://hl7.org/fhir/us/core/StructureDefinition/us-core-body-height"]},"status":"final","category":[{"coding":[{"system":"http://terminology.hl7.org/CodeSystem/observation-category","code":"vital-signs","display":"Vital Signs"}]}],"code":{"coding":[{"system":"http://loinc.org","code":"8302-2"}]},"subject":{"reference":"Patient/499a4ef8-f958-4630-b820-451aee513742"},"effectiveDateTime":"2022-05-11T00:00:00+00:00","valueQuantity":{"value":64.9,"unit":"Inch","system":"http://unitsofmeasure.org","code":"[in_i]"}},"request":{"method":"POST","url":"Observation"}},{"fullUrl":"Observation/83980b92-d413-4b06-9d61-e4658c905b8f","resource":{"resourceType":"Observation","id":"83980b92-d413-4b06-9d61-e4658c905b8f","meta":{"profile":["http://hl7.org/fhir/us/core/StructureDefinition/us-core-body-weight"]},"status":"final","category":[{"coding":[{"system":"http://terminology.hl7.org/CodeSystem/observation-category","code":"vital-signs","display":"Vital Signs"}]}],"code":{"coding":[{"system":"http://loinc.org","code":"29463-7"}]},"subject":{"reference":"Patient/499a4ef8-f958-4630-b820-451aee513742"},"effectiveDateTime":"2022-11-25T00:00:00+00:00","valueQuantity":{"value":144.66,"unit":"kilogram","system":"http://unitsofmeasure.org","code":"kg"}},"request":{"method":"POST","url":"Observation"}},{"fullUrl":"Observation/fe6cbbbf-094c-40e8-b058-d7aaa815e260","resource":{"resourceType":"Observation","id":"fe6cbbbf-094c-40e8-b058-d7aaa815e260","meta":{"profile":["http://hl7.org/fhir/us/core/StructureDefinition/us-core-body-temperature"]},"status":"final","category":[{"coding":[{"system":"http://terminology.hl7.org/CodeSystem/observation-category","code":"vital-signs","display":"Vital Signs"}]}],"code":{"coding":[{"system":"http://loinc.org","code":"8310-5"}]},"subject":{"reference":"Patient/499a4ef8-f958-4630-b820-451aee513742"},"effectiveDateTime":"2022-10-02T00:00:00+00:00","valueQuantity":{"value":123.82,"unit":"kilogram","system":"http://unitsofmeasure.org","code":"kg"}},"request":{"method":"POST","url":"Observation"}},{"fullUrl":"Observation/2f247c93-7df4-41a3-8f50-846c7505a33e","resource":{"resourceType":"Observation","id":"2f247c93-7df4-41a3-8f50-846c7505a33e","meta":{"profile":["http://hl7.org/fhir/us/core/StructureDefinition/us-core-heart-rate"]},"status":"final","category":[{"coding":[{"system":"http://terminology.hl7.org/CodeSystem/observation-category","code":"vital-signs","display":"Vital Signs"}]}],"code":{"coding":[{"system":"http://loinc.org","code":"8867-4"}]},"subject":{"reference":"Patient/499a4ef8-f958-4630-b820-451aee513742"},"effectiveDateTime":"2022-02-06T00:00:00+00:00","valueQuantity":{"value":99.6,"unit":"Degrees Fahrenheit","system":"http://unitsofmeasure.org","code":"[degF]"}},"request":{"method":"POST","url":"Observation"}}]}