{"resourceType":"Bundle","id":"f7ebd868-8917-4c9c-95d7-7d9857b35926","type":"transaction","entry":[{"fullUrl":"Patient/806354da-90b7-47c8-8b43-bcc8e41cf585","resource":{"resourceType":"Patient","id":"806354da-90b7-47c8-8b43-bcc8e41cf585","identifier":[{"type":{"coding":[{"system":"http://terminology.hl7.org/CodeSystem/v2-0203","code":"MR"}]},"system":"urn:fhirgen:mrn","value":"525-41-6650"}],"name":[{"use":"official","family":"Garner","given":["Dylan"]},{"use":"maiden","family":"Hall"}],"telecom":[{"system":"phone","value":"744-615-6243x4433","use":"work"},{"system":"email","value":"ralphlindsey@gmail.com","use":"home"}],"gender":"male","birthDate":"1991-11-23","address":[{"use":"home","line":["33402 Taylor Pines Apt. 622"],"city":"Kellyport","state":"NM","postalCode":"24637"},{"use":"old","line":["856 Joseph Canyon Apt. 562"],"city":"Port Cynthia","state":"NH","postalCode":"95059"}]},"request":{"method":"POST","url":"Patient"}},{"fullUrl":"Observation/baf69bec-fff2-47e2-86ba-883f0fb78086","resource":{"resourceType":"Observation","id":"baf69bec-fff2-47e2-86ba-883f0fb78086","status":"final","code":{"coding":[{"system":"http://loinc.org","code":"26009-1"}]},"subject":{"reference":"Patient/806354da-90b7-47c8-8b43-bcc8e41cf585"},"effectiveDateTime":"2022-10-20T00:00:00+00:00","valueRatio":{"numerator":{"value":1},"denominator":{"value":4}}},"request":{"method":"POST","url":"Observation"}},{"fullUrl":"Observation/a9e07ee4-e961-4555-83d5-df6290e0e2e0","resource":{"resourceType":"Observation","id":"a9e07ee4-e961-4555-83d5-df6290e0e2e0","status":"final","code":{"coding":[{"system":"http://loinc.org","code":"11084-1"}]},"subject":{"reference":"Patient/806354da-90b7-47c8-8b43-bcc8e41cf585"},"effectiveDateTime":"2022-06-09T00:00:00+00:00","valueRatio":{"numerator":{"value":1},"denominator":{"value":4}}},"request":{"method":"POST","url":"Observation"}},{"fullUrl":"Condition/e401de7b-9bf5-4a33-b1ad-95c4fce1f367","resource":{"resourceType":"Condition","id":"e401de7b-9bf5-4a33-b1ad-95c4fce1f367","code":{"coding":[{"system":"http://snomed.info/sct","code":"30746006"}]},"subject":{"reference":"Patient/806354da-90b7-47c8-8b43-bcc8e41cf585"},"onsetDateTime":"2022-05-12T00:00:00+00:00"},"request":{"method":"POST","url":"Condition"}},{"fullUrl":"Condition/d5086842-4dd5-4679-8898-c69c2aecff7a","resource":{"resourceType":"Condition","id":"d5086842-4dd5-4679-8898-c69c2aecff7a","code":{"coding":[{"system":"http://snomed.info/sct","code":"56317004"}]},"subject":{"reference":"Patient/806354da-90b7-47c8-8b43-bcc8e41cf585"},"onsetDateTime":"2022-06-15T00:00:00+00:00"},"request":{"method":"POST","url":"Condition"}},{"fullUrl":"Condition/73bb8769-9678-4503-980b-12d39d96472a","resource":{"resourceType":"Condition","id":"73bb8769-9678-4503-980b-12d39d96472a","code":{"coding":[{"system":"http://snomed.info/sct","code":"248980004"}]},"subject":{"reference":"Patient/806354da-90b7-47c8-8b43-bcc8e41cf585"},"onsetDateTime":"2022-12-02T00:00:00+00:00"},"request":{"method":"POST","url":"Condition"}},{"fullUrl":"Condition/8b7abd4b-f07c-409b-9b11-a291982815f5","resource":{"resourceType":"Condition","id":"8b7abd4b-f07c-409b-9b11-a291982815f5","code":{"coding":[{"system":"http://snomed.info/sct","code":"271939006"}]},"subject":{"reference":"Patient/806354da-90b7-47c8-8b43-bcc8e41cf585"},"onsetDateTime":"2022-07-14T00:00:00+00:00"},"request":{"method":"POST","url":"Condition"}},{"fullUrl":"Observation/e2f21c82-b8aa-41df-97ec-8d176c2f51f5","resource":{"resourceType":"Observation","id":"e2f21c82-b8aa-41df-97ec-8d176c2f51f5","status":"final","code":{"coding":[{"system":"http://loinc.org","code":"26464-8"}]},"subject":{"reference":"Patient/806354da-90b7-47c8-8b43-bcc8e41cf585"},"effectiveDateTime":"2022-11-29T00:00:00+00:00","valueQuantity":{"value":7.6}},"request":{"method":"POST","url":"Observation"}},{"fullUrl":"Observation/9a46951c-fd8d-4dcd-8e70-721c07153650","resource":{"resourceType":"Observation","id":"9a46951c-fd8d-4dcd-8e70-721c07153650","status":"final","code":{"coding":[{"system":"http://www.ama-assn.org/go/cpt","code":"85048"}]},"subject":{"reference":"Patient/806354da-90b7-47c8-8b43-bcc8e41cf585"},"effectiveDateTime":"2022-04-23T00:00:00+00:00","valueQuantity":{"value":6.9}},"request":{"method":"POST","url":"Observation"}},{"fullUrl":"Observation/89cc64e5-dc21-4017-ba26-5319f5270d02","resource":{"resourceType":"Observation","id":"89cc64e5-dc21-4017-ba26-5319f5270d02","status":"final","code":{"coding":[{"system":"http://loinc.org","code":"49498-9"}]},"subject":{"reference":"Patient/806354da-90b7-47c8-8b43-bcc8e41cf585"},"effectiveDateTime":"2022-11-30T00:00:00+00:00"},"request":{"method":"POST","url":"Observation"}},{"fullUrl":"Observation/1860b288-618e-4426-8e86-72f07bf61a3d","resource":{"resourceType":"Observation","id":"1860b288-618e-4426-8e86-72f07bf61a3d","status":"final","code":{"coding":[{"system":"http://loinc.org","code":"49498-9"}]},"subject":{"reference":"Patient/806354da-90b7-47c8-8b43-bcc8e41cf585"},"effectiveDateTime":"2022-01-24T00:00:00+00:00"},"request":{"method":"POST","url":"Observation"}},{"fullUrl":"Observation/d1805cab-034a-4ee8-b015-8b63951b0f22","resource":{"resourceType":"Observation","id":"d1805cab-034a-4ee8-b015-8b63951b0f22","status":"final","code":{"coding":[{"system":"http://loinc.org","code":"49498-9"}]},"subject":{"reference":"Patient/806354da-90b7-47c8-8b43-bcc8e41cf585"},"effectiveDateTime":"2022-04-26T00:00:00+00:00"},"request":{"method":"POST","url":"Observation"}},{"fullUrl":"Procedure/ffa24339-ef86-4116-9478-e085f3b5ec1e","resource":{"resourceType":"Procedure","id":"ffa24339-ef86-4116-9478-e085f3b5ec1e","status":"completed","code":{"coding":[{"system":"http://snomed.info/sct","code":"115006"}]},"subject":{"reference":"Patient/806354da-90b7-47c8-8b43-bcc8e41cf585"},"performedDateTime":"2022-06-15T00:00:00+00:00"},"request":{"method":"POST","url":"Procedure"}},{"fullUrl":"Procedure/8e98aa79-4fcf-4107-8c41-b18047c09410","resource":{"resourceType":"Procedure","id":"8e98aa79-4fcf-4107-8c41-b18047c09410","status":"completed","code":{"coding":[{"system":"http://snomed.info/sct","code":"146005"}]},"subject":{"reference":"Patient/806354da-90b7-47c8-8b43-bcc8e41cf585"},"performedDateTime":"2022-05-14T00:00:00+00:00"},"request":{"method":"POST","url":"Procedure"}},{"fullUrl":"Procedure/5827e5f7-657f-45d3-b514-877d5ff6ecea","resource":{"resourceType":"Procedure","id":"5827e5f7-657f-45d3-b514-877d5ff6ecea","status":"completed","code":{"coding":[{"system":"http://snomed.info/sct","code":"189009"}]},"subject":{"reference":"Patient/806354da-90b7-47c8-8b43-bcc8e41cf585"},"performedDateTime":"2022-12-17T00:00:00+00:00"},"request":{"method":"POST","url":"Procedure"}},{"fullUrl":"MedicationStatement/96e99fc7-e43e-4ff8-9d45-898076739307","resource":{"resourceType":"MedicationStatement","id":"96e99fc7-e43e-4ff8-9d45-898076739307","status":"completed","medicationCodeableConcept":{"coding":[{"system":"http://www.nlm.nih.gov/research/umls/rxnorm","code":"3640"}]},"subject":{"reference":"Patient/806354da-90b7-47c8-8b43-bcc8e41cf585"},"effectiveDateTime":"2022-10-31T00:00:00+00:00","dosage":[{"doseAndRate":[{"doseQuantity":{"value":1,"unit":"TAB","system":"http://terminology.hl7.org/CodeSystem/v3-orderableDrugForm","code":"TAB"}}]}]},"request":{"method":"POST","url":"MedicationStatement"}},{"fullUrl":"MedicationStatement/626855c8-de5c-4190-af64-e4c9112c7e23","resource":{"resourceType":"MedicationStatement","id":"626855c8-de5c-4190-af64-e4c9112c7e23","status":"completed","medicationCodeableConcept":{"coding":[{"system":"http://www.nlm.nih.gov/research/umls/rxnorm","code":"8698"}]},"subject":{"reference":"Patient/806354da-90b7-47c8-8b43-bcc8e41cf585"},"effectiveDateTime":"2022-11-29T00:00:00+00:00","dosage":[{"doseAndRate":[{"doseQuantity":{"value":2,"unit":"TAB","system":"http://terminology.hl7.org/CodeSystem/v3-orderableDrugForm","code":"TAB"}}]}]},"request":{"method":"POST","url":"MedicationStatement"}},{"fullUrl":"MedicationStatement/1b7d0fa6-3d19-4b45-b2c4-37764ab0b8fc","resource":{"resourceType":"MedicationStatement","id":"1b7d0fa6-3d19-4b45-b2c4-37764ab0b8fc","status":"completed","medicationCodeableConcept":{"coding":[{"system":"http://www.nlm.nih.gov/research/umls/rxnorm","code":"2193"}]},"subject":{"reference":"Patient/806354da-90b7-47c8-8b43-bcc8e41cf585"},"effectiveDateTime":"2022-11-29T00:00:00+00:00","dosage":[{"doseAndRate":[{"doseQuantity":{"value":2,"unit":"TAB","system":"http://terminology.hl7.org/CodeSystem/v3-orderableDrugForm","code":"TAB"}}]}]},"request":{"method":"POST","url":"MedicationStatement"}},{"fullUrl":"MedicationStatement/8ac7c676-6b01-4857-a46a-cb561ab81a2f","resource":{"resourceType":"MedicationStatement","id":"8ac7c676-6b01-4857-a46a-cb561ab81a2f","status":"completed","medicationCodeableConcept":{"coding":[{"system":"http://www.nlm.nih.gov/research/umls/rxnorm","code":"18631"}]},"subject":{"reference":"Patient/806354da-90b7-47c8-8b43-bcc8e41cf585"},"effectiveDateTime":"2022-04-02T00:00:00+00:00","dosage":[{"doseAndRate":[{"doseQuantity":{"value":1,"unit":"TAB","system":"http://terminology.hl7.org/CodeSystem/v3-orderableDrugForm","code":"TAB"}}]}]},"request":{"method":"POST","url":"MedicationStatement"}},{"fullUrl":"MedicationStatement/3c48e943-c9ba-465d-a3e7-7f6f0f38548a","resource":{"resourceType":"MedicationStatement","id":"3c48e943-c9ba-465d-a3e7-7f6f0f38548a","status":"completed","medicationCodeableConcept":{"coding":[{"system":"http://www.nlm.nih.gov/research/umls/rxnorm","code":"2193"}]},"subject":{"reference":"Patient/806354da-90b7-47c8-8b43-bcc8e41cf585"},"effectiveDateTime":"2022-05-21T00:00:00+00:00","dosage":[{"doseAndRate":[{"doseQuantity":{"value":5,"unit":"TAB","system":"http://terminology.hl7.org/CodeSystem/v3-orderableDrugForm","code":"TAB"}}]}]},"request":{"method":"POST","url":"MedicationStatement"}},{"fullUrl":"MedicationStatement/3e938bbf-3c1f-4b58-838f-1ff82370660c","resource":{"resourceType":"MedicationStatement","id":"3e938bbf-3c1f-4b58-838f-1ff82370660c","status":"completed","medicationCodeableConcept":{"coding":[{"system":"http://www.nlm.nih.gov/research/umls/rxnorm","code":"8698"}]},"subject":{"reference":"Patient/806354da-90b7-47c8-8b43-bcc8e41cf585"},"effectiveDateTime":"2022-01-06T00:00:00+00:00","dosage":[{"doseAndRate":[{"doseQuantity":{"value":6.4,"unit":"TAB","system":"http://terminology.hl7.org/CodeSystem/v3-orderableDrugForm","code":"TAB"}}]}]},"request":{"method":"POST","url":"MedicationStatement"}},{"fullUrl":"MedicationStatement/ad7334da-9a0f-4fe3-9875-819b3d35131e","resource":{"resourceType":"MedicationStatement","id":"ad7334da-9a0f-4fe3-9875-819b3d35131e","status":"completed","medicationCodeableConcept":{"coding":[{"system":"http://www.nlm.nih.gov/research/umls/rxnorm","code":"8698"}]},"subject":{"reference":"Patient/806354da-90b7-47c8-8b43-bcc8e41cf585"},"effectiveDateTime":"2022-05-08T00:00:00+00:00","dosage":[{"doseAndRate":[{"doseQuantity":{"value":3.9,"unit":"TAB","system":"http://terminology.hl7.org/CodeSystem/v3-orderableDrugForm","code":"TAB"}}]}]},"request":{"method":"POST","url":"MedicationStatement"}},{"fullUrl":"MedicationStatement/55096550-72e9-4207-bebd-a396f1a74f72","resource":{"resourceType":"MedicationStatement","id":"55096550-72e9-4207-bebd-a396f1a74f72","status":"completed","medicationCodeableConcept":{"coding":[{"system":"http://www.nlm.nih.gov/research/umls/rxnorm","code":"8698"}]},"subject":{"reference":"Patient/806354da-90b7-47c8-8b43-bcc8e41cf585"},"effectiveDateTime":"2022-07-29T00:00:00+00:00","dosage":[{"doseAndRate":[{"doseQuantity":{"value":5.8,"unit":"TAB","system":"http://terminology.hl7.org/CodeSystem/v3-orderableDrugForm","code":"TAB"}}]}]},"request":{"method":"POST","url":"MedicationStatement"}},{"fullUrl":"MedicationStatement/2f350ae0-3ace-4738-87b8-b661a44df57e","resource":{"resourceType":"MedicationStatement","id":"2f350ae0-3ace-4738-87b8-b661a44df57e","status":"completed","medicationCodeableConcept":{"coding":[{"system":"http://www.nlm.nih.gov/research/umls/rxnorm","code":"8698"}]},"subject":{"reference":"Patient/806354da-90b7-47c8-8b43-bcc8e41cf585"},"effectiveDateTime":"2022-11-29T00:00:00+00:00","dosage":[{"doseAndRate":[{"doseQuantity":{"value":3.1,"unit":"TAB","system":"http://terminology.hl7.org/CodeSystem/v3-orderableDrugForm","code":"TAB"}}]}]},"request":{"method":"POST","url":"MedicationStatement"}},{"fullUrl":"MedicationStatement/835e55e3-62e6-489e-8243-a0b8ac88689b","resource":{"resourceType":"MedicationStatement","id":"835e55e3-62e6-489e-8243-a0b8ac88689b","status":"completed","medicationCodeableConcept":{"coding":[{"system":"http://www.nlm.nih.gov/research/umls/rxnorm","code":"18631"}]},"subject":{"reference":"Patient/806354da-90b7-47c8-8b43-bcc8e41cf585"},"effectiveDateTime":"2022-09-02T00:00:00+00:00","dosage":[{"doseAndRate":[{"doseQuantity":{"value":5.5,"unit":"TAB","system":"http://terminology.hl7.org/CodeSystem/v3-orderableDrugForm","code":"TAB"}}]}]},"request":{"method":"POST","url":"MedicationStatement"}},{"fullUrl":"MedicationStatement/ce71965b-9f78-4356-8d7d-b47e6c9dc4e8","resource":{"resourceType":"MedicationStatement","id":"ce71965b-9f78-4356-8d7d-b47e6c9dc4e8","status":"completed","medicationCodeableConcept":{"coding":[{"system":"http://www.nlm.nih.gov/research/umls/rxnorm","code":"7984"}]},"subject":{"reference":"Patient/806354da-90b7-47c8-8b43-bcc8e41cf585"},"effectiveDateTime":"2022-05-08T00:00:00+00:00","dosage":[{"doseAndRate":[{"doseQuantity":{"value":5.8,"unit":"TAB","system":"http://terminology.hl7.org/CodeSystem/v3-orderableDrugForm","code":"TAB"}}]}]},"request":{"method":"POST","url":"MedicationStatement"}},{"fullUrl":"MedicationStatement/d88febbb-9786-433d-a7ce-1e9f690b3988","resource":{"resourceType":"MedicationStatement","id":"d88febbb-9786-433d-a7ce-1e9f690b3988","status":"completed","medicationCodeableConcept":{"coding":[{"system":"http://www.nlm.nih.gov/research/umls/rxnorm","code":"10395"}]},"subject":{"reference":"Patient/806354da-90b7-47c8-8b43-bcc8e41cf585"},"effectiveDateTime":"2022-06-17T00:00:00+00:00","dosage":[{"doseAndRate":[{"doseQuantity":{"value":3.1,"unit":"TAB","system":"http://terminology.hl7.org/CodeSystem/v3-orderableDrugForm","code":"TAB"}}]}]},"request":{"method":"POST","url":"MedicationStatement"}},{"fullUrl":"Encounter/4869b549-ef2d-4ea0-aaab-9627daa2fcb3","resource":{"resourceType":"Encounter","id":"4869b549-ef2d-4ea0-aaab-9627daa2fcb3","status":"finished","class":{"system":"http://terminology.hl7.org/CodeSystem/v3-ActCode","code":"IMP","display":"inpatient encounter"},"type":[{"coding":[{"system":"http://terminology.hl7.org/CodeSystem/encounter-type","code":"BD/BM-clin"}]}],"subject":{"reference":"Patient/806354da-90b7-47c8-8b43-bcc8e41cf585"},"period":{"start":"2022-10-23T00:00:00+00:00","end":"2022-10-23T00:00:00+00:00"}},"request":{"method":"POST","url":"Encounter"}},{"fullUrl":"Encounter/1a3bbbd1-1730-465a-8de6-62731a31000c","resource":{"resourceType":"Encounter","id":"1a3bbbd1-1730-465a-8de6-62731a31000c","status":"finished","class":{"system":"http://terminology.hl7.org/CodeSystem/v3-ActCode","code":"IMP","display":"inpatient encounter"},"type":[{"coding":[{"system":"http://terminology.hl7.org/CodeSystem/encounter-type","code":"BD/BM-clin"}]}],"subject":{"reference":"Patient/806354da-90b7-47c8-8b43-bcc8e41cf585"},"period":{"start":"2022-11-09T00:00:00+00:00","end":"2022-11-17T00:00:00+00:00"}},"request":{"method":"POST","url":"Encounter"}},{"fullUrl":"Encounter/4642f1a9-c4c1-4f4d-8e01-11bf1fb197af","resource":{"resourceType":"Encounter","id":"4642f1a9-c4c1-4f4d-8e01-11bf1fb197af","status":"finished","class":{"system":"http://terminology.hl7.org/CodeSystem/v3-ActCode","code":"IMP","display":"inpatient encounter"},"type":[{"coding":[{"system":"http://terminology.hl7.org/CodeSystem/encounter-type","code":"CCS60"}]}],"subject":{"reference":"Patient/806354da-90b7-47c8-8b43-bcc8e41cf585"},"period":{"start":"2022-09-08T00:00:00+00:00","end":"2022-09-15T00:00:00+00:00"}},"request":{"method":"POST","url":"Encounter"}},{"fullUrl":"Encounter/e9a01e74-7f10-41ee-93f7-c7a6f35566b6","resource":{"resourceType":"Encounter","id":"e9a01e74-7f10-41ee-93f7-c7a6f35566b6","status":"finished","class":{"system":"http://terminology.hl7.org/CodeSystem/v3-ActCode","code":"AMB","display":"ambulatory"},"type":[{"coding":[{"system":"http://terminology.hl7.org/CodeSystem/encounter-type","code":"OKI"}]}],"subject":{"reference":"Patient/806354da-90b7-47c8-8b43-bcc8e41cf585"},"period":{"start":"2022-07-28T00:00:00+00:00","end":"2022-08-03T00:00:00+00:00"}},"request":{"method":"POST","url":"Encounter"}},{"fullUrl":"Encounter/3ea7bf00-3abe-4ad8-b29a-494d224e43ef","resource":{"resourceType":"Encounter","id":"3ea7bf00-3abe-4ad8-b29a-494d224e43ef","status":"finished","class":{"system":"http://terminology.hl7.org/CodeSystem/v3-ActCode","code":"EMER","display":"emergency"},"type":[{"coding":[{"system":"http://terminology.hl7.org/CodeSystem/encounter-type","code":"OKI"}]}],"subject":{"reference":"Patient/806354da-90b7-47c8-8b43-bcc8e41cf585"},"period":{"start":"2022-12-04T00:00:00+00:00","end":"2022-12-09T00:00:00+00:00"}},"request":{"method":"POST","url":"Encounter"}},{"fullUrl":"Encounter/fc3d10d6-977e-4667-a593-85369bb99fc8","resource":{"resourceType":"Encounter","id":"fc3d10d6-977e-4667-a593-85369bb99fc8","status":"finished","class":{"system":"http://terminology.hl7.org/CodeSystem/v3-ActCode","code":"VR","display":"virtual"},"type":[{"coding":[{"system":"http://terminology.hl7.org/CodeSystem/encounter-type","code":"CCS60"}]}],"subject":{"reference":"Patient/806354da-90b7-47c8-8b43-bcc8e41cf585"},"period":{"start":"2022-06-03T00:00:00+00:00","end":"2022-06-04T00:00:00+00:00"}},"request":{"method":"POST","url":"Encounter"}},{"fullUrl":"Patient/da3bc0ab-5cb1-41a6-a67a-3d81e3d5c23b","resource":{"resourceType":"Patient","id":"da3bc0ab-5cb1-41a6-a67a-3d81e3d5c23b","identifier":[{"type":{"coding":[{"system":"http://terminology.hl7.org/CodeSystem/v2-0203","code":"MR"}]},"system":"urn:fhirgen:mrn","value":"418-50-4665"}],"name":[{"use":"official","family":"Baker","given":["Andrew"]},{"use":"maiden","family":"Phillips"}],"telecom":[{"system":"phone","value":"938-570-7687x502","use":"home"},{"system":"email","value":"lindsaypatton@yahoo.com","use":"home"}],"gender":"male","birthDate":"1957-06-08","address":[{"use":"home","line":["85496 Jessica Tunnel Apt. 337"],"city":"East Kim","state":"OH","postalCode":"55046"},{"use":"old","line":["89515 Lowe Tunnel"],"city":"New Carl","state":"OH","postalCode":"42721"}]},"request":{"method":"POST","url":"Patient"}},{"fullUrl":"Observation/006e8d09-2a17-4701-9f62-76fd51524304","resource":{"resourceType":"Observation","id":"006e8d09-2a17-4701-9f62-76fd51524304","status":"final","code":{"coding":[{"system":"http://loinc.org","code":"51475-2"}]},"subject":{"reference":"Patient/da3bc0ab-5cb1-41a6-a67a-3d81e3d5c23b"},"effectiveDateTime":"2022-02-25T00:00:00+00:00","valueRatio":{"numerator":{"value":1},"denominator":{"value":64}}},"request":{"method":"POST","url":"Observation"}},{"fullUrl":"Observation/1137e6c4-1967-4523-9bb2-26aeb3b8e5d9","resource":{"resourceType":"Observation","id":"1137e6c4-1967-4523-9bb2-26aeb3b8e5d9","status":"final","code":{"coding":[{"system":"http://loinc.org","code":"22590-4"}]},"subject":{"reference":"Patient/da3bc0ab-5cb1-41a6-a67a-3d81e3d5c23b"},"effectiveDateTime":"2022-06-26T00:00:00+00:00","valueRatio":{"numerator":{"value":1},"denominator":{"value":64}}},"request":{"method":"POST","url":"Observation"}},{"fullUrl":"Condition/4f0eb28c-4ccb-4c54-b901-d82a4432d6f5","resource":{"resourceType":"Condition","id":"4f0eb28c-4ccb-4c54-b901-d82a4432d6f5","code":{"coding":[{"system":"http://snomed.info/sct","code":"30746006"}]},"subject":{"reference":"Patient/da3bc0ab-5cb1-41a6-a67a-3d81e3d5c23b"},"onsetDateTime":"2022-09-30T00:00:00+00:00"},"request":{"method":"POST","url":"Condition"}},{"fullUrl":"Condition/4a5a937b-8c6f-4f46-9aea-73ae96b83fda","resource":{"resourceType":"Condition","id":"4a5a937b-8c6f-4f46-9aea-73ae96b83fda","code":{"coding":[{"system":"http://snomed.info/sct","code":"3951002"}]},"subject":{"reference":"Patient/da3bc0ab-5cb1-41a6-a67a-3d81e3d5c23b"},"onsetDateTime":"2022-08-07T00:00:00+00:00"},"request":{"method":"POST","url":"Condition"}},{"fullUrl":"Condition/800416a8-8f89-4074-b7cf-f7ca53c85f42","resource":{"resourceType":"Condition","id":"800416a8-8f89-4074-b7cf-f7ca53c85f42","code":{"coding":[{"system":"http://snomed.info/sct","code":"271939006"}]},"subject":{"reference":"Patient/da3bc0ab-5cb1-41a6-a67a-3d81e3d5c23b"},"onsetDateTime":"2022-11-18T00:00:00+00:00"},"request":{"method":"POST","url":"Condition"}},{"fullUrl":"Condition/8c9da3f4-7390-45ab-952c-fded935999ef","resource":{"resourceType":"Condition","id":"8c9da3f4-7390-45ab-952c-fded935999ef","code":{"coding":[{"system":"http://snomed.info/sct","code":"418290006"}]},"subject":{"reference":"Patient/da3bc0ab-5cb1-41a6-a67a-3d81e3d5c23b"},"onsetDateTime":"2022-06-21T00:00:00+00:00"},"request":{"method":"POST","url":"Condition"}},{"fullUrl":"Observation/1666c407-522f-4d0f-9a29-c112618c5187","resource":{"resourceType":"Observation","id":"1666c407-522f-4d0f-9a29-c112618c5187","status":"final","code":{"coding":[{"system":"http://loinc.org","code":"49498-9"}]},"subject":{"reference":"Patient/da3bc0ab-5cb1-41a6-a67a-3d81e3d5c23b"},"effectiveDateTime":"2022-05-15T00:00:00+00:00","valueQuantity":{"value":4.9}},"request":{"method":"POST","url":"Observation"}},{"fullUrl":"Observation/9a4d88d3-c1d7-4653-a9cc-5eb8653862ef","resource":{"resourceType":"Observation","id":"9a4d88d3-c1d7-4653-a9cc-5eb8653862ef","status":"final","code":{"coding":[{"system":"http://www.ama-assn.org/go/cpt","code":"85048"}]},"subject":{"reference":"Patient/da3bc0ab-5cb1-41a6-a67a-3d81e3d5c23b"},"effectiveDateTime":"2022-08-29T00:00:00+00:00","valueQuantity":{"value":7.5}},"request":{"method":"POST","url":"Observation"}},{"fullUrl":"Observation/8a363bb4-8919-455d-8098-b944aebf832d","resource":{"resourceType":"Observation","id":"8a363bb4-8919-455d-8098-b944aebf832d","status":"final","code":{"coding":[{"system":"http://loinc.org","code":"49498-9"}]},"subject":{"reference":"Patient/da3bc0ab-5cb1-41a6-a67a-3d81e3d5c23b"},"effectiveDateTime":"2022-04-30T00:00:00+00:00"},"request":{"method":"POST","url":"Observation"}},{"fullUrl":"Observation/e561f792-271e-44c1-a16e-bad78965c641","resource":{"resourceType":"Observation","id":"e561f792-271e-44c1-a16e-bad78965c641","status":"final","code":{"coding":[{"system":"http://loinc.org","code":"49498-9"}]},"subject":{"reference":"Patient/da3bc0ab-5cb1-41a6-a67a-3d81e3d5c23b"},"effectiveDateTime":"2022-01-29T00:00:00+00:00"},"request":{"method":"POST","url":"Observation"}},{"fullUrl":"Observation/c738a6e1-69cb-45bc-a73a-64505d51e0fb","resource":{"resourceType":"Observation","id":"c738a6e1-69cb-45bc-a73a-64505d51e0fb","status":"final","code":{"coding":[{"system":"http://loinc.org","code":"49498-9"}]},"subject":{"reference":"Patient/da3bc0ab-5cb1-41a6-a67a-3d81e3d5c23b"},"effectiveDateTime":"2022-04-10T00:00:00+00:00"},"request":{"method":"POST","url":"Observation"}},{"fullUrl":"Procedure/220e16fb-e559-492b-b223-d6f9757e0cef","resource":{"resourceType":"Procedure","id":"220e16fb-e559-492b-b223-d6f9757e0cef","status":"completed","code":{"coding":[{"system":"http://snomed.info/sct","code":"189009"}]},"subject":{"reference":"Patient/da3bc0ab-5cb1-41a6-a67a-3d81e3d5c23b"},"performedDateTime":"2022-09-20T00:00:00+00:00"},"request":{"method":"POST","url":"Procedure"}},{"fullUrl":"Procedure/3e8ce667-7f7a-4fd7-8737-a9dd883e180a","resource":{"resourceType":"Procedure","id":"3e8ce667-7f7a-4fd7-8737-a9dd883e180a","status":"completed","code":{"coding":[{"system":"http://snomed.info/sct","code":"104001"}]},"subject":{"reference":"Patient/da3bc0ab-5cb1-41a6-a67a-3d81e3d5c23b"},"performedDateTime":"2022-10-05T00:00:00+00:00"},"request":{"method":"POST","url":"Procedure"}},{"fullUrl":"Procedure/0096b00d-851c-4df0-81b8-9575342496b9","resource":{"resourceType":"Procedure","id":"0096b00d-851c-4df0-81b8-9575342496b9","status":"completed","code":{"coding":[{"system":"http://snomed.info/sct","code":"647000"}]},"subject":{"reference":"Patient/da3bc0ab-5cb1-41a6-a67a-3d81e3d5c23b"},"performedDateTime":"2022-01-06T00:00:00+00:00"},"request":{"method":"POST","url":"Procedure"}},{"fullUrl":"MedicationStatement/5cc96faa-13ba-412d-ac73-506f1fca123a","resource":{"resourceType":"MedicationStatement","id":"5cc96faa-13ba-412d-ac73-506f1fca123a","status":"completed","medicationCodeableConcept":{"coding":[{"system":"http://www.nlm.nih.gov/research/umls/rxnorm","code":"8698"}]},"subject":{"reference":"Patient/da3bc0ab-5cb1-41a6-a67a-3d81e3d5c23b"},"effectiveDateTime":"2022-11-17T00:00:00+00:00","dosage":[{"doseAndRate":[{"doseQuantity":{"value":1,"unit":"TAB","system":"http://terminology.hl7.org/CodeSystem/v3-orderableDrugForm","code":"TAB"}}]}]},"request":{"method":"POST","url":"MedicationStatement"}},{"fullUrl":"MedicationStatement/d5c91afc-7c78-47f8-81d6-7bf82cfdf7ee","resource":{"resourceType":"MedicationStatement","id":"d5c91afc-7c78-47f8-81d6-7bf82cfdf7ee","status":"completed","medicationCodeableConcept":{"coding":[{"system":"http://www.nlm.nih.gov/research/umls/rxnorm","code":"7984"}]},"subject":{"reference":"Patient/da3bc0ab-5cb1-41a6-a67a-3d81e3d5c23b"},"effectiveDateTime":"2022-09-30T00:00:00+00:00","dosage":[{"doseAndRate":[{"doseQuantity":{"value":1,"unit":"TAB","system":"http://terminology.hl7.org/CodeSystem/v3-orderableDrugForm","code":"TAB"}}]}]},"request":{"method":"POST","url":"MedicationStatement"}},{"fullUrl":"MedicationStatement/e90805aa-6d6d-4c3f-93d3-51bd8187c602","resource":{"resourceType":"MedicationStatement","id":"e90805aa-6d6d-4c3f-93d3-51bd8187c602","status":"completed","medicationCodeableConcept":{"coding":[{"system":"http://www.nlm.nih.gov/research/umls/rxnorm","code":"8698"}]},"subject":{"reference":"Patient/da3bc0ab-5cb1-41a6-a67a-3d81e3d5c23b"},"effectiveDateTime":"2022-11-22T00:00:00+00:00","dosage":[{"doseAndRate":[{"doseQuantity":{"value":3.6,"unit":"TAB","system":"http://terminology.hl7.org/CodeSystem/v3-orderableDrugForm","code":"TAB"}}]}]},"request":{"method":"POST","url":"MedicationStatement"}},{"fullUrl":"MedicationStatement/dee19364-bbce-4ff8-8c88-4fefea71de00","resource":{"resourceType":"MedicationStatement","id":"dee19364-bbce-4ff8-8c88-4fefea71de00","status":"completed","medicationCodeableConcept":{"coding":[{"system":"http://www.nlm.nih.gov/research/umls/rxnorm","code":"10395"}]},"subject":{"reference":"Patient/da3bc0ab-5cb1-41a6-a67a-3d81e3d5c23b"},"effectiveDateTime":"2022-01-14T00:00:00+00:00","dosage":[{"doseAndRate":[{"doseQuantity":{"value":5.3,"unit":"TAB","system":"http://terminology.hl7.org/CodeSystem/v3-orderableDrugForm","code":"TAB"}}]}]},"request":{"method":"POST","url":"MedicationStatement"}},{"fullUrl":"Encounter/7ec11964-debc-4951-aedd-625b83c40ed2","resource":{"resourceType":"Encounter","id":"7ec11964-debc-4951-aedd-625b83c40ed2","status":"finished","class":{"system":"http://terminology.hl7.org/CodeSystem/v3-ActCode","code":"IMP","display":"inpatient encounter"},"type":[{"coding":[{"system":"http://terminology.hl7.org/CodeSystem/encounter-type","code":"ADMS"}]}],"subject":{"reference":"Patient/da3bc0ab-5cb1-41a6-a67a-3d81e3d5c23b"},"period":{"start":"2022-07-22T00:00:00+00:00","end":"2022-07-23T00:00:00+00:00"}},"request":{"method":"POST","url":"Encounter"}},{"fullUrl":"Encounter/26b89a00-e30d-4f01-a529-ebb88ff7f21d","resource":{"resourceType":"Encounter","id":"26b89a00-e30d-4f01-a529-ebb88ff7f21d","status":"finished","class":{"system":"http://terminology.hl7.org/CodeSystem/v3-ActCode","code":"IMP","display":"inpatient encounter"},"type":[{"coding":[{"system":"http://terminology.hl7.org/CodeSystem/encounter-type","code":"CCS60"}]}],"subject":{"reference":"Patient/da3bc0ab-5cb1-41a6-a67a-3d81e3d5c23b"},"period":{"start":"2022-03-15T00:00:00+00:00","end":"2022-03-22T00:00:00+00:00"}},"request":{"method":"POST","url":"Encounter"}},{"fullUrl":"Encounter/7fc34ef2-2a5d-4406-b756-39c0c354256b","resource":{"resourceType":"Encounter","id":"7fc34ef2-2a5d-4406-b756-39c0c354256b","status":"finished","class":{"system":"http://terminology.hl7.org/CodeSystem/v3-ActCode","code":"IMP","display":"inpatient encounter"},"type":[{"coding":[{"system":"http://terminology.hl7.org/CodeSystem/encounter-type","code":"OKI"}]}],"subject":{"reference":"Patient/da3bc0ab-5cb1-41a6-a67a-3d81e3d5c23b"},"period":{"start":"2022-05-20T00:00:00+00:00","end":"2022-05-28T00:00:00+00:00"}},"request":{"method":"POST","url":"Encounter"}},{"fullUrl":"Encounter/dec2bf29-832b-4763-a113-adb1e0e4c6c6","resource":{"resourceType":"Encounter","id":"dec2bf29-832b-4763-a113-adb1e0e4c6c6","status":"finished","class":{"system":"http://terminology.hl7.org/CodeSystem/v3-ActCode","code":"EMER","display":"emergency"},"type":[{"coding":[{"system":"http://terminology.hl7.org/CodeSystem/encounter-type","code":"OKI"}]}],"subject":{"reference":"Patient/da3bc0ab-5cb1-41a6-a67a-3d81e3d5c23b"},"period":{"start":"2022-11-21T00:00:00+00:00","end":"2022-11-29T00:00:00+00:00"}},"request":{"method":"POST","url":"Encounter"}},{"fullUrl":"Encounter/6d82c954-fd7b-4fb4-aad9-91da778eb368","resource":{"resourceType":"Encounter","id":"6d82c954-fd7b-4fb4-aad9-91da778eb368","status":"finished","class":{"system":"http://terminology.hl7.org/CodeSystem/v3-ActCode","code":"OBSENC","display":"observation encounter"},"type":[{"coding":[{"system":"http://terminology.hl7.org/CodeSystem/encounter-type","code":"OKI"}]}],"subject":{"reference":"Patient/da3bc0ab-5cb1-41a6-a67a-3d81e3d5c23b"},"period":{"start":"2022-11-27T00:00:00+00:00","end":"2022-11-29T00:00:00+00:00"}},"request":{"method":"POST","url":"Encounter"}},{"fullUrl":"Encounter/e9d4f574-0c99-4dd2-ac6d-2c1ae94cb12b","resource":{"resourceType":"Encounter","id":"e9d4f574-0c99-4dd2-ac6d-2c1ae94cb12b","status":"finished","class":{"system":"http://terminology.hl7.org/CodeSystem/v3-ActCode","code":"IMP","display":"inpatient encounter"},"type":[{"coding":[{"system":"http://terminology.hl7.org/CodeSystem/encounter-type","code":"ADMS"}]}],"subject":{"reference":"Patient/da3bc0ab-5cb1-41a6-a67a-3d81e3d5c23b"},"period":{"start":"2022-03-17T00:00:00+00:00","end":"2022-03-18T00:00:00+00:00"}},"request":{"method":"POST","url":"Encounter"}},{"fullUrl":"Patient/1e8f3b9a-9524-429c-9826-127ed8404f13","resource":{"resourceType":"Patient","id":"1e8f3b9a-9524-429c-9826-127ed8404f13","identifier":[{"type":{"coding":[{"system":"http://terminology.hl7.org/CodeSystem/v2-0203","code":"MR"}]},"system":"urn:fhirgen:mrn","value":"168-54-1388"}],"name":[{"use":"official","family":"Owen","given":["Jill"]},{"use":"maiden","family":"Harvey"}],"telecom":[{"system":"phone","value":"001-699-855-6059x322","use":"mobile"},{"system":"email","value":"courtney14@gmail.com","use":"work"}],"gender":"female","birthDate":"1983-09-13","address":[{"use":"home","line":["2440 Saunders Ranch Suite 403"],"city":"Tammyburgh","state":"MN","postalCode":"66514"},{"use":"old","line":["95456 Lindsey Place"],"city":"Clintonberg","state":"VA","postalCode":"35043"}]},"request":{"method":"POST","url":"Patient"}},{"fullUrl":"Observation/11c57443-97ea-44eb-9203-d053b5be2bea","resource":{"resourceType":"Observation","id":"11c57443-97ea-44eb-9203-d053b5be2bea","status":"final","code":{"coding":[{"system":"http://loinc.org","code":"87925-4"}]},"subject":{"reference":"Patient/1e8f3b9a-9524-429c-9826-127ed8404f13"},"effectiveDateTime":"2022-04-18T00:00:00+00:00","valueRatio":{"numerator":{"value":1},"denominator":{"value":64}}},"request":{"method":"POST","url":"Observation"}},{"fullUrl":"Observation/33479a41-2bd3-4557-8356-25da976a0107","resource":{"resourceType":"Observation","id":"33479a41-2bd3-4557-8356-25da976a0107","status":"final","code":{"coding":[{"system":"http://loinc.org","code":"5394-2"}]},"subject":{"reference":"Patient/1e8f3b9a-9524-429c-9826-127ed8404f13"},"effectiveDateTime":"2022-03-02T00:00:00+00:00","valueRatio":{"numerator":{"value":1},"denominator":{"value":32}}},"request":{"method":"POST","url":"Observation"}},{"fullUrl":"Condition/eb6dca4b-203d-487b-87c6-7333c70cc685","resource":{"resourceType":"Condition","id":"eb6dca4b-203d-487b-87c6-7333c70cc685","code":{"coding":[{"system":"http://snomed.info/sct","code":"271807003"}]},"subject":{"reference":"Patient/1e8f3b9a-9524-429c-9826-127ed8404f13"},"onsetDateTime":"2022-10-27T00:00:00+00:00"},"request":{"method":"POST","url":"Condition"}},{"fullUrl":"Condition/8797ae98-25db-42ce-9efd-dcec7012d2e6","resource":{"resourceType":"Condition","id":"8797ae98-25db-42ce-9efd-dcec7012d2e6","code":{"coding":[{"system":"http://snomed.info/sct","code":"386661006"}]},"subject":{"reference":"Patient/1e8f3b9a-9524-429c-9826-127ed8404f13"},"onsetDateTime":"2022-11-11T00:00:00+00:00"},"request":{"method":"POST","url":"Condition"}},{"fullUrl":"Condition/5e2af8cf-b52d-4673-91b5-d0712b635f4f","resource":{"resourceType":"Condition","id":"5e2af8cf-b52d-4673-91b5-d0712b635f4f","code":{"coding":[{"system":"http://snomed.info/sct","code":"709977002"}]},"subject":{"reference":"Patient/1e8f3b9a-9524-429c-9826-127ed8404f13"},"onsetDateTime":"2022-02-28T00:00:00+00:00"},"request":{"method":"POST","url":"Condition"}},{"fullUrl":"Observation/a635a169-cb68-484d-aeb4-9ea3843bf8f2","resource":{"resourceType":"Observation","id":"a635a169-cb68-484d-aeb4-9ea3843bf8f2","status":"final","code":{"coding":[{"system":"http://loinc.org","code":"6690-2"}]},"subject":{"reference":"Patient/1e8f3b9a-9524-429c-9826-127ed8404f13"},"effectiveDateTime":"2022-10-06T00:00:00+00:00","valueQuantity":{"value":7.2}},"request":{"method":"POST","url":"Observation"}},{"fullUrl":"Observation/96efc60d-6eb7-451a-9638-e096f74b9e6d","resource":{"resourceType":"Observation","id":"96efc60d-6eb7-451a-9638-e096f74b9e6d","status":"final","code":{"coding":[{"system":"http://loinc.org","code":"804-5"}]},"subject":{"reference":"Patient/1e8f3b9a-9524-429c-9826-127ed8404f13"},"effectiveDateTime":"2022-08-06T00:00:00+00:00","valueQuantity":{"value":6.9}},"request":{"method":"POST","url":"Observation"}},{"fullUrl":"Observation/47c12cf1-1e9c-417a-8cdc-a24b351f61e1","resource":{"resourceType":"Observation","id":"47c12cf1-1e9c-417a-8cdc-a24b351f61e1","status":"final","code":{"coding":[{"system":"http://loinc.org","code":"6690-2"}]},"subject":{"reference":"Patient/1e8f3b9a-9524-429c-9826-127ed8404f13"},"effectiveDateTime":"2022-04-22T00:00:00+00:00","valueQuantity":{"value":5.1}},"request":{"method":"POST","url":"Observation"}},{"fullUrl":"Observation/38314ede-ef20-43dc-800d-e2439708b969","resource":{"resourceType":"Observation","id":"38314ede-ef20-43dc-800d-e2439708b969","status":"final","code":{"coding":[{"system":"http://loinc.org","code":"49498-9"}]},"subject":{"reference":"Patient/1e8f3b9a-9524-429c-9826-127ed8404f13"},"effectiveDateTime":"2022-01-12T00:00:00+00:00"},"request":{"method":"POST","url":"Observation"}},{"fullUrl":"Observation/46bd7377-f1b1-4515-afdf-344da54601b7","resource":{"resourceType":"Observation","id":"46bd7377-f1b1-4515-afdf-344da54601b7","status":"final","code":{"coding":[{"system":"http://loinc.org","code":"49498-9"}]},"subject":{"reference":"Patient/1e8f3b9a-9524-429c-9826-127ed8404f13"},"effectiveDateTime":"2022-06-25T00:00:00+00:00"},"request":{"method":"POST","url":"Observation"}},{"fullUrl":"Procedure/9fe17b7e-7b88-4091-8f5d-737076cd6933","resource":{"resourceType":"Procedure","id":"9fe17b7e-7b88-4091-8f5d-737076cd6933","status":"completed","code":{"coding":[{"system":"http://snomed.info/sct","code":"104001"}]},"subject":{"reference":"Patient/1e8f3b9a-9524-429c-9826-127ed8404f13"},"performedDateTime":"2022-10-08T00:00:00+00:00"},"request":{"method":"POST","url":"Procedure"}},{"fullUrl":"Procedure/be797d79-715d-4383-bcab-1af8fe749a40","resource":{"resourceType":"Procedure","id":"be797d79-715d-4383-bcab-1af8fe749a40","status":"completed","code":{"coding":[{"system":"http://snomed.info/sct","code":"115006"}]},"subject":{"reference":"Patient/1e8f3b9a-9524-429c-9826-127ed8404f13"},"performedDateTime":"2022-08-19T00:00:00+00:00"},"request":{"method":"POST","url":"Procedure"}},{"fullUrl":"Procedure/1e35e75e-ed6d-4c22-baaa-b5aa2023459d","resource":{"resourceType":"Procedure","id":"1e35e75e-ed6d-4c22-baaa-b5aa2023459d","status":"completed","code":{"coding":[{"system":"http://snomed.info/sct","code":"115006"}]},"subject":{"reference":"Patient/1e8f3b9a-9524-429c-9826-127ed8404f13"},"performedDateTime":"2022-02-07T00:00:00+00:00"},"request":{"method":"POST","url":"Procedure"}},{"fullUrl":"MedicationStatement/45bf7c1c-8ee0-4dae-bd5f-1078922c92d9","resource":{"resourceType":"MedicationStatement","id":"45bf7c1c-8ee0-4dae-bd5f-1078922c92d9","status":"completed","medicationCodeableConcept":{"coding":[{"system":"http://www.nlm.nih.gov/research/umls/rxnorm","code":"8698"}]},"subject":{"reference":"Patient/1e8f3b9a-9524-429c-9826-127ed8404f13"},"effectiveDateTime":"2022-02-03T00:00:00+00:00","dosage":[{"doseAndRate":[{"doseQuantity":{"value":1,"unit":"TAB","system":"http://terminology.hl7.org/CodeSystem/v3-orderableDrugForm","code":"TAB"}}]}]},"request":{"method":"POST","url":"MedicationStatement"}},{"fullUrl":"MedicationStatement/706f6cce-27ed-4ecf-b39e-ad2b4f32947a","resource":{"resourceType":"MedicationStatement","id":"706f6cce-27ed-4ecf-b39e-ad2b4f32947a","status":"completed","medicationCodeableConcept":{"coding":[{"system":"http://www.nlm.nih.gov/research/umls/rxnorm","code":"7984"}]},"subject":{"reference":"Patient/1e8f3b9a-9524-429c-9826-127ed8404f13"},"effectiveDateTime":"2022-08-01T00:00:00+00:00","dosage":[{"doseAndRate":[{"doseQuantity":{"value":1,"unit":"TAB","system":"http://terminology.hl7.org/CodeSystem/v3-orderableDrugForm","code":"TAB"}}]}]},"request":{"method":"POST","url":"MedicationStatement"}},{"fullUrl":"MedicationStatement/523611a9-33d8-4e43-8825-6f71fe687872","resource":{"resourceType":"MedicationStatement","id":"523611a9-33d8-4e43-8825-6f71fe687872","status":"completed","medicationCodeableConcept":{"coding":[{"system":"http://www.nlm.nih.gov/research/umls/rxnorm","code":"8698"}]},"subject":{"reference":"Patient/1e8f3b9a-9524-429c-9826-127ed8404f13"},"effectiveDateTime":"2022-08-17T00:00:00+00:00","dosage":[{"doseAndRate":[{"doseQuantity":{"value":2,"unit":"TAB","system":"http://terminology.hl7.org/CodeSystem/v3-orderableDrugForm","code":"TAB"}}]}]},"request":{"method":"POST","url":"MedicationStatement"}},{"fullUrl":"MedicationStatement/bcd960b8-20e3-4db1-9329-73e8713166ec","resource":{"resourceType":"MedicationStatement","id":"bcd960b8-20e3-4db1-9329-73e8713166ec","status":"completed","medicationCodeableConcept":{"coding":[{"system":"http://www.nlm.nih.gov/research/umls/rxnorm","code":"7980"}]},"subject":{"reference":"Patient/1e8f3b9a-9524-429c-9826-127ed8404f13"},"effectiveDateTime":"2022-07-14T00:00:00+00:00","dosage":[{"doseAndRate":[{"doseQuantity":{"value":3.9,"unit":"TAB","system":"http://terminology.hl7.org/CodeSystem/v3-orderableDrugForm","code":"TAB"}}]}]},"request":{"method":"POST","url":"MedicationStatement"}},{"fullUrl":"MedicationStatement/65824eac-067a-4873-a0a7-b930c23f55e1","resource":{"resourceType":"MedicationStatement","id":"65824eac-067a-4873-a0a7-b930c23f55e1","status":"completed","medicationCodeableConcept":{"coding":[{"system":"http://www.nlm.nih.gov/research/umls/rxnorm","code":"2193"}]},"subject":{"reference":"Patient/1e8f3b9a-9524-429c-9826-127ed8404f13"},"effectiveDateTime":"2022-12-04T00:00:00+00:00","dosage":[{"doseAndRate":[{"doseQuantity":{"value":6.6,"unit":"TAB","system":"http://terminology.hl7.org/CodeSystem/v3-orderableDrugForm","code":"TAB"}}]}]},"request":{"method":"POST","url":"MedicationStatement"}},{"fullUrl":"MedicationStatement/75f30ea9-95e8-4a31-862c-c4246b630d8c","resource":{"resourceType":"MedicationStatement","id":"75f30ea9-95e8-4a31-862c-c4246b630d8c","status":"completed","medicationCodeableConcept":{"coding":[{"system":"http://www.nlm.nih.gov/research/umls/rxnorm","code":"7980"}]},"subject":{"reference":"Patient/1e8f3b9a-9524-429c-9826-127ed8404f13"},"effectiveDateTime":"2022-12-02T00:00:00+00:00","dosage":[{"doseAndRate":[{"doseQuantity":{"value":4.7,"unit":"TAB","system":"http://terminology.hl7.org/CodeSystem/v3-orderableDrugForm","code":"TAB"}}]}]},"request":{"method":"POST","url":"MedicationStatement"}},{"fullUrl":"MedicationStatement/f323e839-3a71-46f9-b388-aef997086cf7","resource":{"resourceType":"MedicationStatement","id":"f323e839-3a71-46f9-b388-aef997086cf7","status":"completed","medicationCodeableConcept":{"coding":[{"system":"http://www.nlm.nih.gov/research/umls/rxnorm","code":"3640"}]},"subject":{"reference":"Patient/1e8f3b9a-9524-429c-9826-127ed8404f13"},"effectiveDateTime":"2022-01-22T00:00:00+00:00","dosage":[{"doseAndRate":[{"doseQuantity":{"value":5.7,"unit":"TAB","system":"http://terminology.hl7.org/CodeSystem/v3-orderableDrugForm","code":"TAB"}}]}]},"request":{"method":"POST","url":"MedicationStatement"}},{"fullUrl":"MedicationStatement/e48e36de-b857-4286-b24d-357aedaa4177","resource":{"resourceType":"MedicationStatement","id":"e48e36de-b857-4286-b24d-357aedaa4177","status":"completed","medicationCodeableConcept":{"coding":[{"system":"http://www.nlm.nih.gov/research/umls/rxnorm","code":"10395"}]},"subject":{"reference":"Patient/1e8f3b9a-9524-429c-9826-127ed8404f13"},"effectiveDateTime":"2022-07-26T00:00:00+00:00","dosage":[{"doseAndRate":[{"doseQuantity":{"value":4.7,"unit":"TAB","system":"http://terminology.hl7.org/CodeSystem/v3-orderableDrugForm","code":"TAB"}}]}]},"request":{"method":"POST","url":"MedicationStatement"}},{"fullUrl":"MedicationStatement/e86bda72-8375-443a-afce-88808092892b","resource":{"resourceType":"MedicationStatement","id":"e86bda72-8375-443a-afce-88808092892b","status":"completed","medicationCodeableConcept":{"coding":[{"system":"http://www.nlm.nih.gov/research/umls/rxnorm","code":"18631"}]},"subject":{"reference":"Patient/1e8f3b9a-9524-429c-9826-127ed8404f13"},"effectiveDateTime":"2022-12-15T00:00:00+00:00","dosage":[{"doseAndRate":[{"doseQuantity":{"value":3.9,"unit":"TAB","system":"http://terminology.hl7.org/CodeSystem/v3-orderableDrugForm","code":"TAB"}}]}]},"request":{"method":"POST","url":"MedicationStatement"}},{"fullUrl":"MedicationStatement/c6762c57-dbe8-4eaa-ba11-8c11fcfb068a","resource":{"resourceType":"MedicationStatement","id":"c6762c57-dbe8-4eaa-ba11-8c11fcfb068a","status":"completed","medicationCodeableConcept":{"coding":[{"system":"http://www.nlm.nih.gov/research/umls/rxnorm","code":"7980"}]},"subject":{"reference":"Patient/1e8f3b9a-9524-429c-9826-127ed8404f13"},"effectiveDateTime":"2022-10-23T00:00:00+00:00","dosage":[{"doseAndRate":[{"doseQuantity":{"value":6.9,"unit":"TAB","system":"http://terminology.hl7.org/CodeSystem/v3-orderableDrugForm","code":"TAB"}}]}]},"request":{"method":"POST","url":"MedicationStatement"}},{"fullUrl":"Encounter/3096e968-3400-4af6-ad5b-181be1d675a7","resource":{"resourceType":"Encounter","id":"3096e968-3400-4af6-ad5b-181be1d675a7","status":"finished","class":{"system":"http://terminology.hl7.org/CodeSystem/v3-ActCode","code":"IMP","display":"inpatient encounter"},"type":[{"coding":[{"system":"http://terminology.hl7.org/CodeSystem/encounter-type","code":"BD/BM-clin"}]}],"subject":{"reference":"Patient/1e8f3b9a-9524-429c-9826-127ed8404f13"},"period":{"start":"2022-10-21T00:00:00+00:00","end":"2022-10-25T00:00:00+00:00"}},"request":{"method":"POST","url":"Encounter"}},{"fullUrl":"Encounter/77d4b5a0-6d94-4b39-baba-09f1a7fffce1","resource":{"resourceType":"Encounter","id":"77d4b5a0-6d94-4b39-baba-09f1a7fffce1","status":"finished","class":{"system":"http://terminology.hl7.org/CodeSystem/v3-ActCode","code":"IMP","display":"inpatient encounter"},"type":[{"coding":[{"system":"http://terminology.hl7.org/CodeSystem/encounter-type","code":"CCS60"}]}],"subject":{"reference":"Patient/1e8f3b9a-9524-429c-9826-127ed8404f13"},"period":{"start":"2022-12-07T00:00:00+00:00","end":"2022-12-08T00:00:00+00:00"}},"request":{"method":"POST","url":"Encounter"}},{"fullUrl":"Encounter/07fc1ad7-512e-4310-96c3-bbb2487ee379","resource":{"resourceType":"Encounter","id":"07fc1ad7-512e-4310-96c3-bbb2487ee379","status":"finished","class":{"system":"http://terminology.hl7.org/CodeSystem/v3-ActCode","code":"IMP","display":"inpatient encounter"},"type":[{"coding":[{"system":"http://terminology.hl7.org/CodeSystem/encounter-type","code":"ADMS"}]}],"subject":{"reference":"Patient/1e8f3b9a-9524-429c-9826-127ed8404f13"},"period":{"start":"2022-05-27T00:00:00+00:00","end":"2022-05-31T00:00:00+00:00"}},"request":{"method":"POST","url":"Encounter"}},{"fullUrl":"Encounter/ba1bdd90-73c0-470e-9b4e-2622fb03c605","resource":{"resourceType":"Encounter","id":"ba1bdd90-73c0-470e-9b4e-2622fb03c605","status":"finished","class":{"system":"http://terminology.hl7.org/CodeSystem/v3-ActCode","code":"FLD","display":"field"},"type":[{"coding":[{"system":"http://terminology.hl7.org/CodeSystem/encounter-type","code":"CCS60"}]}],"subject":{"reference":"Patient/1e8f3b9a-9524-429c-9826-127ed8404f13"},"period":{"start":"2022-04-09T00:00:00+00:00","end":"2022-04-18T00:00:00+00:00"}},"request":{"method":"POST","url":"Encounter"}},{"fullUrl":"Encounter/59d43210-af02-4c66-9bf9-67dc5bbd91b9","resource":{"resourceType":"Encounter","id":"59d43210-af02-4c66-9bf9-67dc5bbd91b9","status":"finished","class":{"system":"http://terminology.hl7.org/CodeSystem/v3-ActCode","code":"HH","display":"home health"},"type":[{"coding":[{"system":"http://terminology.hl7.org/CodeSystem/encounter-type","code":"CCS60"}]}],"subject":{"reference":"Patient/1e8f3b9a-9524-429c-9826-127ed8404f13"},"period":{"start":"2022-08-26T00:00:00+00:00","end":"2022-09-02T00:00:00+00:00"}},"request":{"method":"POST","url":"Encounter"}},{"fullUrl":"Patient/8efe0077-4d0b-4f06-8c0f-8222453b6026","resource":{"resourceType":"Patient","id":"8efe0077-4d0b-4f06-8c0f-8222453b6026","identifier":[{"type":{"coding":[{"system":"http://terminology.hl7.org/CodeSystem/v2-0203","code":"MR"}]},"system":"urn:fhirgen:mrn","value":"178-58-3208"}],"name":[{"use":"official","family":"Brewer","given":["Tina"]},{"use":"maiden","family":"Fitzpatrick"}],"telecom":[{"system":"phone","value":"3072501103","use":"mobile"},{"system":"email","value":"donaldbecker@gmail.com","use":"mobile"}],"gender":"female","birthDate":"1982-09-10","address":[{"use":"home","line":["9619 Cisneros Isle"],"city":"Williamschester","state":"AZ","postalCode":"55349"},{"use":"old","line":["1388 Allen Road"],"city":"Owensfort","state":"UT","postalCode":"47556"}]},"request":{"method":"POST","url":"Patient"}},{"fullUrl":"Observation/4f0bfeed-0e35-4c9e-ac1d-e745cf91cc13","resource":{"resourceType":"Observation","id":"4f0bfeed-0e35-4c9e-ac1d-e745cf91cc13","status":"final","code":{"coding":[{"system":"http://loinc.org","code":"31146-4"}]},"subject":{"reference":"Patient/8efe0077-4d0b-4f06-8c0f-8222453b6026"},"effectiveDateTime":"2022-01-01T00:00:00+00:00","valueRatio":{"numerator":{"value":1},"denominator":{"value":64}}},"request":{"method":"POST","url":"Observation"}},{"fullUrl":"Observation/cb1f6c50-8da2-4fd5-81ed-24856f81508a","resource":{"resourceType":"Observation","id":"cb1f6c50-8da2-4fd5-81ed-24856f81508a","status":"final","code":{"coding":[{"system":"http://loinc.org","code":"22590-4"}]},"subject":{"reference":"Patient/8efe0077-4d0b-4f06-8c0f-8222453b6026"},"effectiveDateTime":"2022-05-04T00:00:00+00:00","valueRatio":{"numerator":{"value":1},"denominator":{"value":32}}},"request":{"method":"POST","url":"Observation"}},{"fullUrl":"Condition/46f25673-eb1f-4689-8547-3b3204a688ce","resource":{"resourceType":"Condition","id":"46f25673-eb1f-4689-8547-3b3204a688ce","code":{"coding":[{"system":"http://snomed.info/sct","code":"709977002"}]},"subject":{"reference":"Patient/8efe0077-4d0b-4f06-8c0f-8222453b6026"},"onsetDateTime":"2022-02-03T00:00:00+00:00"},"request":{"method":"POST","url":"Condition"}},{"fullUrl":"Condition/c74f6946-2489-4765-bac4-8dac7947b872","resource":{"resourceType":"Condition","id":"c74f6946-2489-4765-bac4-8dac7947b872","code":{"coding":[{"system":"http://snomed.info/sct","code":"271807003"}]},"subject":{"reference":"Patient/8efe0077-4d0b-4f06-8c0f-8222453b6026"},"onsetDateTime":"2022-01-05T00:00:00+00:00"},"request":{"method":"POST","url":"Condition"}},{"fullUrl":"Condition/39474259-4812-4834-862b-7204fdffe3e1","resource":{"resourceType":"Condition","id":"39474259-4812-4834-862b-7204fdffe3e1","code":{"coding":[{"system":"http://snomed.info/sct","code":"297123002"}]},"subject":{"reference":"Patient/8efe0077-4d0b-4f06-8c0f-8222453b6026"},"onsetDateTime":"2022-07-22T00:00:00+00:00"},"request":{"method":"POST","url":"Condition"}},{"fullUrl":"Condition/dca9120b-dda9-42bf-b5a9-8ad448536bcd","resource":{"resourceType":"Condition","id":"dca9120b-dda9-42bf-b5a9-8ad448536bcd","code":{"coding":[{"system":"http://snomed.info/sct","code":"271807003"}]},"subject":{"reference":"Patient/8efe0077-4d0b-4f06-8c0f-8222453b6026"},"onsetDateTime":"2022-08-08T00:00:00+00:00"},"request":{"method":"POST","url":"Condition"}},{"fullUrl":"Condition/a8acb4b8-2eeb-44ba-bb50-b6484fffe607","resource":{"resourceType":"Condition","id":"a8acb4b8-2eeb-44ba-bb50-b6484fffe607","code":{"coding":[{"system":"http://snomed.info/sct","code":"79342006"}]},"subject":{"reference":"Patient/8efe0077-4d0b-4f06-8c0f-8222453b6026"},"onsetDateTime":"2022-01-21T00:00:00+00:00"},"request":{"method":"POST","url":"Condition"}},{"fullUrl":"Condition/49d36ddf-5273-420c-84dd-01f55f681cd8","resource":{"resourceType":"Condition","id":"49d36ddf-5273-420c-84dd-01f55f681cd8","code":{"coding":[{"system":"http://snomed.info/sct","code":"3951002"}]},"subject":{"reference":"Patient/8efe0077-4d0b-4f06-8c0f-8222453b6026"},"onsetDateTime":"2022-10-05T00:00:00+00:00"},"request":{"method":"POST","url":"Condition"}},{"fullUrl":"Observation/1458b309-3610-483d-a125-ca1491219eed","resource":{"resourceType":"Observation","id":"1458b309-3610-483d-a125-ca1491219eed","status":"final","code":{"coding":[{"system":"http://www.ama-assn.org/go/cpt","code":"85048"}]},"subject":{"reference":"Patient/8efe0077-4d0b-4f06-8c0f-8222453b6026"},"effectiveDateTime":"2022-08-14T00:00:00+00:00","valueQuantity":{"value":5.6}},"request":{"method":"POST","url":"Observation"}},{"fullUrl":"Observation/52ba7e79-e658-40dd-8c30-8df531ff5f65","resource":{"resourceType":"Observation","id":"52ba7e79-e658-40dd-8c30-8df531ff5f65","status":"final","code":{"coding":[{"system":"http://loinc.org","code":"6690-2"}]},"subject":{"reference":"Patient/8efe0077-4d0b-4f06-8c0f-8222453b6026"},"effectiveDateTime":"2022-08-29T00:00:00+00:00","valueQuantity":{"value":6.8}},"request":{"method":"POST","url":"Observation"}},{"fullUrl":"Observation/d2422cc2-df77-4963-a9d9-ab2fc9baf9ca","resource":{"resourceType":"Observation","id":"d2422cc2-df77-4963-a9d9-ab2fc9baf9ca","status":"final","code":{"coding":[{"system":"http://loinc.org","code":"49498-9"}]},"subject":{"reference":"Patient/8efe0077-4d0b-4f06-8c0f-8222453b6026"},"effectiveDateTime":"2022-12-29T00:00:00+00:00"},"request":{"method":"POST","url":"Observation"}},{"fullUrl":"Observation/55d4ec29-9edc-429c-9041-c6ed20b9f3d5","resource":{"resourceType":"Observation","id":"55d4ec29-9edc-429c-9041-c6ed20b9f3d5","status":"final","code":{"coding":[{"system":"http://loinc.org","code":"49498-9"}]},"subject":{"reference":"Patient/8efe0077-4d0b-4f06-8c0f-8222453b6026"},"effectiveDateTime":"2022-01-15T00:00:00+00:00"},"request":{"method":"POST","url":"Observation"}},{"fullUrl":"Procedure/c443ae3f-5298-4abb-b55a-c117103a9745","resource":{"resourceType":"Procedure","id":"c443ae3f-5298-4abb-b55a-c117103a9745","status":"completed","code":{"coding":[{"system":"http://snomed.info/sct","code":"115006"}]},"subject":{"reference":"Patient/8efe0077-4d0b-4f06-8c0f-8222453b6026"},"performedDateTime":"2022-03-07T00:00:00+00:00"},"request":{"method":"POST","url":"Procedure"}},{"fullUrl":"Procedure/de277aa4-9cc8-450f-b72a-e7477db44bf3","resource":{"resourceType":"Procedure","id":"de277aa4-9cc8-450f-b72a-e7477db44bf3","status":"completed","code":{"coding":[{"system":"http://snomed.info/sct","code":"146005"}]},"subject":{"reference":"Patient/8efe0077-4d0b-4f06-8c0f-8222453b6026"},"performedDateTime":"2022-06-02T00:00:00+00:00"},"request":{"method":"POST","url":"Procedure"}},{"fullUrl":"Procedure/67cc38bb-65bc-4e3a-a1d1-7a484db25d29","resource":{"resourceType":"Procedure","id":"67cc38bb-65bc-4e3a-a1d1-7a484db25d29","status":"completed","code":{"coding":[{"system":"http://snomed.info/sct","code":"647000"}]},"subject":{"reference":"Patient/8efe0077-4d0b-4f06-8c0f-8222453b6026"},"performedDateTime":"2022-12-20T00:00:00+00:00"},"request":{"method":"POST","url":"Procedure"}},{"fullUrl":"MedicationStatement/7a22cddc-0fd1-40c0-bfff-9e6beff291f5","resource":{"resourceType":"MedicationStatement","id":"7a22cddc-0fd1-40c0-bfff-9e6beff291f5","status":"completed","medicationCodeableConcept":{"coding":[{"system":"http://www.nlm.nih.gov/research/umls/rxnorm","code":"7984"}]},"subject":{"reference":"Patient/8efe0077-4d0b-4f06-8c0f-8222453b6026"},"effectiveDateTime":"2022-03-06T00:00:00+00:00","dosage":[{"doseAndRate":[{"doseQuantity":{"value":2,"unit":"TAB","system":"http://terminology.hl7.org/CodeSystem/v3-orderableDrugForm","code":"TAB"}}]}]},"request":{"method":"POST","url":"MedicationStatement"}},{"fullUrl":"MedicationStatement/7781ce27-5892-4a31-bccf-d14923a1ebb8","resource":{"resourceType":"MedicationStatement","id":"7781ce27-5892-4a31-bccf-d14923a1ebb8","status":"completed","medicationCodeableConcept":{"coding":[{"system":"http://www.nlm.nih.gov/research/umls/rxnorm","code":"7984"}]},"subject":{"reference":"Patient/8efe0077-4d0b-4f06-8c0f-8222453b6026"},"effectiveDateTime":"2022-01-24T00:00:00+00:00","dosage":[{"doseAndRate":[{"doseQuantity":{"value":2,"unit":"TAB","system":"http://terminology.hl7.org/CodeSystem/v3-orderableDrugForm","code":"TAB"}}]}]},"request":{"method":"POST","url":"MedicationStatement"}},{"fullUrl":"MedicationStatement/5cbd9640-ff71-4686-a89a-462bf37ce486","resource":{"resourceType":"MedicationStatement","id":"5cbd9640-ff71-4686-a89a-462bf37ce486","status":"completed","medicationCodeableConcept":{"coding":[{"system":"http://www.nlm.nih.gov/research/umls/rxnorm","code":"18631"}]},"subject":{"reference":"Patient/8efe0077-4d0b-4f06-8c0f-8222453b6026"},"effectiveDateTime":"2022-10-26T00:00:00+00:00","dosage":[{"doseAndRate":[{"doseQuantity":{"value":2,"unit":"TAB","system":"http://terminology.hl7.org/CodeSystem/v3-orderableDrugForm","code":"TAB"}}]}]},"request":{"method":"POST","url":"MedicationStatement"}},{"fullUrl":"MedicationStatement/c5bba8bc-7bb4-41a9-a2fb-d80bf788f1da","resource":{"resourceType":"MedicationStatement","id":"c5bba8bc-7bb4-41a9-a2fb-d80bf788f1da","status":"completed","medicationCodeableConcept":{"coding":[{"system":"http://www.nlm.nih.gov/research/umls/rxnorm","code":"2193"}]},"subject":{"reference":"Patient/8efe0077-4d0b-4f06-8c0f-8222453b6026"},"effectiveDateTime":"2022-12-11T00:00:00+00:00","dosage":[{"doseAndRate":[{"doseQuantity":{"value":1,"unit":"TAB","system":"http://terminology.hl7.org/CodeSystem/v3-orderableDrugForm","code":"TAB"}}]}]},"request":{"method":"POST","url":"MedicationStatement"}},{"fullUrl":"MedicationStatement/4b97ab2e-c79d-44e6-bd88-e2c03597a9fc","resource":{"resourceType":"MedicationStatement","id":"4b97ab2e-c79d-44e6-bd88-e2c03597a9fc","status":"completed","medicationCodeableConcept":{"coding":[{"system":"http://www.nlm.nih.gov/research/umls/rxnorm","code":"10395"}]},"subject":{"reference":"Patient/8efe0077-4d0b-4f06-8c0f-8222453b6026"},"effectiveDateTime":"2022-08-28T00:00:00+00:00","dosage":[{"doseAndRate":[{"doseQuantity":{"value":3.5,"unit":"TAB","system":"http://terminology.hl7.org/CodeSystem/v3-orderableDrugForm","code":"TAB"}}]}]},"request":{"method":"POST","url":"MedicationStatement"}},{"fullUrl":"MedicationStatement/04a48b0e-d97e-4e68-a2f8-7a8b4d3556e8","resource":{"resourceType":"MedicationStatement","id":"04a48b0e-d97e-4e68-a2f8-7a8b4d3556e8","status":"completed","medicationCodeableConcept":{"coding":[{"system":"http://www.nlm.nih.gov/research/umls/rxnorm","code":"2193"}]},"subject":{"reference":"Patient/8efe0077-4d0b-4f06-8c0f-8222453b6026"},"effectiveDateTime":"2022-09-13T00:00:00+00:00","dosage":[{"doseAndRate":[{"doseQuantity":{"value":6.6,"unit":"TAB","system":"http://terminology.hl7.org/CodeSystem/v3-orderableDrugForm","code":"TAB"}}]}]},"request":{"method":"POST","url":"MedicationStatement"}},{"fullUrl":"MedicationStatement/ecc1ea17-7860-4872-b9a3-547a565257b1","resource":{"resourceType":"MedicationStatement","id":"ecc1ea17-7860-4872-b9a3-547a565257b1","status":"completed","medicationCodeableConcept":{"coding":[{"system":"http://www.nlm.nih.gov/research/umls/rxnorm","code":"10395"}]},"subject":{"reference":"Patient/8efe0077-4d0b-4f06-8c0f-8222453b6026"},"effectiveDateTime":"2022-03-12T00:00:00+00:00","dosage":[{"doseAndRate":[{"doseQuantity":{"value":5.9,"unit":"TAB","system":"http://terminology.hl7.org/CodeSystem/v3-orderableDrugForm","code":"TAB"}}]}]},"request":{"method":"POST","url":"MedicationStatement"}},{"fullUrl":"MedicationStatement/4eab9348-9546-409b-beff-cbc2f0dba4ad","resource":{"resourceType":"MedicationStatement","id":"4eab9348-9546-409b-beff-cbc2f0dba4ad","status":"completed","medicationCodeableConcept":{"coding":[{"system":"http://www.nlm.nih.gov/research/umls/rxnorm","code":"18631"}]},"subject":{"reference":"Patient/8efe0077-4d0b-4f06-8c0f-8222453b6026"},"effectiveDateTime":"2022-07-14T00:00:00+00:00","dosage":[{"doseAndRate":[{"doseQuantity":{"value":6,"unit":"TAB","system":"http://terminology.hl7.org/CodeSystem/v3-orderableDrugForm","code":"TAB"}}]}]},"request":{"method":"POST","url":"MedicationStatement"}},{"fullUrl":"MedicationStatement/50ec69e4-26fa-4492-9968-4652482901e3","resource":{"resourceType":"MedicationStatement","id":"50ec69e4-26fa-4492-9968-4652482901e3","status":"completed","medicationCodeableConcept":{"coding":[{"system":"http://www.nlm.nih.gov/research/umls/rxnorm","code":"2193"}]},"subject":{"reference":"Patient/8efe0077-4d0b-4f06-8c0f-8222453b6026"},"effectiveDateTime":"2022-06-28T00:00:00+00:00","dosage":[{"doseAndRate":[{"doseQuantity":{"value":3.8,"unit":"TAB","system":"http://terminology.hl7.org/CodeSystem/v3-orderableDrugForm","code":"TAB"}}]}]},"request":{"method":"POST","url":"MedicationStatement"}},{"fullUrl":"MedicationStatement/c0e2f4e7-f4bf-4a2e-b5d3-19e905954065","resource":{"resourceType":"MedicationStatement","id":"c0e2f4e7-f4bf-4a2e-b5d3-19e905954065","status":"completed","medicationCodeableConcept":{"coding":[{"system":"http://www.nlm.nih.gov/research/umls/rxnorm","code":"10395"}]},"subject":{"reference":"Patient/8efe0077-4d0b-4f06-8c0f-8222453b6026"},"effectiveDateTime":"2022-02-16T00:00:00+00:00","dosage":[{"doseAndRate":[{"doseQuantity":{"value":6.2,"unit":"TAB","system":"http://terminology.hl7.org/CodeSystem/v3-orderableDrugForm","code":"TAB"}}]}]},"request":{"method":"POST","url":"MedicationStatement"}},{"fullUrl":"Encounter/64de3dc6-6d4c-4501-b9fc-ae35f7c01c29","resource":{"resourceType":"Encounter","id":"64de3dc6-6d4c-4501-b9fc-ae35f7c01c29","status":"finished","class":{"system":"http://terminology.hl7.org/CodeSystem/v3-ActCode","code":"IMP","display":"inpatient encounter"},"type":[{"coding":[{"system":"http://terminology.hl7.org/CodeSystem/encounter-type","code":"ADMS"}]}],"subject":{"reference":"Patient/8efe0077-4d0b-4f06-8c0f-8222453b6026"},"period":{"start":"2022-12-13T00:00:00+00:00","end":"2022-12-13T00:00:00+00:00"}},"request":{"method":"POST","url":"Encounter"}},{"fullUrl":"Encounter/43495d34-ca20-4dcc-ad7f-549b6eac9fe4","resource":{"resourceType":"Encounter","id":"43495d34-ca20-4dcc-ad7f-549b6eac9fe4","status":"finished","class":{"system":"http://terminology.hl7.org/CodeSystem/v3-ActCode","code":"IMP","display":"inpatient encounter"},"type":[{"coding":[{"system":"http://terminology.hl7.org/CodeSystem/encounter-type","code":"OKI"}]}],"subject":{"reference":"Patient/8efe0077-4d0b-4f06-8c0f-8222453b6026"},"period":{"start":"2022-11-14T00:00:00+00:00","end":"2022-11-22T00:00:00+00:00"}},"request":{"method":"POST","url":"Encounter"}},{"fullUrl":"Encounter/1e69fc14-add2-49fb-9ade-b264a8f5c3ef","resource":{"resourceType":"Encounter","id":"1e69fc14-add2-49fb-9ade-b264a8f5c3ef","status":"finished","class":{"system":"http://terminology.hl7.org/CodeSystem/v3-ActCode","code":"IMP","display":"inpatient encounter"},"type":[{"coding":[{"system":"http://terminology.hl7.org/CodeSystem/encounter-type","code":"OKI"}]}],"subject":{"reference":"Patient/8efe0077-4d0b-4f06-8c0f-8222453b6026"},"period":{"start":"2022-12-30T00:00:00+00:00","end":"2023-01-04T00:00:00+00:00"}},"request":{"method":"POST","url":"Encounter"}},{"fullUrl":"Encounter/5060937b-1332-4050-9b71-e6166a6a18cf","resource":{"resourceType":"Encounter","id":"5060937b-1332-4050-9b71-e6166a6a18cf","status":"finished","class":{"system":"http://terminology.hl7.org/CodeSystem/v3-ActCode","code":"PRENC","display":"pre-admission"},"type":[{"coding":[{"system":"http://terminology.hl7.org/CodeSystem/encounter-type","code":"BD/BM-clin"}]}],"subject":{"reference":"Patient/8efe0077-4d0b-4f06-8c0f-8222453b6026"},"period":{"start":"2022-07-25T00:00:00+00:00","end":"2022-07-31T00:00:00+00:00"}},"request":{"method":"POST","url":"Encounter"}},{"fullUrl":"Encounter/a47ed5d2-f716-436b-a9d5-0739656090f2","resource":{"resourceType":"Encounter","id":"a47ed5d2-f716-436b-a9d5-0739656090f2","status":"finished","class":{"system":"http://terminology.hl7.org/CodeSystem/v3-ActCode","code":"AMB","display":"ambulatory"},"type":[{"coding":[{"system":"http://terminology.hl7.org/CodeSystem/encounter-type","code":"BD/BM-clin"}]}],"subject":{"reference":"Patient/8efe0077-4d0b-4f06-8c0f-8222453b6026"},"period":{"start":"2022-07-23T00:00:00+00:00","end":"2022-07-23T00:00:00+00:00"}},"request":{"method":"POST","url":"Encounter"}},{"fullUrl":"Patient/1ded4878-4f93-4b1a-8983-5d96c71dd897","resource":{"resourceType":"Patient","id":"1ded4878-4f93-4b1a-8983-5d96c71dd897","identifier":[{"type":{"coding":[{"system":"http://terminology.hl7.org/CodeSystem/v2-0203","code":"MR"}]},"system":"urn:fhirgen:mrn","value":"714-06-8480"}],"name":[{"use":"official","family":"Anderson","given":["Christopher"]},{"use":"maiden","family":"Huffman"}],"telecom":[{"system":"phone","value":"001-487-974-7616x17120","use":"work"},{"system":"email","value":"dariusmiller@gmail.com","use":"home"}],"gender":"other","birthDate":"1963-04-27","address":[{"use":"home","line":["63794 Moore Station Apt. 013"],"city":"Simpsonberg","state":"AR","postalCode":"56622"},{"use":"old","line":["36885 Sarah Courts Apt. 590"],"city":"West Terrimouth","state":"VA","postalCode":"01167"}]},"request":{"method":"POST","url":"Patient"}},{"fullUrl":"Observation/49f02887-6a74-4fef-8cbf-153244d3b8ff","resource":{"resourceType":"Observation","id":"49f02887-6a74-4fef-8cbf-153244d3b8ff","status":"final","code":{"coding":[{"system":"http://loinc.org","code":"87925-4"}]},"subject":{"reference":"Patient/1ded4878-4f93-4b1a-8983-5d96c71dd897"},"effectiveDateTime":"2022-02-01T00:00:00+00:00","valueRatio":{"numerator":{"value":1},"denominator":{"value":4}}},"request":{"method":"POST","url":"Observation"}},{"fullUrl":"Observation/55be1472-805a-4779-a708-06a777434f5c","resource":{"resourceType":"Observation","id":"55be1472-805a-4779-a708-06a777434f5c","status":"final","code":{"coding":[{"system":"http://loinc.org","code":"5394-2"}]},"subject":{"reference":"Patient/1ded4878-4f93-4b1a-8983-5d96c71dd897"},"effectiveDateTime":"2022-04-28T00:00:00+00:00","valueRatio":{"numerator":{"value":1},"denominator":{"value":32}}},"request":{"method":"POST","url":"Observation"}},{"fullUrl":"Condition/35066c0f-a7e5-4187-a733-a544dcf81579","resource":{"resourceType":"Condition","id":"35066c0f-a7e5-4187-a733-a544dcf81579","code":{"coding":[{"system":"http://snomed.info/sct","code":"71315007"}]},"subject":{"reference":"Patient/1ded4878-4f93-4b1a-8983-5d96c71dd897"},"onsetDateTime":"2022-05-13T00:00:00+00:00"},"request":{"method":"POST","url":"Condition"}},{"fullUrl":"Condition/980a99bf-d48b-4aae-8fc1-c6fddbb8000c","resource":{"resourceType":"Condition","id":"980a99bf-d48b-4aae-8fc1-c6fddbb8000c","code":{"coding":[{"system":"http://snomed.info/sct","code":"18165001"}]},"subject":{"reference":"Patient/1ded4878-4f93-4b1a-8983-5d96c71dd897"},"onsetDateTime":"2022-10-29T00:00:00+00:00"},"request":{"method":"POST","url":"Condition"}},{"fullUrl":"Condition/60fd2ce8-f6a6-4db6-bcba-486e35949704","resource":{"resourceType":"Condition","id":"60fd2ce8-f6a6-4db6-bcba-486e35949704","code":{"coding":[{"system":"http://snomed.info/sct","code":"709977002"}]},"subject":{"reference":"Patient/1ded4878-4f93-4b1a-8983-5d96c71dd897"},"onsetDateTime":"2022-03-09T00:00:00+00:00"},"request":{"method":"POST","url":"Condition"}},{"fullUrl":"Condition/40836ea8-2b0a-4bf8-864b-96abdfc14e49","resource":{"resourceType":"Condition","id":"40836ea8-2b0a-4bf8-864b-96abdfc14e49","code":{"coding":[{"system":"http://snomed.info/sct","code":"198199009"}]},"subject":{"reference":"Patient/1ded4878-4f93-4b1a-8983-5d96c71dd897"},"onsetDateTime":"2022-10-27T00:00:00+00:00"},"request":{"method":"POST","url":"Condition"}},{"fullUrl":"Condition/60d2f97e-030b-4ecf-bd05-a003cd33c95e","resource":{"resourceType":"Condition","id":"60d2f97e-030b-4ecf-bd05-a003cd33c95e","code":{"coding":[{"system":"http://snomed.info/sct","code":"405737000"}]},"subject":{"reference":"Patient/1ded4878-4f93-4b1a-8983-5d96c71dd897"},"onsetDateTime":"2022-03-23T00:00:00+00:00"},"request":{"method":"POST","url":"Condition"}},{"fullUrl":"Observation/6a3eebce-82a4-41aa-a416-ce9c2f177280","resource":{"resourceType":"Observation","id":"6a3eebce-82a4-41aa-a416-ce9c2f177280","status":"final","code":{"coding":[{"system":"http://loinc.org","code":"49498-9"}]},"subject":{"reference":"Patient/1ded4878-4f93-4b1a-8983-5d96c71dd897"},"effectiveDateTime":"2022-02-17T00:00:00+00:00","valueQuantity":{"value":7.2}},"request":{"method":"POST","url":"Observation"}},{"fullUrl":"Observation/a25d596e-5e1f-432f-9aa1-04587a0718b5","resource":{"resourceType":"Observation","id":"a25d596e-5e1f-432f-9aa1-04587a0718b5","status":"final","code":{"coding":[{"system":"http://loinc.org","code":"26464-8"}]},"subject":{"reference":"Patient/1ded4878-4f93-4b1a-8983-5d96c71dd897"},"effectiveDateTime":"2022-03-09T00:00:00+00:00","valueQuantity":{"value":5.7}},"request":{"method":"POST","url":"Observation"}},{"fullUrl":"Observation/33a502cf-627d-4e6b-97a1-341b7e2d3ba9","resource":{"resourceType":"Observation","id":"33a502cf-627d-4e6b-97a1-341b7e2d3ba9","status":"final","code":{"coding":[{"system":"http://loinc.org","code":"49498-9"}]},"subject":{"reference":"Patient/1ded4878-4f93-4b1a-8983-5d96c71dd897"},"effectiveDateTime":"2022-11-04T00:00:00+00:00"},"request":{"method":"POST","url":"Observation"}},{"fullUrl":"Observation/5165b249-9f52-4355-b2bd-421c3ffb1936","resource":{"resourceType":"Observation","id":"5165b249-9f52-4355-b2bd-421c3ffb1936","status":"final","code":{"coding":[{"system":"http://loinc.org","code":"49498-9"}]},"subject":{"reference":"Patient/1ded4878-4f93-4b1a-8983-5d96c71dd897"},"effectiveDateTime":"2022-10-05T00:00:00+00:00"},"request":{"method":"POST","url":"Observation"}},{"fullUrl":"Observation/94202695-4de6-41a1-95ea-bb91a693a695","resource":{"resourceType":"Observation","id":"94202695-4de6-41a1-95ea-bb91a693a695","status":"final","code":{"coding":[{"system":"http://loinc.org","code":"49498-9"}]},"subject":{"reference":"Patient/1ded4878-4f93-4b1a-8983-5d96c71dd897"},"effectiveDateTime":"2022-09-02T00:00:00+00:00"},"request":{"method":"POST","url":"Observation"}},{"fullUrl":"Procedure/32a8031d-8f1e-4613-b172-87a6964add4e","resource":{"resourceType":"Procedure","id":"32a8031d-8f1e-4613-b172-87a6964add4e","status":"completed","code":{"coding":[{"system":"http://snomed.info/sct","code":"104001"}]},"subject":{"reference":"Patient/1ded4878-4f93-4b1a-8983-5d96c71dd897"},"performedDateTime":"2022-03-12T00:00:00+00:00"},"request":{"method":"POST","url":"Procedure"}},{"fullUrl":"Procedure/1a0c8ebe-3365-4fa2-879f-d9e46dea2e77","resource":{"resourceType":"Procedure","id":"1a0c8ebe-3365-4fa2-879f-d9e46dea2e77","status":"completed","code":{"coding":[{"system":"http://snomed.info/sct","code":"189009"}]},"subject":{"reference":"Patient/1ded4878-4f93-4b1a-8983-5d96c71dd897"},"performedDateTime":"2022-05-13T00:00:00+00:00"},"request":{"method":"POST","url":"Procedure"}},{"fullUrl":"Procedure/b0aa2d81-a85c-403a-820d-9bb1683ec6e3","resource":{"resourceType":"Procedure","id":"b0aa2d81-a85c-403a-820d-9bb1683ec6e3","status":"completed","code":{"coding":[{"system":"http://snomed.info/sct","code":"146005"}]},"subject":{"reference":"Patient/1ded4878-4f93-4b1a-8983-5d96c71dd897"},"performedDateTime":"2022-04-11T00:00:00+00:00"},"request":{"method":"POST","url":"Procedure"}},{"fullUrl":"MedicationStatement/7a5358d8-b146-464c-9ca1-e15016d1bb90","resource":{"resourceType":"MedicationStatement","id":"7a5358d8-b146-464c-9ca1-e15016d1bb90","status":"completed","medicationCodeableConcept":{"coding":[{"system":"http://www.nlm.nih.gov/research/umls/rxnorm","code":"8698"}]},"subject":{"reference":"Patient/1ded4878-4f93-4b1a-8983-5d96c71dd897"},"effectiveDateTime":"2022-02-20T00:00:00+00:00","dosage":[{"doseAndRate":[{"doseQuantity":{"value":1,"unit":"TAB","system":"http://terminology.hl7.org/CodeSystem/v3-orderableDrugForm","code":"TAB"}}]}]},"request":{"method":"POST","url":"MedicationStatement"}},{"fullUrl":"MedicationStatement/83c0c2e0-650b-47cd-b718-631171422f6d","resource":{"resourceType":"MedicationStatement","id":"83c0c2e0-650b-47cd-b718-631171422f6d","status":"completed","medicationCodeableConcept":{"coding":[{"system":"http://www.nlm.nih.gov/research/umls/rxnorm","code":"10395"}]},"subject":{"reference":"Patient/1ded4878-4f93-4b1a-8983-5d96c71dd897"},"effectiveDateTime":"2022-07-22T00:00:00+00:00","dosage":[{"doseAndRate":[{"doseQuantity":{"value":1,"unit":"TAB","system":"http://terminology.hl7.org/CodeSystem/v3-orderableDrugForm","code":"TAB"}}]}]},"request":{"method":"POST","url":"MedicationStatement"}},{"fullUrl":"MedicationStatement/b714fa68-3bd8-4b0e-be4e-f36d79dc7400","resource":{"resourceType":"MedicationStatement","id":"b714fa68-3bd8-4b0e-be4e-f36d79dc7400","status":"completed","medicationCodeableConcept":{"coding":[{"system":"http://www.nlm.nih.gov/research/umls/rxnorm","code":"3640"}]},"subject":{"reference":"Patient/1ded4878-4f93-4b1a-8983-5d96c71dd897"},"effectiveDateTime":"2022-12-12T00:00:00+00:00","dosage":[{"doseAndRate":[{"doseQuantity":{"value":1,"unit":"TAB","system":"http://terminology.hl7.org/CodeSystem/v3-orderableDrugForm","code":"TAB"}}]}]},"request":{"method":"POST","url":"MedicationStatement"}},{"fullUrl":"MedicationStatement/3f0877bf-2004-4836-95b2-636e629c21a8","resource":{"resourceType":"MedicationStatement","id":"3f0877bf-2004-4836-95b2-636e629c21a8","status":"completed","medicationCodeableConcept":{"coding":[{"system":"http://www.nlm.nih.gov/research/umls/rxnorm","code":"7984"}]},"subject":{"reference":"Patient/1ded4878-4f93-4b1a-8983-5d96c71dd897"},"effectiveDateTime":"2022-09-02T00:00:00+00:00","dosage":[{"doseAndRate":[{"doseQuantity":{"value":3.8,"unit":"TAB","system":"http://terminology.hl7.org/CodeSystem/v3-orderableDrugForm","code":"TAB"}}]}]},"request":{"method":"POST","url":"MedicationStatement"}},{"fullUrl":"MedicationStatement/82828094-36f3-496e-bf5b-8fb25a73f0ec","resource":{"resourceType":"MedicationStatement","id":"82828094-36f3-496e-bf5b-8fb25a73f0ec","status":"completed","medicationCodeableConcept":{"coding":[{"system":"http://www.nlm.nih.gov/research/umls/rxnorm","code":"18631"}]},"subject":{"reference":"Patient/1ded4878-4f93-4b1a-8983-5d96c71dd897"},"effectiveDateTime":"2022-03-18T00:00:00+00:00","dosage":[{"doseAndRate":[{"doseQuantity":{"value":5.7,"unit":"TAB","system":"http://terminology.hl7.org/CodeSystem/v3-orderableDrugForm","code":"TAB"}}]}]},"request":{"method":"POST","url":"MedicationStatement"}},{"fullUrl":"MedicationStatement/d70e9686-c1cc-4aeb-a715-9de1048b4dac","resource":{"resourceType":"MedicationStatement","id":"d70e9686-c1cc-4aeb-a715-9de1048b4dac","status":"completed","medicationCodeableConcept":{"coding":[{"system":"http://www.nlm.nih.gov/research/umls/rxnorm","code":"8698"}]},"subject":{"reference":"Patient/1ded4878-4f93-4b1a-8983-5d96c71dd897"},"effectiveDateTime":"2022-11-18T00:00:00+00:00","dosage":[{"doseAndRate":[{"doseQuantity":{"value":6.9,"unit":"TAB","system":"http://terminology.hl7.org/CodeSystem/v3-orderableDrugForm","code":"TAB"}}]}]},"request":{"method":"POST","url":"MedicationStatement"}},{"fullUrl":"MedicationStatement/5e40accc-fec1-4113-a7fb-1f726a699b0b","resource":{"resourceType":"MedicationStatement","id":"5e40accc-fec1-4113-a7fb-1f726a699b0b","status":"completed","medicationCodeableConcept":{"coding":[{"system":"http://www.nlm.nih.gov/research/umls/rxnorm","code":"7980"}]},"subject":{"reference":"Patient/1ded4878-4f93-4b1a-8983-5d96c71dd897"},"effectiveDateTime":"2022-07-26T00:00:00+00:00","dosage":[{"doseAndRate":[{"doseQuantity":{"value":4.1,"unit":"TAB","system":"http://terminology.hl7.org/CodeSystem/v3-orderableDrugForm","code":"TAB"}}]}]},"request":{"method":"POST","url":"MedicationStatement"}},{"fullUrl":"MedicationStatement/c9d78d3c-b2a1-4a81-8a6b-dec7d3a15ca8","resource":{"resourceType":"MedicationStatement","id":"c9d78d3c-b2a1-4a81-8a6b-dec7d3a15ca8","status":"completed","medicationCodeableConcept":{"coding":[{"system":"http://www.nlm.nih.gov/research/umls/rxnorm","code":"7984"}]},"subject":{"reference":"Patient/1ded4878-4f93-4b1a-8983-5d96c71dd897"},"effectiveDateTime":"2022-07-10T00:00:00+00:00","dosage":[{"doseAndRate":[{"doseQuantity":{"value":5.4,"unit":"TAB","system":"http://terminology.hl7.org/CodeSystem/v3-orderableDrugForm","code":"TAB"}}]}]},"request":{"method":"POST","url":"MedicationStatement"}},{"fullUrl":"MedicationStatement/2423a78e-4f0c-4f1d-a5d7-13963b4e2cfd","resource":{"resourceType":"MedicationStatement","id":"2423a78e-4f0c-4f1d-a5d7-13963b4e2cfd","status":"completed","medicationCodeableConcept":{"coding":[{"system":"http://www.nlm.nih.gov/research/umls/rxnorm","code":"7980"}]},"subject":{"reference":"Patient/1ded4878-4f93-4b1a-8983-5d96c71dd897"},"effectiveDateTime":"2022-09-06T00:00:00+00:00","dosage":[{"doseAndRate":[{"doseQuantity":{"value":4,"unit":"TAB","system":"http://terminology.hl7.org/CodeSystem/v3-orderableDrugForm","code":"TAB"}}]}]},"request":{"method":"POST","url":"MedicationStatement"}},{"fullUrl":"MedicationStatement/f31e118e-b3a7-4714-85dd-b8b9ae207f65","resource":{"resourceType":"MedicationStatement","id":"f31e118e-b3a7-4714-85dd-b8b9ae207f65","status":"completed","medicationCodeableConcept":{"coding":[{"system":"http://www.nlm.nih.gov/research/umls/rxnorm","code":"10395"}]},"subject":{"reference":"Patient/1ded4878-4f93-4b1a-8983-5d96c71dd897"},"effectiveDateTime":"2022-09-19T00:00:00+00:00","dosage":[{"doseAndRate":[{"doseQuantity":{"value":5,"unit":"TAB","system":"http://terminology.hl7.org/CodeSystem/v3-orderableDrugForm","code":"TAB"}}]}]},"request":{"method":"POST","url":"MedicationStatement"}},{"fullUrl":"MedicationStatement/cc5aab8b-3178-4b5b-9976-98791d23434c","resource":{"resourceType":"MedicationStatement","id":"cc5aab8b-3178-4b5b-9976-98791d23434c","status":"completed","medicationCodeableConcept":{"coding":[{"system":"http://www.nlm.nih.gov/research/umls/rxnorm","code":"8698"}]},"subject":{"reference":"Patient/1ded4878-4f93-4b1a-8983-5d96c71dd897"},"effectiveDateTime":"2022-11-27T00:00:00+00:00","dosage":[{"doseAndRate":[{"doseQuantity":{"value":6.7,"unit":"TAB","system":"http://terminology.hl7.org/CodeSystem/v3-orderableDrugForm","code":"TAB"}}]}]},"request":{"method":"POST","url":"MedicationStatement"}},{"fullUrl":"Encounter/d015d286-9dba-4742-8da1-cf10f6590424","resource":{"resourceType":"Encounter","id":"d015d286-9dba-4742-8da1-cf10f6590424","status":"finished","class":{"system":"http://terminology.hl7.org/CodeSystem/v3-ActCode","code":"IMP","display":"inpatient encounter"},"type":[{"coding":[{"system":"http://terminology.hl7.org/CodeSystem/encounter-type","code":"CCS60"}]}],"subject":{"reference":"Patient/1ded4878-4f93-4b1a-8983-5d96c71dd897"},"period":{"start":"2022-02-25T00:00:00+00:00","end":"2022-02-27T00:00:00+00:00"}},"request":{"method":"POST","url":"Encounter"}},{"fullUrl":"Encounter/14ab9360-8ec1-480a-8b37-955ecc558a0b","resource":{"resourceType":"Encounter","id":"14ab9360-8ec1-480a-8b37-955ecc558a0b","status":"finished","class":{"system":"http://terminology.hl7.org/CodeSystem/v3-ActCode","code":"IMP","display":"inpatient encounter"},"type":[{"coding":[{"system":"http://terminology.hl7.org/CodeSystem/encounter-type","code":"OKI"}]}],"subject":{"reference":"Patient/1ded4878-4f93-4b1a-8983-5d96c71dd897"},"period":{"start":"2022-03-11T00:00:00+00:00","end":"2022-03-15T00:00:00+00:00"}},"request":{"method":"POST","url":"Encounter"}},{"fullUrl":"Encounter/e43b1870-cbb8-4443-b455-64b94a52a041","resource":{"resourceType":"Encounter","id":"e43b1870-cbb8-4443-b455-64b94a52a041","status":"finished","class":{"system":"http://terminology.hl7.org/CodeSystem/v3-ActCode","code":"FLD","display":"field"},"type":[{"coding":[{"system":"http://terminology.hl7.org/CodeSystem/encounter-type","code":"CCS60"}]}],"subject":{"reference":"Patient/1ded4878-4f93-4b1a-8983-5d96c71dd897"},"period":{"start":"2022-02-21T00:00:00+00:00","end":"2022-02-23T00:00:00+00:00"}},"request":{"method":"POST","url":"Encounter"}},{"fullUrl":"Encounter/371ff49a-0a1e-4bca-95fa-7c8ac7025be2","resource":{"resourceType":"Encounter","id":"371ff49a-0a1e-4bca-95fa-7c8ac7025be2","status":"finished","class":{"system":"http://terminology.hl7.org/CodeSystem/v3-ActCode","code":"OBSENC","display":"observation encounter"},"type":[{"coding":[{"system":"http://terminology.hl7.org/CodeSystem/encounter-type","code":"OKI"}]}],"subject":{"reference":"Patient/1ded4878-4f93-4b1a-8983-5d96c71dd897"},"period":{"start":"2022-11-04T00:00:00+00:00","end":"2022-11-05T00:00:00+00:00"}},"request":{"method":"POST","url":"Encounter"}},{"fullUrl":"Encounter/dabc10da-8ed0-4f76-b0ea-c87f9beab68c","resource":{"resourceType":"Encounter","id":"dabc10da-8ed0-4f76-b0ea-c87f9beab68c","status":"finished","class":{"system":"http://terminology.hl7.org/CodeSystem/v3-ActCode","code":"NONAC","display":"inpatient non-acute"},"type":[{"coding":[{"system":"http://terminology.hl7.org/CodeSystem/encounter-type","code":"OKI"}]}],"subject":{"reference":"Patient/1ded4878-4f93-4b1a-8983-5d96c71dd897"},"period":{"start":"2022-04-03T00:00:00+00:00","end":"2022-04-04T00:00:00+00:00"}},"request":{"method":"POST","url":"Encounter"}}]}