{"resourceType":"Bundle","id":"42cb52d0-adbd-4d35-bfee-6e8bdb4e9509","type":"transaction","entry":[{"fullUrl":"Patient/1fcb7520-06ef-4503-81b9-db88af27fd23","resource":{"resourceType":"Patient","id":"1fcb7520-06ef-4503-81b9-db88af27fd23","meta":{"profile":["http://hl7.org/fhir/us/core/StructureDefinition/us-core-patient"]},"extension":[{"extension":[{"url":"ombCategory","valueCoding":{"system":"urn:oid:2.16.840.1.113883.6.238","code":"1002-5","display":"American Indian or Alaska Native"}},{"url":"text","valueString":"American Indian or Alaska Native"}],"url":"http://hl7.org/fhir/us/core/StructureDefinition/us-core-race"},{"extension":[{"url":"ombCategory","valueCoding":{"system":"urn:oid:2.16.840.1.113883.6.238","code":"2135-2","display":"Hispanic or Latino"}},{"url":"text","valueString":"Hispanic or Latino"}],"url":"http://hl7.org/fhir/us/core/StructureDefinition/us-core-ethnicity"}],"identifier":[{"type":{"coding":[{"system":"http://terminology.hl7.org/CodeSystem/v2-0203","code":"MR"}]},"system":"urn:fhirgen:mrn","value":"586-03-8246"},{"system":"http://hl7.org/fhir/sid/us-ssn","value":"565-24-8104"}],"name":[{"use":"official","family":"Green","given":["Alexander"]},{"use":"maiden","family":"Norris"}],"telecom":[{"system":"phone","value":"(867)938-3710x92244","use":"mobile"},{"system":"email","value":"alexrichardson@hotmail.com","use":"mobile"}],"gender":"male","birthDate":"1999-08-08","address":[{"use":"home","line":["27599 Benjamin Passage"],"city":"Port Gordonstad","state":"AZ","postalCode":"71020"},{"use":"old","line":["75586 Lisa Green Suite 457"],"city":"Darrellville","state":"GA","postalCode":"35586"}],"maritalStatus":{"coding":[{"system":"http://terminology.hl7.org/CodeSystem/v3-MaritalStatus","code":"M","display":"Married"}]}},"request":{"method":"POST","url":"Patient"}},{"fullUrl":"Observation/24655656-9f97-4c6f-a94e-8816d2303106","resource":{"resourceType":"Observation","id":"24655656-9f97-4c6f-a94e-8816d2303106","meta":{"profile":["http://hl7.org/fhir/us/core/StructureDefinition/us-core-observation-lab"]},"status":"final","category":[{"coding":[{"system":"http://terminology.hl7.org/CodeSystem/observation-category","code":"laboratory","display":"Laboratory"}]}],"code":{"coding":[{"system":"http://loinc.org","code":"71793-4"}]},"subject":{"reference":"Patient/1fcb7520-06ef-4503-81b9-db88af27fd23"},"effectiveDateTime":"2022-07-30T00:00:00+00:00","valueRatio":{"numerator":{"value":1},"denominator":{"value":64}}},"request":{"method":"POST","url":"Observation"}},{"fullUrl":"Observation/6eacc580-f648-4422-9bb4-92b507c0a5aa","resource":{"resourceType":"Observation","id":"6eacc580-f648-4422-9bb4-92b507c0a5aa","meta":{"profile":["http://hl7.org/fhir/us/core/StructureDefinition/us-core-observation-lab"]},"status":"final","category":[{"coding":[{"system":"http://terminology.hl7.org/CodeSystem/observation-category","code":"laboratory","display":"Laboratory"}]}],"code":{"coding":[{"system":"http://loinc.org","code":"46203-6"}]},"subject":{"reference":"Patient/1fcb7520-06ef-4503-81b9-db88af27fd23"},"effectiveDateTime":"2022-08-02T00:00:00+00:00","valueRatio":{"numerator":{"value":1},"denominator":{"value":32}}},"request":{"method":"POST","url":"Observation"}},{"fullUrl":"Observation/b39daa23-65f7-4f0e-91b4-2352fe735f25","resource":{"resourceType":"Observation","id":"b39daa23-65f7-4f0e-91b4-2352fe735f25","meta":{"profile":["http://hl7.org/fhir/us/core/StructureDefinition/us-core-observation-lab"]},"status":"final","category":[{"coding":[{"system":"http://terminology.hl7.org/CodeSystem/observation-category","code":"laboratory","display":"Laboratory"}]}],"code":{"coding":[{"system":"http://loinc.org","code":"31146-4"}]},"subject":{"reference":"Patient/1fcb7520-06ef-4503-81b9-db88af27fd23"},"effectiveDateTime":"2022-10-26T00:00:00+00:00","valueRatio":{"numerator":{"value":1},"denominator":{"value":32}}},"request":{"method":"POST","url":"Observation"}},{"fullUrl":"Condition/5576f965-7b97-4d84-9421-051c6f8fa0d6","resource":{"resourceType":"Condition","id":"5576f965-7b97-4d84-9421-051c6f8fa0d6","meta":{"profile":["http://hl7.org/fhir/us/core/StructureDefinition/us-core-condition"]},"clinicalStatus":{"coding":[{"system":"http://terminology.hl7.org/CodeSystem/condition-clinical","code":"active","display":"Active"}]},"category":[{"coding":[{"system":"http://terminology.hl7.org/CodeSystem/condition-category","code":"problem-list-item"}]}],"code":{"coding":[{"system":"http://snomed.info/sct","code":"91554004"}]},"subject":{"reference":"Patient/1fcb7520-06ef-4503-81b9-db88af27fd23"},"onsetDateTime":"2022-10-20T00:00:00+00:00"},"request":{"method":"POST","url":"Condition"}},{"fullUrl":"Condition/5718c03f-a33c-4dd6-a76c-f9ebf5bcd346","resource":{"resourceType":"Condition","id":"5718c03f-a33c-4dd6-a76c-f9ebf5bcd346","meta":{"profile":["http://hl7.org/fhir/us/core/StructureDefinition/us-core-condition"]},"clinicalStatus":{"coding":[{"system":"http://terminology.hl7.org/CodeSystem/condition-clinical","code":"active","display":"Active"}]},"category":[{"coding":[{"system":"http://terminology.hl7.org/CodeSystem/condition-category","code":"problem-list-item"}]}],"code":{"coding":[{"system":"http://snomed.info/sct","code":"91554004"}]},"subject":{"reference":"Patient/1fcb7520-06ef-4503-81b9-db88af27fd23"},"onsetDateTime":"2022-11-11T00:00:00+00:00"},"request":{"method":"POST","url":"Condition"}},{"fullUrl":"Condition/0b0066bf-3b05-4390-a620-369625725dad","resource":{"resourceType":"Condition","id":"0b0066bf-3b05-4390-a620-369625725dad","meta":{"profile":["http://hl7.org/fhir/us/core/StructureDefinition/us-core-condition"]},"clinicalStatus":{"coding":[{"system":"http://terminology.hl7.org/CodeSystem/condition-clinical","code":"active","display":"Active"}]},"category":[{"coding":[{"system":"http://terminology.hl7.org/CodeSystem/condition-category","code":"problem-list-item"}]}],"code":{"coding":[{"system":"http://snomed.info/sct","code":"736686006"}]},"subject":{"reference":"Patient/1fcb7520-06ef-4503-81b9-db88af27fd23"},"onsetDateTime":"2022-07-26T00:00:00+00:00"},"request":{"method":"POST","url":"Condition"}},{"fullUrl":"Condition/404297d1-75be-4e29-96a0-e8711cb8f62e","resource":{"resourceType":"Condition","id":"404297d1-75be-4e29-96a0-e8711cb8f62e","meta":{"profile":["http://hl7.org/fhir/us/core/StructureDefinition/us-core-condition"]},"clinicalStatus":{"coding":[{"system":"http://terminology.hl7.org/CodeSystem/condition-clinical","code":"active","display":"Active"}]},"category":[{"coding":[{"system":"http://terminology.hl7.org/CodeSystem/condition-category","code":"problem-list-item"}]}],"code":{"coding":[{"system":"http://snomed.info/sct","code":"91554004"}]},"subject":{"reference":"Patient/1fcb7520-06ef-4503-81b9-db88af27fd23"},"onsetDateTime":"2022-12-27T00:00:00+00:00"},"request":{"method":"POST","url":"Condition"}},{"fullUrl":"Condition/c6ae49cb-14fb-48dc-b095-05cd43e5888a","resource":{"resourceType":"Condition","id":"c6ae49cb-14fb-48dc-b095-05cd43e5888a","meta":{"profile":["http://hl7.org/fhir/us/core/StructureDefinition/us-core-condition"]},"clinicalStatus":{"coding":[{"system":"http://terminology.hl7.org/CodeSystem/condition-clinical","code":"active","display":"Active"}]},"category":[{"coding":[{"system":"http://terminology.hl7.org/CodeSystem/condition-category","code":"problem-list-item"}]}],"code":{"coding":[{"system":"http://snomed.info/sct","code":"418290006"}]},"subject":{"reference":"Patient/1fcb7520-06ef-4503-81b9-db88af27fd23"},"onsetDateTime":"2022-09-22T00:00:00+00:00"},"request":{"method":"POST","url":"Condition"}},{"fullUrl":"Condition/66473855-d950-4a94-ad5b-4b9fd6e6ec40","resource":{"resourceType":"Condition","id":"66473855-d950-4a94-ad5b-4b9fd6e6ec40","meta":{"profile":["http://hl7.org/fhir/us/core/StructureDefinition/us-core-condition"]},"clinicalStatus":{"coding":[{"system":"http://terminology.hl7.org/CodeSystem/condition-clinical","code":"active","display":"Active"}]},"category":[{"coding":[{"system":"http://terminology.hl7.org/CodeSystem/condition-category","code":"problem-list-item"}]}],"code":{"coding":[{"system":"http://snomed.info/sct","code":"709977002"}]},"subject":{"reference":"Patient/1fcb7520-06ef-4503-81b9-db88af27fd23"},"onsetDateTime":"2022-03-07T00:00:00+00:00"},"request":{"method":"POST","url":"Condition"}},{"fullUrl":"Observation/ad8442f3-2793-408c-8ac8-0565404d816d","resource":{"resourceType":"Observation","id":"ad8442f3-2793-408c-8ac8-0565404d816d","meta":{"profile":["http://hl7.org/fhir/us/core/StructureDefinition/us-core-observation-lab"]},"status":"final","category":[{"coding":[{"system":"http://terminology.hl7.org/CodeSystem/observation-category","code":"laboratory","display":"Laboratory"}]}],"code":{"coding":[{"system":"http://loinc.org","code":"49498-9"}]},"subject":{"reference":"Patient/1fcb7520-06ef-4503-81b9-db88af27fd23"},"effectiveDateTime":"2022-08-21T00:00:00+00:00","valueQuantity":{"value":9}},"request":{"method":"POST","url":"Observation"}},{"fullUrl":"Observation/84e5af27-b91d-4d99-8e46-a2bd4a2765aa","resource":{"resourceType":"Observation","id":"84e5af27-b91d-4d99-8e46-a2bd4a2765aa","meta":{"profile":["http://hl7.org/fhir/us/core/StructureDefinition/us-core-observation-lab"]},"status":"final","category":[{"coding":[{"system":"http://terminology.hl7.org/CodeSystem/observation-category","code":"laboratory","display":"Laboratory"}]}],"code":{"coding":[{"system":"http://loinc.org","code":"804-5"}]},"subject":{"reference":"Patient/1fcb7520-06ef-4503-81b9-db88af27fd23"},"effectiveDateTime":"2022-09-16T00:00:00+00:00","valueQuantity":{"value":10.1}},"request":{"method":"POST","url":"Observation"}},{"fullUrl":"Observation/68b16030-f10f-4ea2-b658-196f7a8b5f57","resource":{"resourceType":"Observation","id":"68b16030-f10f-4ea2-b658-196f7a8b5f57","meta":{"profile":["http://hl7.org/fhir/us/core/StructureDefinition/us-core-observation-lab"]},"status":"final","category":[{"coding":[{"system":"http://terminology.hl7.org/CodeSystem/observation-category","code":"laboratory","display":"Laboratory"}]}],"code":{"coding":[{"system":"http://loinc.org","code":"26464-8"}]},"subject":{"reference":"Patient/1fcb7520-06ef-4503-81b9-db88af27fd23"},"effectiveDateTime":"2022-05-07T00:00:00+00:00","valueQuantity":{"value":7.5}},"request":{"method":"POST","url":"Observation"}},{"fullUrl":"Observation/c311361d-163c-4e1b-ae0d-0e12d8916f4e","resource":{"resourceType":"Observation","id":"c311361d-163c-4e1b-ae0d-0e12d8916f4e","meta":{"profile":["http://hl7.org/fhir/us/core/StructureDefinition/us-core-bmi"]},"status":"final","category":[{"coding":[{"system":"http://terminology.hl7.org/CodeSystem/observation-category","code":"vital-signs","display":"Vital Signs"}]}],"code":{"coding":[{"system":"http://loinc.org","code":"39156-5"}]},"subject":{"reference":"Patient/1fcb7520-06ef-4503-81b9-db88af27fd23"},"effectiveDateTime":"2022-07-12T00:00:00+00:00","valueQuantity":{"value":20.91,"unit":"kg/m2","system":"http://unitsofmeasure.org","code":"kg/m2"}},"request":{"method":"POST","url":"Observation"}},{"fullUrl":"Observation/f9a8f11f-049f-402d-91c7-c2b77693da93","resource":{"resourceType":"Observation","id":"f9a8f11f-049f-402d-91c7-c2b77693da93","meta":{"profile":["http://hl7.org/fhir/us/core/StructureDefinition/us-core-bmi"]},"status":"final","category":[{"coding":[{"system":"http://terminology.hl7.org/CodeSystem/observation-category","code":"vital-signs","display":"Vital Signs"}]}],"code":{"coding":[{"system":"http://loinc.org","code":"39156-5"}]},"subject":{"reference":"Patient/1fcb7520-06ef-4503-81b9-db88af27fd23"},"effectiveDateTime":"2022-09-09T00:00:00+00:00","valueQuantity":{"value":11.24,"unit":"kg/m2","system":"http://unitsofmeasure.org","code":"kg/m2"}},"request":{"method":"POST","url":"Observation"}},{"fullUrl":"Observation/eff0d72f-b83c-4be1-833a-a4581ae08b37","resource":{"resourceType":"Observation","id":"eff0d72f-b83c-4be1-833a-a4581ae08b37","meta":{"profile":["http://hl7.org/fhir/us/core/StructureDefinition/us-core-head-circumference"]},"status":"final","category":[{"coding":[{"system":"http://terminology.hl7.org/CodeSystem/observation-category","code":"vital-signs","display":"Vital Signs"}]}],"code":{"coding":[{"system":"http://loinc.org","code":"9843-4"}]},"subject":{"reference":"Patient/1fcb7520-06ef-4503-81b9-db88af27fd23"},"effectiveDateTime":"2022-02-19T00:00:00+00:00","valueQuantity":{"value":7.7,"unit":"Inch","system":"http://unitsofmeasure.org","code":"[in_i]"}},"request":{"method":"POST","url":"Observation"}},{"fullUrl":"Observation/5c849a9f-e79e-4879-b966-0eb2c4a8c7fe","resource":{"resourceType":"Observation","id":"5c849a9f-e79e-4879-b966-0eb2c4a8c7fe","meta":{"profile":["http://hl7.org/fhir/us/core/StructureDefinition/us-core-body-height"]},"status":"final","category":[{"coding":[{"system":"http://terminology.hl7.org/CodeSystem/observation-category","code":"vital-signs","display":"Vital Signs"}]}],"code":{"coding":[{"system":"http://loinc.org","code":"8302-2"}]},"subject":{"reference":"Patient/1fcb7520-06ef-4503-81b9-db88af27fd23"},"effectiveDateTime":"2022-07-29T00:00:00+00:00","valueQuantity":{"value":69.2,"unit":"Inch","system":"http://unitsofmeasure.org","code":"[in_i]"}},"request":{"method":"POST","url":"Observation"}},{"fullUrl":"Observation/987647b4-53d8-40b2-8338-e6802e18b8da","resource":{"resourceType":"Observation","id":"987647b4-53d8-40b2-8338-e6802e18b8da","meta":{"profile":["http://hl7.org/fhir/us/core/StructureDefinition/us-core-body-weight"]},"status":"final","category":[{"coding":[{"system":"http://terminology.hl7.org/CodeSystem/observation-category","code":"vital-signs","display":"Vital Signs"}]}],"code":{"coding":[{"system":"http://loinc.org","code":"29463-7"}]},"subject":{"reference":"Patient/1fcb7520-06ef-4503-81b9-db88af27fd23"},"effectiveDateTime":"2022-07-26T00:00:00+00:00","valueQuantity":{"value":82.31,"unit":"kilogram","system":"http://unitsofmeasure.org","code":"kg"}},"request":{"method":"POST","url":"Observation"}},{"fullUrl":"Observation/b5382ec0-a5b7-4416-8158-5f71d0feee9c","resource":{"resourceType":"Observation","id":"b5382ec0-a5b7-4416-8158-5f71d0feee9c","meta":{"profile":["http://hl7.org/fhir/us/core/StructureDefinition/us-core-body-temperature"]},"status":"final","category":[{"coding":[{"system":"http://terminology.hl7.org/CodeSystem/observation-category","code":"vital-signs","display":"Vital Signs"}]}],"code":{"coding":[{"system":"http://loinc.org","code":"8310-5"}]},"subject":{"reference":"Patient/1fcb7520-06ef-4503-81b9-db88af27fd23"},"effectiveDateTime":"2022-03-23T00:00:00+00:00","valueQuantity":{"value":137.9,"unit":"Degrees Fahrenheit","system":"http://unitsofmeasure.org","code":"[degF]"}},"request":{"method":"POST","url":"Observation"}},{"fullUrl":"Observation/4db0f114-c475-4df4-9ee1-2067d84d6673","resource":{"resourceType":"Observation","id":"4db0f114-c475-4df4-9ee1-2067d84d6673","meta":{"profile":["http://hl7.org/fhir/us/core/StructureDefinition/us-core-body-temperature"]},"status":"final","category":[{"coding":[{"system":"http://terminology.hl7.org/CodeSystem/observation-category","code":"vital-signs","display":"Vital Signs"}]}],"code":{"coding":[{"system":"http://loinc.org","code":"8310-5"}]},"subject":{"reference":"Patient/1fcb7520-06ef-4503-81b9-db88af27fd23"},"effectiveDateTime":"2022-03-21T00:00:00+00:00","valueQuantity":{"value":48.75,"unit":"Degrees Fahrenheit","system":"http://unitsofmeasure.org","code":"[degF]"}},"request":{"method":"POST","url":"Observation"}},{"fullUrl":"Observation/63c3f81f-ff05-47de-887e-614e81116377","resource":{"resourceType":"Observation","id":"63c3f81f-ff05-47de-887e-614e81116377","meta":{"profile":["http://hl7.org/fhir/us/core/StructureDefinition/us-core-heart-rate"]},"status":"final","category":[{"coding":[{"system":"http://terminology.hl7.org/CodeSystem/observation-category","code":"vital-signs","display":"Vital Signs"}]}],"code":{"coding":[{"system":"http://loinc.org","code":"8867-4"}]},"subject":{"reference":"Patient/1fcb7520-06ef-4503-81b9-db88af27fd23"},"effectiveDateTime":"2022-05-20T00:00:00+00:00","valueQuantity":{"value":98.9,"unit":"Per Minute","system":"http://unitsofmeasure.org","code":"/min"}},"request":{"method":"POST","url":"Observation"}},{"fullUrl":"Observation/4b872903-b168-4801-881d-1a0a3a76ed86","resource":{"resourceType":"Observation","id":"4b872903-b168-4801-881d-1a0a3a76ed86","meta":{"profile":["http://hl7.org/fhir/us/core/StructureDefinition/us-core-heart-rate"]},"status":"final","category":[{"coding":[{"system":"http://terminology.hl7.org/CodeSystem/observation-category","code":"vital-signs","display":"Vital Signs"}]}],"code":{"coding":[{"system":"http://loinc.org","code":"8867-4"}]},"subject":{"reference":"Patient/1fcb7520-06ef-4503-81b9-db88af27fd23"},"effectiveDateTime":"2022-11-03T00:00:00+00:00","valueQuantity":{"value":100.1,"unit":"Per Minute","system":"http://unitsofmeasure.org","code":"/min"}},"request":{"method":"POST","url":"Observation"}},{"fullUrl":"Patient/9d8e96f7-2db4-4619-a840-badad64096e8","resource":{"resourceType":"Patient","id":"9d8e96f7-2db4-4619-a840-badad64096e8","meta":{"profile":["http://hl7.org/fhir/us/core/StructureDefinition/us-core-patient"]},"extension":[{"extension":[{"url":"ombCategory","valueCoding":{"system":"urn:oid:2.16.840.1.113883.6.238","code":"2076-8","display":"Native Hawaiian or Other Pacific Islander"}},{"url":"text","valueString":"Native Hawaiian or Other Pacific Islander"}],"url":"http://hl7.org/fhir/us/core/StructureDefinition/us-core-race"},{"extension":[{"url":"ombCategory","valueCoding":{"system":"urn:oid:2.16.840.1.113883.6.238","code":"2186-5","display":"Not Hispanic or Latino"}},{"url":"text","valueString":"Not Hispanic or Latino"}],"url":"http://hl7.org/fhir/us/core/StructureDefinition/us-core-ethnicity"}],"identifier":[{"type":{"coding":[{"system":"http://terminology.hl7.org/CodeSystem/v2-0203","code":"MR"}]},"system":"urn:fhirgen:mrn","value":"235-54-7221"},{"system":"http://hl7.org/fhir/sid/us-ssn","value":"287-42-6575"}],"name":[{"use":"official","family":"Jackson","given":["Anthony"]},{"use":"maiden","family":"Hernandez"}],"telecom":[{"system":"phone","value":"(621)960-5111","use":"work"},{"system":"email","value":"marysmith@hotmail.com","use":"mobile"}],"gender":"male","birthDate":"1967-04-01","address":[{"use":"home","line":["3532 Mitchell Walks Apt. 457"],"city":"Alexanderbury","state":"KY","postalCode":"57442"},{"use":"old","line":["475 Eric Spurs Apt. 707"],"city":"Schneiderport","state":"NY","postalCode":"54604"}],"maritalStatus":{"coding":[{"system":"http://terminology.hl7.org/CodeSystem/v3-MaritalStatus","code":"D","display":"Divorced"}]}},"request":{"method":"POST","url":"Patient"}},{"fullUrl":"Observation/31925526-7618-46f9-879d-332cd03090ba","resource":{"resourceType":"Observation","id":"31925526-7618-46f9-879d-332cd03090ba","meta":{"profile":["http://hl7.org/fhir/us/core/StructureDefinition/us-core-observation-lab"]},"status":"final","category":[{"coding":[{"system":"http://terminology.hl7.org/CodeSystem/observation-category","code":"laboratory","display":"Laboratory"}]}],"code":{"coding":[{"system":"http://loinc.org","code":"50690-7"}]},"subject":{"reference":"Patient/9d8e96f7-2db4-4619-a840-badad64096e8"},"effectiveDateTime":"2022-12-13T00:00:00+00:00","valueRatio":{"numerator":{"value":1},"denominator":{"value":4}}},"request":{"method":"POST","url":"Observation"}},{"fullUrl":"Observation/b23e110f-812b-4499-a421-cc1aa5ec4bfe","resource":{"resourceType":"Observation","id":"b23e110f-812b-4499-a421-cc1aa5ec4bfe","meta":{"profile":["http://hl7.org/fhir/us/core/StructureDefinition/us-core-observation-lab"]},"status":"final","category":[{"coding":[{"system":"http://terminology.hl7.org/CodeSystem/observation-category","code":"laboratory","display":"Laboratory"}]}],"code":{"coding":[{"system":"http://loinc.org","code":"50690-7"}]},"subject":{"reference":"Patient/9d8e96f7-2db4-4619-a840-badad64096e8"},"effectiveDateTime":"2022-07-11T00:00:00+00:00","valueRatio":{"numerator":{"value":1},"denominator":{"value":32}}},"request":{"method":"POST","url":"Observation"}},{"fullUrl":"Condition/febfd4ed-91b1-4e55-b287-c536793fcfd2","resource":{"resourceType":"Condition","id":"febfd4ed-91b1-4e55-b287-c536793fcfd2","meta":{"profile":["http://hl7.org/fhir/us/core/StructureDefinition/us-core-condition"]},"clinicalStatus":{"coding":[{"system":"http://terminology.hl7.org/CodeSystem/condition-clinical","code":"active","display":"Active"}]},"category":[{"coding":[{"system":"http://terminology.hl7.org/CodeSystem/condition-category","code":"problem-list-item"}]}],"code":{"coding":[{"system":"http://snomed.info/sct","code":"418290006"}]},"subject":{"reference":"Patient/9d8e96f7-2db4-4619-a840-badad64096e8"},"onsetDateTime":"2022-02-04T00:00:00+00:00"},"request":{"method":"POST","url":"Condition"}},{"fullUrl":"Condition/b9001337-82c0-47ba-847d-869d729cb90a","resource":{"resourceType":"Condition","id":"b9001337-82c0-47ba-847d-869d729cb90a","meta":{"profile":["http://hl7.org/fhir/us/core/StructureDefinition/us-core-condition"]},"clinicalStatus":{"coding":[{"system":"http://terminology.hl7.org/CodeSystem/condition-clinical","code":"active","display":"Active"}]},"category":[{"coding":[{"system":"http://terminology.hl7.org/CodeSystem/condition-category","code":"problem-list-item"}]}],"code":{"coding":[{"system":"http://snomed.info/sct","code":"91554004"}]},"subject":{"reference":"Patient/9d8e96f7-2db4-4619-a840-badad64096e8"},"onsetDateTime":"2022-04-20T00:00:00+00:00"},"request":{"method":"POST","url":"Condition"}},{"fullUrl":"Condition/e09e8750-3536-447f-886d-c32102d1072d","resource":{"resourceType":"Condition","id":"e09e8750-3536-447f-886d-c32102d1072d","meta":{"profile":["http://hl7.org/fhir/us/core/StructureDefinition/us-core-condition"]},"clinicalStatus":{"coding":[{"system":"http://terminology.hl7.org/CodeSystem/condition-clinical","code":"active","display":"Active"}]},"category":[{"coding":[{"system":"http://terminology.hl7.org/CodeSystem/condition-category","code":"problem-list-item"}]}],"code":{"coding":[{"system":"http://snomed.info/sct","code":"736686006"}]},"subject":{"reference":"Patient/9d8e96f7-2db4-4619-a840-badad64096e8"},"onsetDateTime":"2022-08-14T00:00:00+00:00"},"request":{"method":"POST","url":"Condition"}},{"fullUrl":"Condition/26b3e2f4-c7df-443b-b020-f9c1bf1db81a","resource":{"resourceType":"Condition","id":"26b3e2f4-c7df-443b-b020-f9c1bf1db81a","meta":{"profile":["http://hl7.org/fhir/us/core/StructureDefinition/us-core-condition"]},"clinicalStatus":{"coding":[{"system":"http://terminology.hl7.org/CodeSystem/condition-clinical","code":"active","display":"Active"}]},"category":[{"coding":[{"system":"http://terminology.hl7.org/CodeSystem/condition-category","code":"problem-list-item"}]}],"code":{"coding":[{"system":"http://snomed.info/sct","code":"44882003"}]},"subject":{"reference":"Patient/9d8e96f7-2db4-4619-a840-badad64096e8"},"onsetDateTime":"2022-09-09T00:00:00+00:00"},"request":{"method":"POST","url":"Condition"}},{"fullUrl":"Condition/0c3141b7-76b3-494d-941c-88792586ed19","resource":{"resourceType":"Condition","id":"0c3141b7-76b3-494d-941c-88792586ed19","meta":{"profile":["http://hl7.org/fhir/us/core/StructureDefinition/us-core-condition"]},"clinicalStatus":{"coding":[{"system":"http://terminology.hl7.org/CodeSystem/condition-clinical","code":"active","display":"Active"}]},"category":[{"coding":[{"system":"http://terminology.hl7.org/CodeSystem/condition-category","code":"problem-list-item"}]}],"code":{"coding":[{"system":"http://snomed.info/sct","code":"418290006"}]},"subject":{"reference":"Patient/9d8e96f7-2db4-4619-a840-badad64096e8"},"onsetDateTime":"2022-09-18T00:00:00+00:00"},"request":{"method":"POST","url":"Condition"}},{"fullUrl":"Condition/58738160-5e5e-4ab6-8162-92247c74745f","resource":{"resourceType":"Condition","id":"58738160-5e5e-4ab6-8162-92247c74745f","meta":{"profile":["http://hl7.org/fhir/us/core/StructureDefinition/us-core-condition"]},"clinicalStatus":{"coding":[{"system":"http://terminology.hl7.org/CodeSystem/condition-clinical","code":"active","display":"Active"}]},"category":[{"coding":[{"system":"http://terminology.hl7.org/CodeSystem/condition-category","code":"problem-list-item"}]}],"code":{"coding":[{"system":"http://snomed.info/sct","code":"736686006"}]},"subject":{"reference":"Patient/9d8e96f7-2db4-4619-a840-badad64096e8"},"onsetDateTime":"2022-04-06T00:00:00+00:00"},"request":{"method":"POST","url":"Condition"}},{"fullUrl":"Condition/e76ceda0-3556-4bf8-ba61-ebc664692b32","resource":{"resourceType":"Condition","id":"e76ceda0-3556-4bf8-ba61-ebc664692b32","meta":{"profile":["http://hl7.org/fhir/us/core/StructureDefinition/us-core-condition"]},"clinicalStatus":{"coding":[{"system":"http://terminology.hl7.org/CodeSystem/condition-clinical","code":"active","display":"Active"}]},"category":[{"coding":[{"system":"http://terminology.hl7.org/CodeSystem/condition-category","code":"problem-list-item"}]}],"code":{"coding":[{"system":"http://snomed.info/sct","code":"44882003"}]},"subject":{"reference":"Patient/9d8e96f7-2db4-4619-a840-badad64096e8"},"onsetDateTime":"2022-07-27T00:00:00+00:00"},"request":{"method":"POST","url":"Condition"}},{"fullUrl":"Condition/da845bed-6812-4c92-a517-dfe919ea61b9","resource":{"resourceType":"Condition","id":"da845bed-6812-4c92-a517-dfe919ea61b9","meta":{"profile":["http://hl7.org/fhir/us/core/StructureDefinition/us-core-condition"]},"clinicalStatus":{"coding":[{"system":"http://terminology.hl7.org/CodeSystem/condition-clinical","code":"active","display":"Active"}]},"category":[{"coding":[{"system":"http://terminology.hl7.org/CodeSystem/condition-category","code":"problem-list-item"}]}],"code":{"coding":[{"system":"http://snomed.info/sct","code":"736686006"}]},"subject":{"reference":"Patient/9d8e96f7-2db4-4619-a840-badad64096e8"},"onsetDateTime":"2022-01-14T00:00:00+00:00"},"request":{"method":"POST","url":"Condition"}},{"fullUrl":"Observation/b6d9ae7d-a01e-403c-a347-2c5ba22fb8a2","resource":{"resourceType":"Observation","id":"b6d9ae7d-a01e-403c-a347-2c5ba22fb8a2","meta":{"profile":["http://hl7.org/fhir/us/core/StructureDefinition/us-core-observation-lab"]},"status":"final","category":[{"coding":[{"system":"http://terminology.hl7.org/CodeSystem/observation-category","code":"laboratory","display":"Laboratory"}]}],"code":{"coding":[{"system":"http://loinc.org","code":"6690-2"}]},"subject":{"reference":"Patient/9d8e96f7-2db4-4619-a840-badad64096e8"},"effectiveDateTime":"2022-04-06T00:00:00+00:00","valueQuantity":{"value":8.3}},"request":{"method":"POST","url":"Observation"}},{"fullUrl":"Observation/30050b00-b9b2-497f-bfb3-c72a0f3725a0","resource":{"resourceType":"Observation","id":"30050b00-b9b2-497f-bfb3-c72a0f3725a0","meta":{"profile":["http://hl7.org/fhir/us/core/StructureDefinition/us-core-observation-lab"]},"status":"final","category":[{"coding":[{"system":"http://terminology.hl7.org/CodeSystem/observation-category","code":"laboratory","display":"Laboratory"}]}],"code":{"coding":[{"system":"http://loinc.org","code":"26464-8"}]},"subject":{"reference":"Patient/9d8e96f7-2db4-4619-a840-badad64096e8"},"effectiveDateTime":"2022-10-20T00:00:00+00:00","valueQuantity":{"value":5.4}},"request":{"method":"POST","url":"Observation"}},{"fullUrl":"Observation/fc186b5e-ced1-4fcd-9b44-b55f3438ca69","resource":{"resourceType":"Observation","id":"fc186b5e-ced1-4fcd-9b44-b55f3438ca69","meta":{"profile":["http://hl7.org/fhir/us/core/StructureDefinition/us-core-observation-lab"]},"status":"final","category":[{"coding":[{"system":"http://terminology.hl7.org/CodeSystem/observation-category","code":"laboratory","display":"Laboratory"}]}],"code":{"coding":[{"system":"http://loinc.org","code":"49498-9"}]},"subject":{"reference":"Patient/9d8e96f7-2db4-4619-a840-badad64096e8"},"effectiveDateTime":"2022-09-01T00:00:00+00:00","valueQuantity":{"value":10.9}},"request":{"method":"POST","url":"Observation"}},{"fullUrl":"Observation/6d9d0fab-8913-4140-9cbc-2487bbfb6ee3","resource":{"resourceType":"Observation","id":"6d9d0fab-8913-4140-9cbc-2487bbfb6ee3","meta":{"profile":["http://hl7.org/fhir/us/core/StructureDefinition/us-core-bmi"]},"status":"final","category":[{"coding":[{"system":"http://terminology.hl7.org/CodeSystem/observation-category","code":"vital-signs","display":"Vital Signs"}]}],"code":{"coding":[{"system":"http://loinc.org","code":"39156-5"}]},"subject":{"reference":"Patient/9d8e96f7-2db4-4619-a840-badad64096e8"},"effectiveDateTime":"2022-05-15T00:00:00+00:00","valueQuantity":{"value":23.46,"unit":"kg/m2","system":"http://unitsofmeasure.org","code":"kg/m2"}},"request":{"method":"POST","url":"Observation"}},{"fullUrl":"Observation/4a665530-aaa4-40b9-bcec-13d08a6de353","resource":{"resourceType":"Observation","id":"4a665530-aaa4-40b9-bcec-13d08a6de353","meta":{"profile":["http://hl7.org/fhir/us/core/StructureDefinition/us-core-head-circumference"]},"status":"final","category":[{"coding":[{"system":"http://terminology.hl7.org/CodeSystem/observation-category","code":"vital-signs","display":"Vital Signs"}]}],"code":{"coding":[{"system":"http://loinc.org","code":"9843-4"}]},"subject":{"reference":"Patient/9d8e96f7-2db4-4619-a840-badad64096e8"},"effectiveDateTime":"2022-04-25T00:00:00+00:00","valueQuantity":{"value":3,"unit":"Inch","system":"http://unitsofmeasure.org","code":"[in_i]"}},"request":{"method":"POST","url":"Observation"}},{"fullUrl":"Observation/bde1d18e-f92b-416f-a931-4efa81ba5d96","resource":{"resourceType":"Observation","id":"bde1d18e-f92b-416f-a931-4efa81ba5d96","meta":{"profile":["http://hl7.org/fhir/us/core/StructureDefinition/us-core-head-circumference"]},"status":"final","category":[{"coding":[{"system":"http://terminology.hl7.org/CodeSystem/observation-category","code":"vital-signs","display":"Vital Signs"}]}],"code":{"coding":[{"system":"http://loinc.org","code":"9843-4"}]},"subject":{"reference":"Patient/9d8e96f7-2db4-4619-a840-badad64096e8"},"effectiveDateTime":"2022-03-15T00:00:00+00:00","valueQuantity":{"value":4,"unit":"Inch","system":"http://unitsofmeasure.org","code":"[in_i]"}},"request":{"method":"POST","url":"Observation"}},{"fullUrl":"Observation/8f89c4e8-20d4-478d-9d19-395fc8cb6c7c","resource":{"resourceType":"Observation","id":"8f89c4e8-20d4-478d-9d19-395fc8cb6c7c","meta":{"profile":["http://hl7.org/fhir/us/core/StructureDefinition/us-core-body-height"]},"status":"final","category":[{"coding":[{"system":"http://terminology.hl7.org/CodeSystem/observation-category","code":"vital-signs","display":"Vital Signs"}]}],"code":{"coding":[{"system":"http://loinc.org","code":"8302-2"}]},"subject":{"reference":"Patient/9d8e96f7-2db4-4619-a840-badad64096e8"},"effectiveDateTime":"2022-05-06T00:00:00+00:00","valueQuantity":{"value":63.3,"unit":"Inch","system":"http://unitsofmeasure.org","code":"[in_i]"}},"request":{"method":"POST","url":"Observation"}},{"fullUrl":"Observation/c79380c5-a530-43a1-8d62-f85e318dafb7","resource":{"resourceType":"Observation","id":"c79380c5-a530-43a1-8d62-f85e318dafb7","meta":{"profile":["http://hl7.org/fhir/us/core/StructureDefinition/us-core-body-height"]},"status":"final","category":[{"coding":[{"system":"http://terminology.hl7.org/CodeSystem/observation-category","code":"vital-signs","display":"Vital Signs"}]}],"code":{"coding":[{"system":"http://loinc.org","code":"8302-2"}]},"subject":{"reference":"Patient/9d8e96f7-2db4-4619-a840-badad64096e8"},"effectiveDateTime":"2022-10-18T00:00:00+00:00","valueQuantity":{"value":60.2,"unit":"Inch","system":"http://unitsofmeasure.org","code":"[in_i]"}},"request":{"method":"POST","url":"Observation"}},{"fullUrl":"Observation/97e9bf43-b028-4aa7-b545-994186881bf3","resource":{"resourceType":"Observation","id":"97e9bf43-b028-4aa7-b545-994186881bf3","meta":{"profile":["http://hl7.org/fhir/us/core/StructureDefinition/us-core-body-weight"]},"status":"final","category":[{"coding":[{"system":"http://terminology.hl7.org/CodeSystem/observation-category","code":"vital-signs","display":"Vital Signs"}]}],"code":{"coding":[{"system":"http://loinc.org","code":"29463-7"}]},"subject":{"reference":"Patient/9d8e96f7-2db4-4619-a840-badad64096e8"},"effectiveDateTime":"2022-06-21T00:00:00+00:00","valueQuantity":{"value":49.16,"unit":"kilogram","system":"http://unitsofmeasure.org","code":"kg"}},"request":{"method":"POST","url":"Observation"}},{"fullUrl":"Observation/500df688-a58f-42a4-afa0-2f6037c87756","resource":{"resourceType":"Observation","id":"500df688-a58f-42a4-afa0-2f6037c87756","meta":{"profile":["http://hl7.org/fhir/us/core/StructureDefinition/us-core-body-temperature"]},"status":"final","category":[{"coding":[{"system":"http://terminology.hl7.org/CodeSystem/observation-category","code":"vital-signs","display":"Vital Signs"}]}],"code":{"coding":[{"system":"http://loinc.org","code":"8310-5"}]},"subject":{"reference":"Patient/9d8e96f7-2db4-4619-a840-badad64096e8"},"effectiveDateTime":"2022-01-28T00:00:00+00:00","valueQuantity":{"value":59.56,"unit":"Degrees Fahrenheit","system":"http://unitsofmeasure.org","code":"[degF]"}},"request":{"method":"POST","url":"Observation"}},{"fullUrl":"Observation/e66f7519-c760-4bd8-9948-5bc63b608b08","resource":{"resourceType":"Observation","id":"e66f7519-c760-4bd8-9948-5bc63b608b08","meta":{"profile":["http://hl7.org/fhir/us/core/StructureDefinition/us-core-body-temperature"]},"status":"final","category":[{"coding":[{"system":"http://terminology.hl7.org/CodeSystem/observation-category","code":"vital-signs","display":"Vital Signs"}]}],"code":{"coding":[{"system":"http://loinc.org","code":"8310-5"}]},"subject":{"reference":"Patient/9d8e96f7-2db4-4619-a840-badad64096e8"},"effectiveDateTime":"2022-06-01T00:00:00+00:00","valueQuantity":{"value":92.22,"unit":"Degrees Fahrenheit","system":"http://unitsofmeasure.org","code":"[degF]"}},"request":{"method":"POST","url":"Observation"}},{"fullUrl":"Observation/28ed5ae3-2a44-4c82-88c9-743f303af746","resource":{"resourceType":"Observation","id":"28ed5ae3-2a44-4c82-88c9-743f303af746","meta":{"profile":["http://hl7.org/fhir/us/core/StructureDefinition/us-core-heart-rate"]},"status":"final","category":[{"coding":[{"system":"http://terminology.hl7.org/CodeSystem/observation-category","code":"vital-signs","display":"Vital Signs"}]}],"code":{"coding":[{"system":"http://loinc.org","code":"8867-4"}]},"subject":{"reference":"Patient/9d8e96f7-2db4-4619-a840-badad64096e8"},"effectiveDateTime":"2022-05-23T00:00:00+00:00","valueQuantity":{"value":99.8,"unit":"Per Minute","system":"http://unitsofmeasure.org","code":"/min"}},"request":{"method":"POST","url":"Observation"}},{"fullUrl":"Patient/5b290e24-7c6b-4810-9e9a-9f5f7614dce4","resource":{"resourceType":"Patient","id":"5b290e24-7c6b-4810-9e9a-9f5f7614dce4","meta":{"profile":["http://hl7.org/fhir/us/core/StructureDefinition/us-core-patient"]},"extension":[{"extension":[{"url":"ombCategory","valueCoding":{"system":"urn:oid:2.16.840.1.113883.6.238","code":"2076-8","display":"Native Hawaiian or Other Pacific Islander"}},{"url":"text","valueString":"Native Hawaiian or Other Pacific Islander"}],"url":"http://hl7.org/fhir/us/core/StructureDefinition/us-core-race"},{"extension":[{"url":"ombCategory","valueCoding":{"system":"urn:oid:2.16.840.1.113883.6.238","code":"2135-2","display":"Hispanic or Latino"}},{"url":"text","valueString":"Hispanic or Latino"}],"url":"http://hl7.org/fhir/us/core/StructureDefinition/us-core-ethnicity"}],"identifier":[{"type":{"coding":[{"system":"http://terminology.hl7.org/CodeSystem/v2-0203","code":"MR"}]},"system":"urn:fhirgen:mrn","value":"071-25-5756"},{"system":"http://hl7.org/fhir/sid/us-ssn","value":"378-76-7766"}],"name":[{"use":"official","family":"Snow","given":["Heidi"]},{"use":"maiden","family":"Davis"}],"telecom":[{"system":"phone","value":"592-974-3816x353","use":"mobile"},{"system":"email","value":"martinezmichelle@yahoo.com","use":"work"}],"gender":"female","birthDate":"1977-07-07","address":[{"use":"home","line":["16923 Amber Expressway"],"city":"Sanchezside","state":"IL","postalCode":"52305"},{"use":"old","line":["1113 Salinas Turnpike"],"city":"Lake Antonioborough","state":"MT","postalCode":"61641"}],"maritalStatus":{"coding":[{"system":"http://terminology.hl7.org/CodeSystem/v3-MaritalStatus","code":"T","display":"Domestic partner"}]}},"request":{"method":"POST","url":"Patient"}},{"fullUrl":"Observation/a1342427-743c-4da1-ba76-8a5ce40b03b0","resource":{"resourceType":"Observation","id":"a1342427-743c-4da1-ba76-8a5ce40b03b0","meta":{"profile":["http://hl7.org/fhir/us/core/StructureDefinition/us-core-observation-lab"]},"status":"final","category":[{"coding":[{"system":"http://terminology.hl7.org/CodeSystem/observation-category","code":"laboratory","display":"Laboratory"}]}],"code":{"coding":[{"system":"http://loinc.org","code":"47235-7"}]},"subject":{"reference":"Patient/5b290e24-7c6b-4810-9e9a-9f5f7614dce4"},"effectiveDateTime":"2022-07-16T00:00:00+00:00","valueRatio":{"numerator":{"value":1},"denominator":{"value":4}}},"request":{"method":"POST","url":"Observation"}},{"fullUrl":"Observation/6de4868a-2425-42b2-987d-7f6f412af7b2","resource":{"resourceType":"Observation","id":"6de4868a-2425-42b2-987d-7f6f412af7b2","meta":{"profile":["http://hl7.org/fhir/us/core/StructureDefinition/us-core-observation-lab"]},"status":"final","category":[{"coding":[{"system":"http://terminology.hl7.org/CodeSystem/observation-category","code":"laboratory","display":"Laboratory"}]}],"code":{"coding":[{"system":"http://loinc.org","code":"50695-6"}]},"subject":{"reference":"Patient/5b290e24-7c6b-4810-9e9a-9f5f7614dce4"},"effectiveDateTime":"2022-11-07T00:00:00+00:00","valueRatio":{"numerator":{"value":1},"denominator":{"value":4}}},"request":{"method":"POST","url":"Observation"}},{"fullUrl":"Observation/6f5326bf-cdd0-40bb-a5bf-2fe3ae0b3e7f","resource":{"resourceType":"Observation","id":"6f5326bf-cdd0-40bb-a5bf-2fe3ae0b3e7f","meta":{"profile":["http://hl7.org/fhir/us/core/StructureDefinition/us-core-observation-lab"]},"status":"final","category":[{"coding":[{"system":"http://terminology.hl7.org/CodeSystem/observation-category","code":"laboratory","display":"Laboratory"}]}],"code":{"coding":[{"system":"http://loinc.org","code":"26009-1"}]},"subject":{"reference":"Patient/5b290e24-7c6b-4810-9e9a-9f5f7614dce4"},"effectiveDateTime":"2022-02-25T00:00:00+00:00","valueRatio":{"numerator":{"value":1},"denominator":{"value":64}}},"request":{"method":"POST","url":"Observation"}},{"fullUrl":"Condition/c147095b-e595-4c9d-bdc9-5c475ef784e2","resource":{"resourceType":"Condition","id":"c147095b-e595-4c9d-bdc9-5c475ef784e2","meta":{"profile":["http://hl7.org/fhir/us/core/StructureDefinition/us-core-condition"]},"clinicalStatus":{"coding":[{"system":"http://terminology.hl7.org/CodeSystem/condition-clinical","code":"active","display":"Active"}]},"category":[{"coding":[{"system":"http://terminology.hl7.org/CodeSystem/condition-category","code":"problem-list-item"}]}],"code":{"coding":[{"system":"http://snomed.info/sct","code":"91554004"}]},"subject":{"reference":"Patient/5b290e24-7c6b-4810-9e9a-9f5f7614dce4"},"onsetDateTime":"2022-08-24T00:00:00+00:00"},"request":{"method":"POST","url":"Condition"}},{"fullUrl":"Condition/601fcb38-6ba1-43c4-9ff1-300ebc2584ca","resource":{"resourceType":"Condition","id":"601fcb38-6ba1-43c4-9ff1-300ebc2584ca","meta":{"profile":["http://hl7.org/fhir/us/core/StructureDefinition/us-core-condition"]},"clinicalStatus":{"coding":[{"system":"http://terminology.hl7.org/CodeSystem/condition-clinical","code":"active","display":"Active"}]},"category":[{"coding":[{"system":"http://terminology.hl7.org/CodeSystem/condition-category","code":"problem-list-item"}]}],"code":{"coding":[{"system":"http://snomed.info/sct","code":"91554004"}]},"subject":{"reference":"Patient/5b290e24-7c6b-4810-9e9a-9f5f7614dce4"},"onsetDateTime":"2022-10-02T00:00:00+00:00"},"request":{"method":"POST","url":"Condition"}},{"fullUrl":"Condition/f769e380-cfa8-4511-a20a-7e3fa5643f97","resource":{"resourceType":"Condition","id":"f769e380-cfa8-4511-a20a-7e3fa5643f97","meta":{"profile":["http://hl7.org/fhir/us/core/StructureDefinition/us-core-condition"]},"clinicalStatus":{"coding":[{"system":"http://terminology.hl7.org/CodeSystem/condition-clinical","code":"active","display":"Active"}]},"category":[{"coding":[{"system":"http://terminology.hl7.org/CodeSystem/condition-category","code":"problem-list-item"}]}],"code":{"coding":[{"system":"http://snomed.info/sct","code":"91554004"}]},"subject":{"reference":"Patient/5b290e24-7c6b-4810-9e9a-9f5f7614dce4"},"onsetDateTime":"2022-11-13T00:00:00+00:00"},"request":{"method":"POST","url":"Condition"}},{"fullUrl":"Condition/57db7979-c549-4ec1-9c97-0bce1e8f16a7","resource":{"resourceType":"Condition","id":"57db7979-c549-4ec1-9c97-0bce1e8f16a7","meta":{"profile":["http://hl7.org/fhir/us/core/StructureDefinition/us-core-condition"]},"clinicalStatus":{"coding":[{"system":"http://terminology.hl7.org/CodeSystem/condition-clinical","code":"active","display":"Active"}]},"category":[{"coding":[{"system":"http://terminology.hl7.org/CodeSystem/condition-category","code":"problem-list-item"}]}],"code":{"coding":[{"system":"http://snomed.info/sct","code":"709977002"}]},"subject":{"reference":"Patient/5b290e24-7c6b-4810-9e9a-9f5f7614dce4"},"onsetDateTime":"2022-07-03T00:00:00+00:00"},"request":{"method":"POST","url":"Condition"}},{"fullUrl":"Observation/3b2761be-21a2-4c37-96cf-aaafffd80435","resource":{"resourceType":"Observation","id":"3b2761be-21a2-4c37-96cf-aaafffd80435","meta":{"profile":["http://hl7.org/fhir/us/core/StructureDefinition/us-core-observation-lab"]},"status":"final","category":[{"coding":[{"system":"http://terminology.hl7.org/CodeSystem/observation-category","code":"laboratory","display":"Laboratory"}]}],"code":{"coding":[{"system":"http://loinc.org","code":"6690-2"}]},"subject":{"reference":"Patient/5b290e24-7c6b-4810-9e9a-9f5f7614dce4"},"effectiveDateTime":"2022-07-27T00:00:00+00:00","valueQuantity":{"value":8.2}},"request":{"method":"POST","url":"Observation"}},{"fullUrl":"Observation/81930d11-7038-4ef5-b873-72260004712b","resource":{"resourceType":"Observation","id":"81930d11-7038-4ef5-b873-72260004712b","meta":{"profile":["http://hl7.org/fhir/us/core/StructureDefinition/us-core-observation-lab"]},"status":"final","category":[{"coding":[{"system":"http://terminology.hl7.org/CodeSystem/observation-category","code":"laboratory","display":"Laboratory"}]}],"code":{"coding":[{"system":"http://loinc.org","code":"6690-2"}]},"subject":{"reference":"Patient/5b290e24-7c6b-4810-9e9a-9f5f7614dce4"},"effectiveDateTime":"2022-06-15T00:00:00+00:00","valueQuantity":{"value":8}},"request":{"method":"POST","url":"Observation"}},{"fullUrl":"Observation/2ff85867-e362-4f89-94a5-8a82891aba43","resource":{"resourceType":"Observation","id":"2ff85867-e362-4f89-94a5-8a82891aba43","meta":{"profile":["http://hl7.org/fhir/us/core/StructureDefinition/us-core-observation-lab"]},"status":"final","category":[{"coding":[{"system":"http://terminology.hl7.org/CodeSystem/observation-category","code":"laboratory","display":"Laboratory"}]}],"code":{"coding":[{"system":"http://loinc.org","code":"26464-8"}]},"subject":{"reference":"Patient/5b290e24-7c6b-4810-9e9a-9f5f7614dce4"},"effectiveDateTime":"2022-08-30T00:00:00+00:00","valueQuantity":{"value":9.7}},"request":{"method":"POST","url":"Observation"}},{"fullUrl":"Observation/a9b5ac88-c793-481f-9123-98067ed7f8c0","resource":{"resourceType":"Observation","id":"a9b5ac88-c793-481f-9123-98067ed7f8c0","meta":{"profile":["http://hl7.org/fhir/us/core/StructureDefinition/us-core-bmi"]},"status":"final","category":[{"coding":[{"system":"http://terminology.hl7.org/CodeSystem/observation-category","code":"vital-signs","display":"Vital Signs"}]}],"code":{"coding":[{"system":"http://loinc.org","code":"39156-5"}]},"subject":{"reference":"Patient/5b290e24-7c6b-4810-9e9a-9f5f7614dce4"},"effectiveDateTime":"2022-08-12T00:00:00+00:00","valueQuantity":{"value":16.7,"unit":"kg/m2","system":"http://unitsofmeasure.org","code":"kg/m2"}},"request":{"method":"POST","url":"Observation"}},{"fullUrl":"Observation/51a3ce18-baef-4b52-8867-547238f245d9","resource":{"resourceType":"Observation","id":"51a3ce18-baef-4b52-8867-547238f245d9","meta":{"profile":["http://hl7.org/fhir/us/core/StructureDefinition/us-core-bmi"]},"status":"final","category":[{"coding":[{"system":"http://terminology.hl7.org/CodeSystem/observation-category","code":"vital-signs","display":"Vital Signs"}]}],"code":{"coding":[{"system":"http://loinc.org","code":"39156-5"}]},"subject":{"reference":"Patient/5b290e24-7c6b-4810-9e9a-9f5f7614dce4"},"effectiveDateTime":"2022-10-06T00:00:00+00:00","valueQuantity":{"value":27.39,"unit":"kg/m2","system":"http://unitsofmeasure.org","code":"kg/m2"}},"request":{"method":"POST","url":"Observation"}},{"fullUrl":"Observation/ee05627b-8bcc-4536-9198-f4afc1e37cc1","resource":{"resourceType":"Observation","id":"ee05627b-8bcc-4536-9198-f4afc1e37cc1","meta":{"profile":["http://hl7.org/fhir/us/core/StructureDefinition/us-core-head-circumference"]},"status":"final","category":[{"coding":[{"system":"http://terminology.hl7.org/CodeSystem/observation-category","code":"vital-signs","display":"Vital Signs"}]}],"code":{"coding":[{"system":"http://loinc.org","code":"9843-4"}]},"subject":{"reference":"Patient/5b290e24-7c6b-4810-9e9a-9f5f7614dce4"},"effectiveDateTime":"2022-07-31T00:00:00+00:00","valueQuantity":{"value":8.9,"unit":"Inch","system":"http://unitsofmeasure.org","code":"[in_i]"}},"request":{"method":"POST","url":"Observation"}},{"fullUrl":"Observation/f05547b2-b871-4eae-a89b-e50252735925","resource":{"resourceType":"Observation","id":"f05547b2-b871-4eae-a89b-e50252735925","meta":{"profile":["http://hl7.org/fhir/us/core/StructureDefinition/us-core-body-height"]},"status":"final","category":[{"coding":[{"system":"http://terminology.hl7.org/CodeSystem/observation-category","code":"vital-signs","display":"Vital Signs"}]}],"code":{"coding":[{"system":"http://loinc.org","code":"8302-2"}]},"subject":{"reference":"Patient/5b290e24-7c6b-4810-9e9a-9f5f7614dce4"},"effectiveDateTime":"2022-11-11T00:00:00+00:00","valueQuantity":{"value":64.5,"unit":"Inch","system":"http://unitsofmeasure.org","code":"[in_i]"}},"request":{"method":"POST","url":"Observation"}},{"fullUrl":"Observation/fed335c0-6c4a-43f5-a71a-1b3467456a78","resource":{"resourceType":"Observation","id":"fed335c0-6c4a-43f5-a71a-1b3467456a78","meta":{"profile":["http://hl7.org/fhir/us/core/StructureDefinition/us-core-body-height"]},"status":"final","category":[{"coding":[{"system":"http://terminology.hl7.org/CodeSystem/observation-category","code":"vital-signs","display":"Vital Signs"}]}],"code":{"coding":[{"system":"http://loinc.org","code":"8302-2"}]},"subject":{"reference":"Patient/5b290e24-7c6b-4810-9e9a-9f5f7614dce4"},"effectiveDateTime":"2022-08-10T00:00:00+00:00","valueQuantity":{"value":83.2,"unit":"Inch","system":"http://unitsofmeasure.org","code":"[in_i]"}},"request":{"method":"POST","url":"Observation"}},{"fullUrl":"Observation/4927b8d8-ec83-4f45-ae15-f5f41e37f756","resource":{"resourceType":"Observation","id":"4927b8d8-ec83-4f45-ae15-f5f41e37f756","meta":{"profile":["http://hl7.org/fhir/us/core/StructureDefinition/us-core-body-weight"]},"status":"final","category":[{"coding":[{"system":"http://terminology.hl7.org/CodeSystem/observation-category","code":"vital-signs","display":"Vital Signs"}]}],"code":{"coding":[{"system":"http://loinc.org","code":"29463-7"}]},"subject":{"reference":"Patient/5b290e24-7c6b-4810-9e9a-9f5f7614dce4"},"effectiveDateTime":"2022-10-22T00:00:00+00:00","valueQuantity":{"value":50.97,"unit":"kilogram","system":"http://unitsofmeasure.org","code":"kg"}},"request":{"method":"POST","url":"Observation"}},{"fullUrl":"Observation/3cd7ec47-0d36-42de-b381-087e77d8d417","resource":{"resourceType":"Observation","id":"3cd7ec47-0d36-42de-b381-087e77d8d417","meta":{"profile":["http://hl7.org/fhir/us/core/StructureDefinition/us-core-body-temperature"]},"status":"final","category":[{"coding":[{"system":"http://terminology.hl7.org/CodeSystem/observation-category","code":"vital-signs","display":"Vital Signs"}]}],"code":{"coding":[{"system":"http://loinc.org","code":"8310-5"}]},"subject":{"reference":"Patient/5b290e24-7c6b-4810-9e9a-9f5f7614dce4"},"effectiveDateTime":"2022-12-02T00:00:00+00:00","valueQuantity":{"value":53.5,"unit":"Degrees Fahrenheit","system":"http://unitsofmeasure.org","code":"[degF]"}},"request":{"method":"POST","url":"Observation"}},{"fullUrl":"Observation/8c171fc4-1b86-42cc-8cfc-c96fb934df0a","resource":{"resourceType":"Observation","id":"8c171fc4-1b86-42cc-8cfc-c96fb934df0a","meta":{"profile":["http://hl7.org/fhir/us/core/StructureDefinition/us-core-body-temperature"]},"status":"final","category":[{"coding":[{"system":"http://terminology.hl7.org/CodeSystem/observation-category","code":"vital-signs","display":"Vital Signs"}]}],"code":{"coding":[{"system":"http://loinc.org","code":"8310-5"}]},"subject":{"reference":"Patient/5b290e24-7c6b-4810-9e9a-9f5f7614dce4"},"effectiveDateTime":"2022-04-28T00:00:00+00:00","valueQuantity":{"value":132.82,"unit":"Degrees Fahrenheit","system":"http://unitsofmeasure.org","code":"[degF]"}},"request":{"method":"POST","url":"Observation"}},{"fullUrl":"Observation/62ef5e4e-5b5b-4937-ac79-95855a41c6fa","resource":{"resourceType":"Observation","id":"62ef5e4e-5b5b-4937-ac79-95855a41c6fa","meta":{"profile":["http://hl7.org/fhir/us/core/StructureDefinition/us-core-heart-rate"]},"status":"final","category":[{"coding":[{"system":"http://terminology.hl7.org/CodeSystem/observation-category","code":"vital-signs","display":"Vital Signs"}]}],"code":{"coding":[{"system":"http://loinc.org","code":"8867-4"}]},"subject":{"reference":"Patient/5b290e24-7c6b-4810-9e9a-9f5f7614dce4"},"effectiveDateTime":"2022-04-05T00:00:00+00:00","valueQuantity":{"value":97.9,"unit":"Per Minute","system":"http://unitsofmeasure.org","code":"/min"}},"request":{"method":"POST","url":"Observation"}},{"fullUrl":"Patient/2e824ea9-81f9-41bb-82bb-56e7fbaef994","resource":{"resourceType":"Patient","id":"2e824ea9-81f9-41bb-82bb-56e7fbaef994","meta":{"profile":["http://hl7.org/fhir/us/core/StructureDefinition/us-core-patient"]},"extension":[{"extension":[{"url":"ombCategory","valueCoding":{"system":"urn:oid:2.16.840.1.113883.6.238","code":"2106-3","display":"White"}},{"url":"text","valueString":"White"}],"url":"http://hl7.org/fhir/us/core/StructureDefinition/us-core-race"},{"extension":[{"url":"ombCategory","valueCoding":{"system":"urn:oid:2.16.840.1.113883.6.238","code":"2135-2","display":"Hispanic or Latino"}},{"url":"text","valueString":"Hispanic or Latino"}],"url":"http://hl7.org/fhir/us/core/StructureDefinition/us-core-ethnicity"}],"identifier":[{"type":{"coding":[{"system":"http://terminology.hl7.org/CodeSystem/v2-0203","code":"MR"}]},"system":"urn:fhirgen:mrn","value":"676-11-7462"},{"system":"http://hl7.org/fhir/sid/us-ssn","value":"234-36-2502"}],"name":[{"use":"official","family":"Reed","given":["Kellie"]},{"use":"maiden","family":"Hines"}],"telecom":[{"system":"phone","value":"+1-825-467-8504","use":"mobile"},{"system":"email","value":"benderdonald@hotmail.com","use":"mobile"}],"gender":"female","birthDate":"1992-09-02","address":[{"use":"home","line":["3477 Jeffrey Parkway Suite 656"],"city":"East Sarahhaven","state":"VA","postalCode":"62467"},{"use":"old","line":["90718 Tina Falls Apt. 978"],"city":"Alexischester","state":"DC","postalCode":"25641"}],"maritalStatus":{"coding":[{"system":"http://terminology.hl7.org/CodeSystem/v3-MaritalStatus","code":"M","display":"Married"}]}},"request":{"method":"POST","url":"Patient"}},{"fullUrl":"Observation/1884ed4d-33f4-4321-bce5-b4dcd2d493be","resource":{"resourceType":"Observation","id":"1884ed4d-33f4-4321-bce5-b4dcd2d493be","meta":{"profile":["http://hl7.org/fhir/us/core/StructureDefinition/us-core-observation-lab"]},"status":"final","category":[{"coding":[{"system":"http://terminology.hl7.org/CodeSystem/observation-category","code":"laboratory","display":"Laboratory"}]}],"code":{"coding":[{"system":"http://loinc.org","code":"26009-1"}]},"subject":{"reference":"Patient/2e824ea9-81f9-41bb-82bb-56e7fbaef994"},"effectiveDateTime":"2022-01-16T00:00:00+00:00","valueRatio":{"numerator":{"value":1},"denominator":{"value":32}}},"request":{"method":"POST","url":"Observation"}},{"fullUrl":"Observation/9617cff8-f9de-4d51-ab0a-dd4eb5059404","resource":{"resourceType":"Observation","id":"9617cff8-f9de-4d51-ab0a-dd4eb5059404","meta":{"profile":["http://hl7.org/fhir/us/core/StructureDefinition/us-core-observation-lab"]},"status":"final","category":[{"coding":[{"system":"http://terminology.hl7.org/CodeSystem/observation-category","code":"laboratory","display":"Laboratory"}]}],"code":{"coding":[{"system":"http://loinc.org","code":"46203-6"}]},"subject":{"reference":"Patient/2e824ea9-81f9-41bb-82bb-56e7fbaef994"},"effectiveDateTime":"2022-07-16T00:00:00+00:00","valueRatio":{"numerator":{"value":1},"denominator":{"value":64}}},"request":{"method":"POST","url":"Observation"}},{"fullUrl":"Condition/e0db1a8a-a096-4545-89f9-5ad7666f39be","resource":{"resourceType":"Condition","id":"e0db1a8a-a096-4545-89f9-5ad7666f39be","meta":{"profile":["http://hl7.org/fhir/us/core/StructureDefinition/us-core-condition"]},"clinicalStatus":{"coding":[{"system":"http://terminology.hl7.org/CodeSystem/condition-clinical","code":"active","display":"Active"}]},"category":[{"coding":[{"system":"http://terminology.hl7.org/CodeSystem/condition-category","code":"problem-list-item"}]}],"code":{"coding":[{"system":"http://snomed.info/sct","code":"91554004"}]},"subject":{"reference":"Patient/2e824ea9-81f9-41bb-82bb-56e7fbaef994"},"onsetDateTime":"2022-12-29T00:00:00+00:00"},"request":{"method":"POST","url":"Condition"}},{"fullUrl":"Condition/66e5ee3e-1c29-4838-aa24-5eb83a46afbb","resource":{"resourceType":"Condition","id":"66e5ee3e-1c29-4838-aa24-5eb83a46afbb","meta":{"profile":["http://hl7.org/fhir/us/core/StructureDefinition/us-core-condition"]},"clinicalStatus":{"coding":[{"system":"http://terminology.hl7.org/CodeSystem/condition-clinical","code":"active","display":"Active"}]},"category":[{"coding":[{"system":"http://terminology.hl7.org/CodeSystem/condition-category","code":"problem-list-item"}]}],"code":{"coding":[{"system":"http://snomed.info/sct","code":"91554004"}]},"subject":{"reference":"Patient/2e824ea9-81f9-41bb-82bb-56e7fbaef994"},"onsetDateTime":"2022-01-29T00:00:00+00:00"},"request":{"method":"POST","url":"Condition"}},{"fullUrl":"Condition/af2006f1-ce2b-4b79-9c9e-5b7be37d7fc0","resource":{"resourceType":"Condition","id":"af2006f1-ce2b-4b79-9c9e-5b7be37d7fc0","meta":{"profile":["http://hl7.org/fhir/us/core/StructureDefinition/us-core-condition"]},"clinicalStatus":{"coding":[{"system":"http://terminology.hl7.org/CodeSystem/condition-clinical","code":"active","display":"Active"}]},"category":[{"coding":[{"system":"http://terminology.hl7.org/CodeSystem/condition-category","code":"problem-list-item"}]}],"code":{"coding":[{"system":"http://snomed.info/sct","code":"418290006"}]},"subject":{"reference":"Patient/2e824ea9-81f9-41bb-82bb-56e7fbaef994"},"onsetDateTime":"2022-06-12T00:00:00+00:00"},"request":{"method":"POST","url":"Condition"}},{"fullUrl":"Condition/7ffd8df8-a3e4-46da-9b3b-689c470f1930","resource":{"resourceType":"Condition","id":"7ffd8df8-a3e4-46da-9b3b-689c470f1930","meta":{"profile":["http://hl7.org/fhir/us/core/StructureDefinition/us-core-condition"]},"clinicalStatus":{"coding":[{"system":"http://terminology.hl7.org/CodeSystem/condition-clinical","code":"active","display":"Active"}]},"category":[{"coding":[{"system":"http://terminology.hl7.org/CodeSystem/condition-category","code":"problem-list-item"}]}],"code":{"coding":[{"system":"http://snomed.info/sct","code":"736686006"}]},"subject":{"reference":"Patient/2e824ea9-81f9-41bb-82bb-56e7fbaef994"},"onsetDateTime":"2022-12-23T00:00:00+00:00"},"request":{"method":"POST","url":"Condition"}},{"fullUrl":"Condition/29c88178-1dd9-4eca-8a9b-6b48e1407266","resource":{"resourceType":"Condition","id":"29c88178-1dd9-4eca-8a9b-6b48e1407266","meta":{"profile":["http://hl7.org/fhir/us/core/StructureDefinition/us-core-condition"]},"clinicalStatus":{"coding":[{"system":"http://terminology.hl7.org/CodeSystem/condition-clinical","code":"active","display":"Active"}]},"category":[{"coding":[{"system":"http://terminology.hl7.org/CodeSystem/condition-category","code":"problem-list-item"}]}],"code":{"coding":[{"system":"http://snomed.info/sct","code":"418290006"}]},"subject":{"reference":"Patient/2e824ea9-81f9-41bb-82bb-56e7fbaef994"},"onsetDateTime":"2022-08-23T00:00:00+00:00"},"request":{"method":"POST","url":"Condition"}},{"fullUrl":"Condition/c7a47736-a5e2-4bf5-8d14-25c39c1d0112","resource":{"resourceType":"Condition","id":"c7a47736-a5e2-4bf5-8d14-25c39c1d0112","meta":{"profile":["http://hl7.org/fhir/us/core/StructureDefinition/us-core-condition"]},"clinicalStatus":{"coding":[{"system":"http://terminology.hl7.org/CodeSystem/condition-clinical","code":"active","display":"Active"}]},"category":[{"coding":[{"system":"http://terminology.hl7.org/CodeSystem/condition-category","code":"problem-list-item"}]}],"code":{"coding":[{"system":"http://snomed.info/sct","code":"91554004"}]},"subject":{"reference":"Patient/2e824ea9-81f9-41bb-82bb-56e7fbaef994"},"onsetDateTime":"2022-03-13T00:00:00+00:00"},"request":{"method":"POST","url":"Condition"}},{"fullUrl":"Condition/3768370a-2f1b-4887-a722-303e54ee25cd","resource":{"resourceType":"Condition","id":"3768370a-2f1b-4887-a722-303e54ee25cd","meta":{"profile":["http://hl7.org/fhir/us/core/StructureDefinition/us-core-condition"]},"clinicalStatus":{"coding":[{"system":"http://terminology.hl7.org/CodeSystem/condition-clinical","code":"active","display":"Active"}]},"category":[{"coding":[{"system":"http://terminology.hl7.org/CodeSystem/condition-category","code":"problem-list-item"}]}],"code":{"coding":[{"system":"http://snomed.info/sct","code":"91554004"}]},"subject":{"reference":"Patient/2e824ea9-81f9-41bb-82bb-56e7fbaef994"},"onsetDateTime":"2022-12-30T00:00:00+00:00"},"request":{"method":"POST","url":"Condition"}},{"fullUrl":"Condition/c8fae109-65f6-408e-a374-19b087dd4c14","resource":{"resourceType":"Condition","id":"c8fae109-65f6-408e-a374-19b087dd4c14","meta":{"profile":["http://hl7.org/fhir/us/core/StructureDefinition/us-core-condition"]},"clinicalStatus":{"coding":[{"system":"http://terminology.hl7.org/CodeSystem/condition-clinical","code":"active","display":"Active"}]},"category":[{"coding":[{"system":"http://terminology.hl7.org/CodeSystem/condition-category","code":"problem-list-item"}]}],"code":{"coding":[{"system":"http://snomed.info/sct","code":"736686006"}]},"subject":{"reference":"Patient/2e824ea9-81f9-41bb-82bb-56e7fbaef994"},"onsetDateTime":"2022-10-26T00:00:00+00:00"},"request":{"method":"POST","url":"Condition"}},{"fullUrl":"Observation/02c6eb6d-326b-4379-a478-57715d72f633","resource":{"resourceType":"Observation","id":"02c6eb6d-326b-4379-a478-57715d72f633","meta":{"profile":["http://hl7.org/fhir/us/core/StructureDefinition/us-core-observation-lab"]},"status":"final","category":[{"coding":[{"system":"http://terminology.hl7.org/CodeSystem/observation-category","code":"laboratory","display":"Laboratory"}]}],"code":{"coding":[{"system":"http://loinc.org","code":"26464-8"}]},"subject":{"reference":"Patient/2e824ea9-81f9-41bb-82bb-56e7fbaef994"},"effectiveDateTime":"2022-07-30T00:00:00+00:00","valueQuantity":{"value":5.1}},"request":{"method":"POST","url":"Observation"}},{"fullUrl":"Observation/e023e313-c7bd-45f9-8f9f-fcf8f0dc2c9f","resource":{"resourceType":"Observation","id":"e023e313-c7bd-45f9-8f9f-fcf8f0dc2c9f","meta":{"profile":["http://hl7.org/fhir/us/core/StructureDefinition/us-core-observation-lab"]},"status":"final","category":[{"coding":[{"system":"http://terminology.hl7.org/CodeSystem/observation-category","code":"laboratory","display":"Laboratory"}]}],"code":{"coding":[{"system":"http://loinc.org","code":"49498-9"}]},"subject":{"reference":"Patient/2e824ea9-81f9-41bb-82bb-56e7fbaef994"},"effectiveDateTime":"2022-07-20T00:00:00+00:00","valueQuantity":{"value":4.5}},"request":{"method":"POST","url":"Observation"}},{"fullUrl":"Observation/2e514efc-6338-4872-8d81-ce7383686960","resource":{"resourceType":"Observation","id":"2e514efc-6338-4872-8d81-ce7383686960","meta":{"profile":["http://hl7.org/fhir/us/core/StructureDefinition/us-core-bmi"]},"status":"final","category":[{"coding":[{"system":"http://terminology.hl7.org/CodeSystem/observation-category","code":"vital-signs","display":"Vital Signs"}]}],"code":{"coding":[{"system":"http://loinc.org","code":"39156-5"}]},"subject":{"reference":"Patient/2e824ea9-81f9-41bb-82bb-56e7fbaef994"},"effectiveDateTime":"2022-07-09T00:00:00+00:00","valueQuantity":{"value":15.79,"unit":"kg/m2","system":"http://unitsofmeasure.org","code":"kg/m2"}},"request":{"method":"POST","url":"Observation"}},{"fullUrl":"Observation/d4dfaebb-a788-4e9e-a87a-41ea0cf5b801","resource":{"resourceType":"Observation","id":"d4dfaebb-a788-4e9e-a87a-41ea0cf5b801","meta":{"profile":["http://hl7.org/fhir/us/core/StructureDefinition/us-core-head-circumference"]},"status":"final","category":[{"coding":[{"system":"http://terminology.hl7.org/CodeSystem/observation-category","code":"vital-signs","display":"Vital Signs"}]}],"code":{"coding":[{"system":"http://loinc.org","code":"9843-4"}]},"subject":{"reference":"Patient/2e824ea9-81f9-41bb-82bb-56e7fbaef994"},"effectiveDateTime":"2022-05-12T00:00:00+00:00","valueQuantity":{"value":7.2,"unit":"Inch","system":"http://unitsofmeasure.org","code":"[in_i]"}},"request":{"method":"POST","url":"Observation"}},{"fullUrl":"Observation/cfb6bdc6-dd04-4c47-97d4-fca4f439f584","resource":{"resourceType":"Observation","id":"cfb6bdc6-dd04-4c47-97d4-fca4f439f584","meta":{"profile":["http://hl7.org/fhir/us/core/StructureDefinition/us-core-body-height"]},"status":"final","category":[{"coding":[{"system":"http://terminology.hl7.org/CodeSystem/observation-category","code":"vital-signs","display":"Vital Signs"}]}],"code":{"coding":[{"system":"http://loinc.org","code":"8302-2"}]},"subject":{"reference":"Patient/2e824ea9-81f9-41bb-82bb-56e7fbaef994"},"effectiveDateTime":"2022-08-02T00:00:00+00:00","valueQuantity":{"value":80,"unit":"Inch","system":"http://unitsofmeasure.org","code":"[in_i]"}},"request":{"method":"POST","url":"Observation"}},{"fullUrl":"Observation/2b68557e-85d8-4e28-a03b-6396c759d8ad","resource":{"resourceType":"Observation","id":"2b68557e-85d8-4e28-a03b-6396c759d8ad","meta":{"profile":["http://hl7.org/fhir/us/core/StructureDefinition/us-core-body-weight"]},"status":"final","category":[{"coding":[{"system":"http://terminology.hl7.org/CodeSystem/observation-category","code":"vital-signs","display":"Vital Signs"}]}],"code":{"coding":[{"system":"http://loinc.org","code":"29463-7"}]},"subject":{"reference":"Patient/2e824ea9-81f9-41bb-82bb-56e7fbaef994"},"effectiveDateTime":"2022-11-04T00:00:00+00:00","valueQuantity":{"value":87.36,"unit":"kilogram","system":"http://unitsofmeasure.org","code":"kg"}},"request":{"method":"POST","url":"Observation"}},{"fullUrl":"Observation/a0682d3d-8b70-4b48-9649-2f82aacc1419","resource":{"resourceType":"Observation","id":"a0682d3d-8b70-4b48-9649-2f82aacc1419","meta":{"profile":["http://hl7.org/fhir/us/core/StructureDefinition/us-core-body-weight"]},"status":"final","category":[{"coding":[{"system":"http://terminology.hl7.org/CodeSystem/observation-category","code":"vital-signs","display":"Vital Signs"}]}],"code":{"coding":[{"system":"http://loinc.org","code":"29463-7"}]},"subject":{"reference":"Patient/2e824ea9-81f9-41bb-82bb-56e7fbaef994"},"effectiveDateTime":"2022-01-21T00:00:00+00:00","valueQuantity":{"value":77.78,"unit":"kilogram","system":"http://unitsofmeasure.org","code":"kg"}},"request":{"method":"POST","url":"Observation"}},{"fullUrl":"Observation/0205cb56-66aa-4ff2-bea8-671c10ed01a5","resource":{"resourceType":"Observation","id":"0205cb56-66aa-4ff2-bea8-671c10ed01a5","meta":{"profile":["http://hl7.org/fhir/us/core/StructureDefinition/us-core-body-temperature"]},"status":"final","category":[{"coding":[{"system":"http://terminology.hl7.org/CodeSystem/observation-category","code":"vital-signs","display":"Vital Signs"}]}],"code":{"coding":[{"system":"http://loinc.org","code":"8310-5"}]},"subject":{"reference":"Patient/2e824ea9-81f9-41bb-82bb-56e7fbaef994"},"effectiveDateTime":"2022-08-14T00:00:00+00:00","valueQuantity":{"value":61.47,"unit":"Degrees Fahrenheit","system":"http://unitsofmeasure.org","code":"[degF]"}},"request":{"method":"POST","url":"Observation"}},{"fullUrl":"Observation/bae849ec-397a-4666-8dce-1363d41850e7","resource":{"resourceType":"Observation","id":"bae849ec-397a-4666-8dce-1363d41850e7","meta":{"profile":["http://hl7.org/fhir/us/core/StructureDefinition/us-core-body-temperature"]},"status":"final","category":[{"coding":[{"system":"http://terminology.hl7.org/CodeSystem/observation-category","code":"vital-signs","display":"Vital Signs"}]}],"code":{"coding":[{"system":"http://loinc.org","code":"8310-5"}]},"subject":{"reference":"Patient/2e824ea9-81f9-41bb-82bb-56e7fbaef994"},"effectiveDateTime":"2022-05-02T00:00:00+00:00","valueQuantity":{"value":23.85,"unit":"Degrees Fahrenheit","system":"http://unitsofmeasure.org","code":"[degF]"}},"request":{"method":"POST","url":"Observation"}},{"fullUrl":"Observation/6ede8f11-4ec7-463e-a24f-7b569b6bea46","resource":{"resourceType":"Observation","id":"6ede8f11-4ec7-463e-a24f-7b569b6bea46","meta":{"profile":["http://hl7.org/fhir/us/core/StructureDefinition/us-core-heart-rate"]},"status":"final","category":[{"coding":[{"system":"http://terminology.hl7.org/CodeSystem/observation-category","code":"vital-signs","display":"Vital Signs"}]}],"code":{"coding":[{"system":"http://loinc.org","code":"8867-4"}]},"subject":{"reference":"Patient/2e824ea9-81f9-41bb-82bb-56e7fbaef994"},"effectiveDateTime":"2022-12-19T00:00:00+00:00","valueQuantity":{"value":99.6,"unit":"Per Minute","system":"http://unitsofmeasure.org","code":"/min"}},"request":{"method":"POST","url":"Observation"}},{"fullUrl":"Patient/38c2e444-78a0-47b1-a2f3-1fc6d5052cc5","resource":{"resourceType":"Patient","id":"38c2e444-78a0-47b1-a2f3-1fc6d5052cc5","meta":{"profile":["http://hl7.org/fhir/us/core/StructureDefinition/us-core-patient"]},"extension":[{"extension":[{"url":"ombCategory","valueCoding":{"system":"urn:oid:2.16.840.1.113883.6.238","code":"2028-9","display":"Asian"}},{"url":"text","valueString":"Asian"}],"url":"http://hl7.org/fhir/us/core/StructureDefinition/us-core-race"},{"extension":[{"url":"ombCategory","valueCoding":{"system":"urn:oid:2.16.840.1.113883.6.238","code":"2186-5","display":"Not Hispanic or Latino"}},{"url":"text","valueString":"Not Hispanic or Latino"}],"url":"http://hl7.org/fhir/us/core/StructureDefinition/us-core-ethnicity"}],"identifier":[{"type":{"coding":[{"system":"http://terminology.hl7.org/CodeSystem/v2-0203","code":"MR"}]},"system":"urn:fhirgen:mrn","value":"279-52-5392"},{"system":"http://hl7.org/fhir/sid/us-ssn","value":"819-26-6634"}],"name":[{"use":"official","family":"West","given":["Karen"]},{"use":"maiden","family":"Beasley"}],"telecom":[{"system":"phone","value":"115-688-7937x155","use":"home"},{"system":"email","value":"greenjared@yahoo.com","use":"mobile"}],"gender":"other","birthDate":"1949-07-19","address":[{"use":"home","line":["411 Mark Mall Apt. 177"],"city":"North Joanton","state":"NM","postalCode":"41832"},{"use":"old","line":["87517 Diana Haven Apt. 958"],"city":"Jessicaville","state":"WI","postalCode":"83436"}],"maritalStatus":{"coding":[{"system":"http://terminology.hl7.org/CodeSystem/v3-MaritalStatus","code":"I","display":"Interlocutory"}]}},"request":{"method":"POST","url":"Patient"}},{"fullUrl":"Observation/5d4de8fa-6ba4-4d6b-86ff-36a415f18767","resource":{"resourceType":"Observation","id":"5d4de8fa-6ba4-4d6b-86ff-36a415f18767","meta":{"profile":["http://hl7.org/fhir/us/core/StructureDefinition/us-core-observation-lab"]},"status":"final","category":[{"coding":[{"system":"http://terminology.hl7.org/CodeSystem/observation-category","code":"laboratory","display":"Laboratory"}]}],"code":{"coding":[{"system":"http://loinc.org","code":"46203-6"}]},"subject":{"reference":"Patient/38c2e444-78a0-47b1-a2f3-1fc6d5052cc5"},"effectiveDateTime":"2022-08-11T00:00:00+00:00","valueRatio":{"numerator":{"value":1},"denominator":{"value":32}}},"request":{"method":"POST","url":"Observation"}},{"fullUrl":"Observation/cb7dc293-8e7c-4c44-bc44-f2e2458a7c2b","resource":{"resourceType":"Observation","id":"cb7dc293-8e7c-4c44-bc44-f2e2458a7c2b","meta":{"profile":["http://hl7.org/fhir/us/core/StructureDefinition/us-core-observation-lab"]},"status":"final","category":[{"coding":[{"system":"http://terminology.hl7.org/CodeSystem/observation-category","code":"laboratory","display":"Laboratory"}]}],"code":{"coding":[{"system":"http://loinc.org","code":"34382-2"}]},"subject":{"reference":"Patient/38c2e444-78a0-47b1-a2f3-1fc6d5052cc5"},"effectiveDateTime":"2022-10-10T00:00:00+00:00","valueRatio":{"numerator":{"value":1},"denominator":{"value":4}}},"request":{"method":"POST","url":"Observation"}},{"fullUrl":"Observation/87027c2e-8c1c-4f25-a20b-974891233154","resource":{"resourceType":"Observation","id":"87027c2e-8c1c-4f25-a20b-974891233154","meta":{"profile":["http://hl7.org/fhir/us/core/StructureDefinition/us-core-observation-lab"]},"status":"final","category":[{"coding":[{"system":"http://terminology.hl7.org/CodeSystem/observation-category","code":"laboratory","display":"Laboratory"}]}],"code":{"coding":[{"system":"http://loinc.org","code":"50690-7"}]},"subject":{"reference":"Patient/38c2e444-78a0-47b1-a2f3-1fc6d5052cc5"},"effectiveDateTime":"2022-05-28T00:00:00+00:00","valueRatio":{"numerator":{"value":1},"denominator":{"value":4}}},"request":{"method":"POST","url":"Observation"}},{"fullUrl":"Condition/336be7ad-7785-4620-a474-35a448877d3c","resource":{"resourceType":"Condition","id":"336be7ad-7785-4620-a474-35a448877d3c","meta":{"profile":["http://hl7.org/fhir/us/core/StructureDefinition/us-core-condition"]},"clinicalStatus":{"coding":[{"system":"http://terminology.hl7.org/CodeSystem/condition-clinical","code":"active","display":"Active"}]},"category":[{"coding":[{"system":"http://terminology.hl7.org/CodeSystem/condition-category","code":"problem-list-item"}]}],"code":{"coding":[{"system":"http://snomed.info/sct","code":"91554004"}]},"subject":{"reference":"Patient/38c2e444-78a0-47b1-a2f3-1fc6d5052cc5"},"onsetDateTime":"2022-08-09T00:00:00+00:00"},"request":{"method":"POST","url":"Condition"}},{"fullUrl":"Condition/0033e2a9-8e0b-45fd-9e68-e7557d9c0d17","resource":{"resourceType":"Condition","id":"0033e2a9-8e0b-45fd-9e68-e7557d9c0d17","meta":{"profile":["http://hl7.org/fhir/us/core/StructureDefinition/us-core-condition"]},"clinicalStatus":{"coding":[{"system":"http://terminology.hl7.org/CodeSystem/condition-clinical","code":"active","display":"Active"}]},"category":[{"coding":[{"system":"http://terminology.hl7.org/CodeSystem/condition-category","code":"problem-list-item"}]}],"code":{"coding":[{"system":"http://snomed.info/sct","code":"736686006"}]},"subject":{"reference":"Patient/38c2e444-78a0-47b1-a2f3-1fc6d5052cc5"},"onsetDateTime":"2022-08-09T00:00:00+00:00"},"request":{"method":"POST","url":"Condition"}},{"fullUrl":"Condition/854a1d9d-f39b-4194-998c-043850fff079","resource":{"resourceType":"Condition","id":"854a1d9d-f39b-4194-998c-043850fff079","meta":{"profile":["http://hl7.org/fhir/us/core/StructureDefinition/us-core-condition"]},"clinicalStatus":{"coding":[{"system":"http://terminology.hl7.org/CodeSystem/condition-clinical","code":"active","display":"Active"}]},"category":[{"coding":[{"system":"http://terminology.hl7.org/CodeSystem/condition-category","code":"problem-list-item"}]}],"code":{"coding":[{"system":"http://snomed.info/sct","code":"418290006"}]},"subject":{"reference":"Patient/38c2e444-78a0-47b1-a2f3-1fc6d5052cc5"},"onsetDateTime":"2022-08-25T00:00:00+00:00"},"request":{"method":"POST","url":"Condition"}},{"fullUrl":"Condition/b05357c8-5313-41f9-acff-4f027ee7dfc9","resource":{"resourceType":"Condition","id":"b05357c8-5313-41f9-acff-4f027ee7dfc9","meta":{"profile":["http://hl7.org/fhir/us/core/StructureDefinition/us-core-condition"]},"clinicalStatus":{"coding":[{"system":"http://terminology.hl7.org/CodeSystem/condition-clinical","code":"active","display":"Active"}]},"category":[{"coding":[{"system":"http://terminology.hl7.org/CodeSystem/condition-category","code":"problem-list-item"}]}],"code":{"coding":[{"system":"http://snomed.info/sct","code":"44882003"}]},"subject":{"reference":"Patient/38c2e444-78a0-47b1-a2f3-1fc6d5052cc5"},"onsetDateTime":"2022-04-02T00:00:00+00:00"},"request":{"method":"POST","url":"Condition"}},{"fullUrl":"Condition/65511e49-f764-4991-b2e8-5ebf4b187b8e","resource":{"resourceType":"Condition","id":"65511e49-f764-4991-b2e8-5ebf4b187b8e","meta":{"profile":["http://hl7.org/fhir/us/core/StructureDefinition/us-core-condition"]},"clinicalStatus":{"coding":[{"system":"http://terminology.hl7.org/CodeSystem/condition-clinical","code":"active","display":"Active"}]},"category":[{"coding":[{"system":"http://terminology.hl7.org/CodeSystem/condition-category","code":"problem-list-item"}]}],"code":{"coding":[{"system":"http://snomed.info/sct","code":"709977002"}]},"subject":{"reference":"Patient/38c2e444-78a0-47b1-a2f3-1fc6d5052cc5"},"onsetDateTime":"2022-12-27T00:00:00+00:00"},"request":{"method":"POST","url":"Condition"}},{"fullUrl":"Observation/0d0252e7-5a9b-4a3a-ada6-e909d40cc665","resource":{"resourceType":"Observation","id":"0d0252e7-5a9b-4a3a-ada6-e909d40cc665","meta":{"profile":["http://hl7.org/fhir/us/core/StructureDefinition/us-core-observation-lab"]},"status":"final","category":[{"coding":[{"system":"http://terminology.hl7.org/CodeSystem/observation-category","code":"laboratory","display":"Laboratory"}]}],"code":{"coding":[{"system":"http://loinc.org","code":"26464-8"}]},"subject":{"reference":"Patient/38c2e444-78a0-47b1-a2f3-1fc6d5052cc5"},"effectiveDateTime":"2022-05-01T00:00:00+00:00","valueQuantity":{"value":10.6}},"request":{"method":"POST","url":"Observation"}},{"fullUrl":"Observation/89e745ea-10cf-49ec-800e-2ae4ca28d95a","resource":{"resourceType":"Observation","id":"89e745ea-10cf-49ec-800e-2ae4ca28d95a","meta":{"profile":["http://hl7.org/fhir/us/core/StructureDefinition/us-core-observation-lab"]},"status":"final","category":[{"coding":[{"system":"http://terminology.hl7.org/CodeSystem/observation-category","code":"laboratory","display":"Laboratory"}]}],"code":{"coding":[{"system":"http://loinc.org","code":"26464-8"}]},"subject":{"reference":"Patient/38c2e444-78a0-47b1-a2f3-1fc6d5052cc5"},"effectiveDateTime":"2022-01-07T00:00:00+00:00","valueQuantity":{"value":8}},"request":{"method":"POST","url":"Observation"}},{"fullUrl":"Observation/1b49eb79-c740-4e46-91f9-80dd146d292e","resource":{"resourceType":"Observation","id":"1b49eb79-c740-4e46-91f9-80dd146d292e","meta":{"profile":["http://hl7.org/fhir/us/core/StructureDefinition/us-core-observation-lab"]},"status":"final","category":[{"coding":[{"system":"http://terminology.hl7.org/CodeSystem/observation-category","code":"laboratory","display":"Laboratory"}]}],"code":{"coding":[{"system":"http://loinc.org","code":"26464-8"}]},"subject":{"reference":"Patient/38c2e444-78a0-47b1-a2f3-1fc6d5052cc5"},"effectiveDateTime":"2022-03-19T00:00:00+00:00","valueQuantity":{"value":10}},"request":{"method":"POST","url":"Observation"}},{"fullUrl":"Observation/18146c2f-295c-441d-8ae1-20901736b999","resource":{"resourceType":"Observation","id":"18146c2f-295c-441d-8ae1-20901736b999","meta":{"profile":["http://hl7.org/fhir/us/core/StructureDefinition/us-core-bmi"]},"status":"final","category":[{"coding":[{"system":"http://terminology.hl7.org/CodeSystem/observation-category","code":"vital-signs","display":"Vital Signs"}]}],"code":{"coding":[{"system":"http://loinc.org","code":"39156-5"}]},"subject":{"reference":"Patient/38c2e444-78a0-47b1-a2f3-1fc6d5052cc5"},"effectiveDateTime":"2022-12-12T00:00:00+00:00","valueQuantity":{"value":24.98,"unit":"kg/m2","system":"http://unitsofmeasure.org","code":"kg/m2"}},"request":{"method":"POST","url":"Observation"}},{"fullUrl":"Observation/173c2254-202d-4f21-9da3-58106fbb599a","resource":{"resourceType":"Observation","id":"173c2254-202d-4f21-9da3-58106fbb599a","meta":{"profile":["http://hl7.org/fhir/us/core/StructureDefinition/us-core-bmi"]},"status":"final","category":[{"coding":[{"system":"http://terminology.hl7.org/CodeSystem/observation-category","code":"vital-signs","display":"Vital Signs"}]}],"code":{"coding":[{"system":"http://loinc.org","code":"39156-5"}]},"subject":{"reference":"Patient/38c2e444-78a0-47b1-a2f3-1fc6d5052cc5"},"effectiveDateTime":"2022-06-03T00:00:00+00:00","valueQuantity":{"value":15.7,"unit":"kg/m2","system":"http://unitsofmeasure.org","code":"kg/m2"}},"request":{"method":"POST","url":"Observation"}},{"fullUrl":"Observation/01c62568-a5a9-4447-8f2a-083333a4bae5","resource":{"resourceType":"Observation","id":"01c62568-a5a9-4447-8f2a-083333a4bae5","meta":{"profile":["http://hl7.org/fhir/us/core/StructureDefinition/us-core-head-circumference"]},"status":"final","category":[{"coding":[{"system":"http://terminology.hl7.org/CodeSystem/observation-category","code":"vital-signs","display":"Vital Signs"}]}],"code":{"coding":[{"system":"http://loinc.org","code":"9843-4"}]},"subject":{"reference":"Patient/38c2e444-78a0-47b1-a2f3-1fc6d5052cc5"},"effectiveDateTime":"2022-01-19T00:00:00+00:00","valueQuantity":{"value":8.7,"unit":"Inch","system":"http://unitsofmeasure.org","code":"[in_i]"}},"request":{"method":"POST","url":"Observation"}},{"fullUrl":"Observation/421ef39b-c796-4b75-86df-fd73c2d5691d","resource":{"resourceType":"Observation","id":"421ef39b-c796-4b75-86df-fd73c2d5691d","meta":{"profile":["http://hl7.org/fhir/us/core/StructureDefinition/us-core-body-height"]},"status":"final","category":[{"coding":[{"system":"http://terminology.hl7.org/CodeSystem/observation-category","code":"vital-signs","display":"Vital Signs"}]}],"code":{"coding":[{"system":"http://loinc.org","code":"8302-2"}]},"subject":{"reference":"Patient/38c2e444-78a0-47b1-a2f3-1fc6d5052cc5"},"effectiveDateTime":"2022-03-24T00:00:00+00:00","valueQuantity":{"value":60.7,"unit":"Inch","system":"http://unitsofmeasure.org","code":"[in_i]"}},"request":{"method":"POST","url":"Observation"}},{"fullUrl":"Observation/2f99a48a-4012-4e73-acdb-594bc81eb6c7","resource":{"resourceType":"Observation","id":"2f99a48a-4012-4e73-acdb-594bc81eb6c7","meta":{"profile":["http://hl7.org/fhir/us/core/StructureDefinition/us-core-body-weight"]},"status":"final","category":[{"coding":[{"system":"http://terminology.hl7.org/CodeSystem/observation-category","code":"vital-signs","display":"Vital Signs"}]}],"code":{"coding":[{"system":"http://loinc.org","code":"29463-7"}]},"subject":{"reference":"Patient/38c2e444-78a0-47b1-a2f3-1fc6d5052cc5"},"effectiveDateTime":"2022-12-10T00:00:00+00:00","valueQuantity":{"value":67.1,"unit":"kilogram","system":"http://unitsofmeasure.org","code":"kg"}},"request":{"method":"POST","url":"Observation"}},{"fullUrl":"Observation/da955c01-9e04-4296-a1f6-c5cb154725b7","resource":{"resourceType":"Observation","id":"da955c01-9e04-4296-a1f6-c5cb154725b7","meta":{"profile":["http://hl7.org/fhir/us/core/StructureDefinition/us-core-body-weight"]},"status":"final","category":[{"coding":[{"system":"http://terminology.hl7.org/CodeSystem/observation-category","code":"vital-signs","display":"Vital Signs"}]}],"code":{"coding":[{"system":"http://loinc.org","code":"29463-7"}]},"subject":{"reference":"Patient/38c2e444-78a0-47b1-a2f3-1fc6d5052cc5"},"effectiveDateTime":"2022-04-29T00:00:00+00:00","valueQuantity":{"value":66.03,"unit":"kilogram","system":"http://unitsofmeasure.org","code":"kg"}},"request":{"method":"POST","url":"Observation"}},{"fullUrl":"Observation/33c7faa5-418a-4c1e-a390-821847803dbe","resource":{"resourceType":"Observation","id":"33c7faa5-418a-4c1e-a390-821847803dbe","meta":{"profile":["http://hl7.org/fhir/us/core/StructureDefinition/us-core-body-temperature"]},"status":"final","category":[{"coding":[{"system":"http://terminology.hl7.org/CodeSystem/observation-category","code":"vital-signs","display":"Vital Signs"}]}],"code":{"coding":[{"system":"http://loinc.org","code":"8310-5"}]},"subject":{"reference":"Patient/38c2e444-78a0-47b1-a2f3-1fc6d5052cc5"},"effectiveDateTime":"2022-08-25T00:00:00+00:00","valueQuantity":{"value":54.31,"unit":"Degrees Fahrenheit","system":"http://unitsofmeasure.org","code":"[degF]"}},"request":{"method":"POST","url":"Observation"}},{"fullUrl":"Observation/fbfe50e1-c140-487e-be02-37488821c28f","resource":{"resourceType":"Observation","id":"fbfe50e1-c140-487e-be02-37488821c28f","meta":{"profile":["http://hl7.org/fhir/us/core/StructureDefinition/us-core-body-temperature"]},"status":"final","category":[{"coding":[{"system":"http://terminology.hl7.org/CodeSystem/observation-category","code":"vital-signs","display":"Vital Signs"}]}],"code":{"coding":[{"system":"http://loinc.org","code":"8310-5"}]},"subject":{"reference":"Patient/38c2e444-78a0-47b1-a2f3-1fc6d5052cc5"},"effectiveDateTime":"2022-10-16T00:00:00+00:00","valueQuantity":{"value":113.69,"unit":"Degrees Fahrenheit","system":"http://unitsofmeasure.org","code":"[degF]"}},"request":{"method":"POST","url":"Observation"}},{"fullUrl":"Observation/aa2ec89f-8730-4e25-8bac-52fa7e85f850","resource":{"resourceType":"Observation","id":"aa2ec89f-8730-4e25-8bac-52fa7e85f850","meta":{"profile":["http://hl7.org/fhir/us/core/StructureDefinition/us-core-heart-rate"]},"status":"final","category":[{"coding":[{"system":"http://terminology.hl7.org/CodeSystem/observation-category","code":"vital-signs","display":"Vital Signs"}]}],"code":{"coding":[{"system":"http://loinc.org","code":"8867-4"}]},"subject":{"reference":"Patient/38c2e444-78a0-47b1-a2f3-1fc6d5052cc5"},"effectiveDateTime":"2022-01-10T00:00:00+00:00","valueQuantity":{"value":95.4,"unit":"Per Minute","system":"http://unitsofmeasure.org","code":"/min"}},"request":{"method":"POST","url":"Observation"}}]}