{"resourceType":"Bundle","id":"2e687453-cbda-4c16-b148-00c3805a2731","type":"transaction","entry":[{"fullUrl":"Patient/cb258ac2-e2a6-4a16-9421-9401d79439d1","resource":{"resourceType":"Patient","id":"cb258ac2-e2a6-4a16-9421-9401d79439d1","identifier":[{"type":{"coding":[{"system":"http://terminology.hl7.org/CodeSystem/v2-0203","code":"MR"}]},"system":"urn:fhirgen:mrn","value":"717-98-8320"}],"name":[{"use":"official","family":"Ochoa","given":["Christopher"]},{"use":"maiden","family":"Barnes"}],"telecom":[{"system":"phone","value":"+1-987-951-0902x0243","use":"mobile"},{"system":"email","value":"xharris@hotmail.com","use":"home"}],"gender":"male","birthDate":"1959-10-08","address":[{"use":"home","line":["20618 Hopkins Walks"],"city":"Mosshaven","state":"DE","postalCode":"52239"},{"use":"old","line":["3445 Salazar Station"],"city":"New Gina","state":"NE","postalCode":"08952"}]},"request":{"method":"POST","url":"Patient"}},{"fullUrl":"Observation/5d78bde3-e4f7-4893-b4e0-1f0d914f65d1","resource":{"resourceType":"Observation","id":"5d78bde3-e4f7-4893-b4e0-1f0d914f65d1","status":"final","code":{"coding":[{"system":"http://loinc.org","code":"47476-7"}]},"subject":{"reference":"Patient/cb258ac2-e2a6-4a16-9421-9401d79439d1"},"effectiveDateTime":"2022-04-12T00:00:00+00:00","valueRatio":{"numerator":{"value":1},"denominator":{"value":32}}},"request":{"method":"POST","url":"Observation"}},{"fullUrl":"Observation/3166853f-cf11-48ec-9601-eb9f686ffe92","resource":{"resourceType":"Observation","id":"3166853f-cf11-48ec-9601-eb9f686ffe92","status":"final","code":{"coding":[{"system":"http://loinc.org","code":"50695-6"}]},"subject":{"reference":"Patient/cb258ac2-e2a6-4a16-9421-9401d79439d1"},"effectiveDateTime":"2022-01-23T00:00:00+00:00","valueRatio":{"numerator":{"value":1},"denominator":{"value":32}}},"request":{"method":"POST","url":"Observation"}},{"fullUrl":"Condition/d5743fb9-4fe3-45be-a27a-cd7a7ce08350","resource":{"resourceType":"Condition","id":"d5743fb9-4fe3-45be-a27a-cd7a7ce08350","code":{"coding":[{"system":"http://snomed.info/sct","code":"91554004"}]},"subject":{"reference":"Patient/cb258ac2-e2a6-4a16-9421-9401d79439d1"},"onsetDateTime":"2022-12-16T00:00:00+00:00"},"request":{"method":"POST","url":"Condition"}},{"fullUrl":"Condition/9c9bf238-4a1b-4820-bc1b-f79274094bbf","resource":{"resourceType":"Condition","id":"9c9bf238-4a1b-4820-bc1b-f79274094bbf","code":{"coding":[{"system":"http://snomed.info/sct","code":"386661006"}]},"subject":{"reference":"Patient/cb258ac2-e2a6-4a16-9421-9401d79439d1"},"onsetDateTime":"2022-01-02T00:00:00+00:00"},"request":{"method":"POST","url":"Condition"}},{"fullUrl":"Condition/a47d3920-58d7-4783-921f-83cac8400614","resource":{"resourceType":"Condition","id":"a47d3920-58d7-4783-921f-83cac8400614","code":{"coding":[{"system":"http://snomed.info/sct","code":"418290006"}]},"subject":{"reference":"Patient/cb258ac2-e2a6-4a16-9421-9401d79439d1"},"onsetDateTime":"2022-03-20T00:00:00+00:00"},"request":{"method":"POST","url":"Condition"}},{"fullUrl":"Observation/3eab8a7c-2b5d-4ff2-9c5a-d19cf0fbdf56","resource":{"resourceType":"Observation","id":"3eab8a7c-2b5d-4ff2-9c5a-d19cf0fbdf56","status":"final","code":{"coding":[{"system":"http://loinc.org","code":"804-5"}]},"subject":{"reference":"Patient/cb258ac2-e2a6-4a16-9421-9401d79439d1"},"effectiveDateTime":"2022-06-09T00:00:00+00:00","valueQuantity":{"value":7.1}},"request":{"method":"POST","url":"Observation"}},{"fullUrl":"Observation/3c799a61-fbae-4744-9376-a89b7186a3d1","resource":{"resourceType":"Observation","id":"3c799a61-fbae-4744-9376-a89b7186a3d1","status":"final","code":{"coding":[{"system":"http://loinc.org","code":"6690-2"}]},"subject":{"reference":"Patient/cb258ac2-e2a6-4a16-9421-9401d79439d1"},"effectiveDateTime":"2022-07-10T00:00:00+00:00","valueQuantity":{"value":9.3}},"request":{"method":"POST","url":"Observation"}},{"fullUrl":"Observation/84c2c4fe-729e-4d39-8483-93e312dc4dd9","resource":{"resourceType":"Observation","id":"84c2c4fe-729e-4d39-8483-93e312dc4dd9","status":"final","code":{"coding":[{"system":"http://www.ama-assn.org/go/cpt","code":"85048"}]},"subject":{"reference":"Patient/cb258ac2-e2a6-4a16-9421-9401d79439d1"},"effectiveDateTime":"2022-09-09T00:00:00+00:00","valueQuantity":{"value":8.9}},"request":{"method":"POST","url":"Observation"}},{"fullUrl":"Observation/e9301491-fb41-4bf0-adc5-ec5d306b7251","resource":{"resourceType":"Observation","id":"e9301491-fb41-4bf0-adc5-ec5d306b7251","status":"final","code":{"coding":[{"system":"http://loinc.org","code":"49498-9"}]},"subject":{"reference":"Patient/cb258ac2-e2a6-4a16-9421-9401d79439d1"},"effectiveDateTime":"2022-04-29T00:00:00+00:00"},"request":{"method":"POST","url":"Observation"}},{"fullUrl":"Observation/dbe9e88c-f2a5-4ee2-b27c-68008e58a2a9","resource":{"resourceType":"Observation","id":"dbe9e88c-f2a5-4ee2-b27c-68008e58a2a9","status":"final","code":{"coding":[{"system":"http://loinc.org","code":"49498-9"}]},"subject":{"reference":"Patient/cb258ac2-e2a6-4a16-9421-9401d79439d1"},"effectiveDateTime":"2022-09-07T00:00:00+00:00"},"request":{"method":"POST","url":"Observation"}},{"fullUrl":"Procedure/0508d27c-83ed-4013-a68c-20240bcb6839","resource":{"resourceType":"Procedure","id":"0508d27c-83ed-4013-a68c-20240bcb6839","status":"completed","code":{"coding":[{"system":"http://snomed.info/sct","code":"104001"}]},"subject":{"reference":"Patient/cb258ac2-e2a6-4a16-9421-9401d79439d1"},"performedDateTime":"2022-10-13T00:00:00+00:00"},"request":{"method":"POST","url":"Procedure"}},{"fullUrl":"Procedure/706c6ff7-314d-4f56-9a51-b754d86a5ddb","resource":{"resourceType":"Procedure","id":"706c6ff7-314d-4f56-9a51-b754d86a5ddb","status":"completed","code":{"coding":[{"system":"http://snomed.info/sct","code":"104001"}]},"subject":{"reference":"Patient/cb258ac2-e2a6-4a16-9421-9401d79439d1"},"performedDateTime":"2022-09-29T00:00:00+00:00"},"request":{"method":"POST","url":"Procedure"}},{"fullUrl":"Procedure/f72843c9-c715-4efc-861e-3f1d06ca694e","resource":{"resourceType":"Procedure","id":"f72843c9-c715-4efc-861e-3f1d06ca694e","status":"completed","code":{"coding":[{"system":"http://snomed.info/sct","code":"647000"}]},"subject":{"reference":"Patient/cb258ac2-e2a6-4a16-9421-9401d79439d1"},"performedDateTime":"2022-11-10T00:00:00+00:00"},"request":{"method":"POST","url":"Procedure"}},{"fullUrl":"MedicationStatement/47b4c711-0b71-4e20-90a4-4aa6d228a162","resource":{"resourceType":"MedicationStatement","id":"47b4c711-0b71-4e20-90a4-4aa6d228a162","status":"completed","medicationCodeableConcept":{"coding":[{"system":"http://www.nlm.nih.gov/research/umls/rxnorm","code":"7984"}]},"subject":{"reference":"Patient/cb258ac2-e2a6-4a16-9421-9401d79439d1"},"effectiveDateTime":"2022-06-16T00:00:00+00:00","dosage":[{"doseAndRate":[{"doseQuantity":{"value":2,"unit":"TAB","system":"http://terminology.hl7.org/CodeSystem/v3-orderableDrugForm","code":"TAB"}}]}]},"request":{"method":"POST","url":"MedicationStatement"}},{"fullUrl":"MedicationStatement/f452d072-58e9-4033-9dfa-913f6de7221f","resource":{"resourceType":"MedicationStatement","id":"f452d072-58e9-4033-9dfa-913f6de7221f","status":"completed","medicationCodeableConcept":{"coding":[{"system":"http://www.nlm.nih.gov/research/umls/rxnorm","code":"10395"}]},"subject":{"reference":"Patient/cb258ac2-e2a6-4a16-9421-9401d79439d1"},"effectiveDateTime":"2022-04-05T00:00:00+00:00","dosage":[{"doseAndRate":[{"doseQuantity":{"value":1,"unit":"TAB","system":"http://terminology.hl7.org/CodeSystem/v3-orderableDrugForm","code":"TAB"}}]}]},"request":{"method":"POST","url":"MedicationStatement"}},{"fullUrl":"MedicationStatement/091bf1c0-9e2a-4925-88db-b382a7315d2f","resource":{"resourceType":"MedicationStatement","id":"091bf1c0-9e2a-4925-88db-b382a7315d2f","status":"completed","medicationCodeableConcept":{"coding":[{"system":"http://www.nlm.nih.gov/research/umls/rxnorm","code":"7984"}]},"subject":{"reference":"Patient/cb258ac2-e2a6-4a16-9421-9401d79439d1"},"effectiveDateTime":"2022-04-07T00:00:00+00:00","dosage":[{"doseAndRate":[{"doseQuantity":{"value":1,"unit":"TAB","system":"http://terminology.hl7.org/CodeSystem/v3-orderableDrugForm","code":"TAB"}}]}]},"request":{"method":"POST","url":"MedicationStatement"}},{"fullUrl":"MedicationStatement/d4207c87-01de-48be-8a56-e3384a6927e9","resource":{"resourceType":"MedicationStatement","id":"d4207c87-01de-48be-8a56-e3384a6927e9","status":"completed","medicationCodeableConcept":{"coding":[{"system":"http://www.nlm.nih.gov/research/umls/rxnorm","code":"18631"}]},"subject":{"reference":"Patient/cb258ac2-e2a6-4a16-9421-9401d79439d1"},"effectiveDateTime":"2022-02-11T00:00:00+00:00","dosage":[{"doseAndRate":[{"doseQuantity":{"value":2,"unit":"TAB","system":"http://terminology.hl7.org/CodeSystem/v3-orderableDrugForm","code":"TAB"}}]}]},"request":{"method":"POST","url":"MedicationStatement"}},{"fullUrl":"MedicationStatement/d879eff4-7db3-433b-a3d8-6362f801eb11","resource":{"resourceType":"MedicationStatement","id":"d879eff4-7db3-433b-a3d8-6362f801eb11","status":"completed","medicationCodeableConcept":{"coding":[{"system":"http://www.nlm.nih.gov/research/umls/rxnorm","code":"3640"}]},"subject":{"reference":"Patient/cb258ac2-e2a6-4a16-9421-9401d79439d1"},"effectiveDateTime":"2022-07-02T00:00:00+00:00","dosage":[{"doseAndRate":[{"doseQuantity":{"value":2,"unit":"TAB","system":"http://terminology.hl7.org/CodeSystem/v3-orderableDrugForm","code":"TAB"}}]}]},"request":{"method":"POST","url":"MedicationStatement"}},{"fullUrl":"MedicationStatement/f766362e-a2f3-4b9f-aef1-af9d7827153a","resource":{"resourceType":"MedicationStatement","id":"f766362e-a2f3-4b9f-aef1-af9d7827153a","status":"completed","medicationCodeableConcept":{"coding":[{"system":"http://www.nlm.nih.gov/research/umls/rxnorm","code":"3640"}]},"subject":{"reference":"Patient/cb258ac2-e2a6-4a16-9421-9401d79439d1"},"effectiveDateTime":"2022-05-24T00:00:00+00:00","dosage":[{"doseAndRate":[{"doseQuantity":{"value":1,"unit":"TAB","system":"http://terminology.hl7.org/CodeSystem/v3-orderableDrugForm","code":"TAB"}}]}]},"request":{"method":"POST","url":"MedicationStatement"}},{"fullUrl":"MedicationStatement/cb070630-d950-4e12-a70e-5be6e5351bf9","resource":{"resourceType":"MedicationStatement","id":"cb070630-d950-4e12-a70e-5be6e5351bf9","status":"completed","medicationCodeableConcept":{"coding":[{"system":"http://www.nlm.nih.gov/research/umls/rxnorm","code":"8698"}]},"subject":{"reference":"Patient/cb258ac2-e2a6-4a16-9421-9401d79439d1"},"effectiveDateTime":"2022-04-18T00:00:00+00:00","dosage":[{"doseAndRate":[{"doseQuantity":{"value":1,"unit":"TAB","system":"http://terminology.hl7.org/CodeSystem/v3-orderableDrugForm","code":"TAB"}}]}]},"request":{"method":"POST","url":"MedicationStatement"}},{"fullUrl":"MedicationStatement/a28b92c2-953c-4f56-9362-38ef4ec8b182","resource":{"resourceType":"MedicationStatement","id":"a28b92c2-953c-4f56-9362-38ef4ec8b182","status":"completed","medicationCodeableConcept":{"coding":[{"system":"http://www.nlm.nih.gov/research/umls/rxnorm","code":"7984"}]},"subject":{"reference":"Patient/cb258ac2-e2a6-4a16-9421-9401d79439d1"},"effectiveDateTime":"2022-02-04T00:00:00+00:00","dosage":[{"doseAndRate":[{"doseQuantity":{"value":2,"unit":"TAB","system":"http://terminology.hl7.org/CodeSystem/v3-orderableDrugForm","code":"TAB"}}]}]},"request":{"method":"POST","url":"MedicationStatement"}},{"fullUrl":"MedicationStatement/00ff7bbf-652d-43ac-a737-70a27e3497fb","resource":{"resourceType":"MedicationStatement","id":"00ff7bbf-652d-43ac-a737-70a27e3497fb","status":"completed","medicationCodeableConcept":{"coding":[{"system":"http://www.nlm.nih.gov/research/umls/rxnorm","code":"2193"}]},"subject":{"reference":"Patient/cb258ac2-e2a6-4a16-9421-9401d79439d1"},"effectiveDateTime":"2022-10-16T00:00:00+00:00","dosage":[{"doseAndRate":[{"doseQuantity":{"value":4.5,"unit":"TAB","system":"http://terminology.hl7.org/CodeSystem/v3-orderableDrugForm","code":"TAB"}}]}]},"request":{"method":"POST","url":"MedicationStatement"}},{"fullUrl":"MedicationStatement/25475a2a-fd5f-4e06-968b-d8ead8a15c03","resource":{"resourceType":"MedicationStatement","id":"25475a2a-fd5f-4e06-968b-d8ead8a15c03","status":"completed","medicationCodeableConcept":{"coding":[{"system":"http://www.nlm.nih.gov/research/umls/rxnorm","code":"10395"}]},"subject":{"reference":"Patient/cb258ac2-e2a6-4a16-9421-9401d79439d1"},"effectiveDateTime":"2022-11-06T00:00:00+00:00","dosage":[{"doseAndRate":[{"doseQuantity":{"value":4.3,"unit":"TAB","system":"http://terminology.hl7.org/CodeSystem/v3-orderableDrugForm","code":"TAB"}}]}]},"request":{"method":"POST","url":"MedicationStatement"}},{"fullUrl":"MedicationStatement/14b2fb39-7273-422d-8ddb-162a711ede15","resource":{"resourceType":"MedicationStatement","id":"14b2fb39-7273-422d-8ddb-162a711ede15","status":"completed","medicationCodeableConcept":{"coding":[{"system":"http://www.nlm.nih.gov/research/umls/rxnorm","code":"7984"}]},"subject":{"reference":"Patient/cb258ac2-e2a6-4a16-9421-9401d79439d1"},"effectiveDateTime":"2022-09-04T00:00:00+00:00","dosage":[{"doseAndRate":[{"doseQuantity":{"value":3.2,"unit":"TAB","system":"http://terminology.hl7.org/CodeSystem/v3-orderableDrugForm","code":"TAB"}}]}]},"request":{"method":"POST","url":"MedicationStatement"}},{"fullUrl":"MedicationStatement/abbf067e-6e59-4e32-b350-e8a25c3d759c","resource":{"resourceType":"MedicationStatement","id":"abbf067e-6e59-4e32-b350-e8a25c3d759c","status":"completed","medicationCodeableConcept":{"coding":[{"system":"http://www.nlm.nih.gov/research/umls/rxnorm","code":"3640"}]},"subject":{"reference":"Patient/cb258ac2-e2a6-4a16-9421-9401d79439d1"},"effectiveDateTime":"2022-02-21T00:00:00+00:00","dosage":[{"doseAndRate":[{"doseQuantity":{"value":5.3,"unit":"TAB","system":"http://terminology.hl7.org/CodeSystem/v3-orderableDrugForm","code":"TAB"}}]}]},"request":{"method":"POST","url":"MedicationStatement"}},{"fullUrl":"MedicationStatement/99ba1530-cb3c-4bf1-827e-5e7ae24db456","resource":{"resourceType":"MedicationStatement","id":"99ba1530-cb3c-4bf1-827e-5e7ae24db456","status":"completed","medicationCodeableConcept":{"coding":[{"system":"http://www.nlm.nih.gov/research/umls/rxnorm","code":"7984"}]},"subject":{"reference":"Patient/cb258ac2-e2a6-4a16-9421-9401d79439d1"},"effectiveDateTime":"2022-02-10T00:00:00+00:00","dosage":[{"doseAndRate":[{"doseQuantity":{"value":4,"unit":"TAB","system":"http://terminology.hl7.org/CodeSystem/v3-orderableDrugForm","code":"TAB"}}]}]},"request":{"method":"POST","url":"MedicationStatement"}},{"fullUrl":"Encounter/022635bd-82ba-4b2d-b279-33ca3a65d030","resource":{"resourceType":"Encounter","id":"022635bd-82ba-4b2d-b279-33ca3a65d030","status":"finished","class":{"system":"http://terminology.hl7.org/CodeSystem/v3-ActCode","code":"IMP","display":"inpatient encounter"},"type":[{"coding":[{"system":"http://terminology.hl7.org/CodeSystem/encounter-type","code":"ADMS"}]}],"subject":{"reference":"Patient/cb258ac2-e2a6-4a16-9421-9401d79439d1"},"period":{"start":"2022-05-03T00:00:00+00:00","end":"2022-05-03T00:00:00+00:00"}},"request":{"method":"POST","url":"Encounter"}},{"fullUrl":"Encounter/6aae9790-3533-420b-a78a-68c8e5079563","resource":{"resourceType":"Encounter","id":"6aae9790-3533-420b-a78a-68c8e5079563","status":"finished","class":{"system":"http://terminology.hl7.org/CodeSystem/v3-ActCode","code":"IMP","display":"inpatient encounter"},"type":[{"coding":[{"system":"http://terminology.hl7.org/CodeSystem/encounter-type","code":"ADMS"}]}],"subject":{"reference":"Patient/cb258ac2-e2a6-4a16-9421-9401d79439d1"},"period":{"start":"2022-09-16T00:00:00+00:00","end":"2022-09-19T00:00:00+00:00"}},"request":{"method":"POST","url":"Encounter"}},{"fullUrl":"Encounter/4276855d-3dd5-4059-9002-39938969bea2","resource":{"resourceType":"Encounter","id":"4276855d-3dd5-4059-9002-39938969bea2","status":"finished","class":{"system":"http://terminology.hl7.org/CodeSystem/v3-ActCode","code":"IMP","display":"inpatient encounter"},"type":[{"coding":[{"system":"http://terminology.hl7.org/CodeSystem/encounter-type","code":"CCS60"}]}],"subject":{"reference":"Patient/cb258ac2-e2a6-4a16-9421-9401d79439d1"},"period":{"start":"2022-05-20T00:00:00+00:00","end":"2022-05-20T00:00:00+00:00"}},"request":{"method":"POST","url":"Encounter"}},{"fullUrl":"Encounter/bac8baa8-3e12-4ee8-a3d9-b0c7779791d4","resource":{"resourceType":"Encounter","id":"bac8baa8-3e12-4ee8-a3d9-b0c7779791d4","status":"finished","class":{"system":"http://terminology.hl7.org/CodeSystem/v3-ActCode","code":"SS","display":"short-stay"},"type":[{"coding":[{"system":"http://terminology.hl7.org/CodeSystem/encounter-type","code":"CCS60"}]}],"subject":{"reference":"Patient/cb258ac2-e2a6-4a16-9421-9401d79439d1"},"period":{"start":"2022-07-16T00:00:00+00:00","end":"2022-07-18T00:00:00+00:00"}},"request":{"method":"POST","url":"Encounter"}},{"fullUrl":"Encounter/64f9a5d5-df22-461c-906f-32b2dd171ccb","resource":{"resourceType":"Encounter","id":"64f9a5d5-df22-461c-906f-32b2dd171ccb","status":"finished","class":{"system":"http://terminology.hl7.org/CodeSystem/v3-ActCode","code":"FLD","display":"field"},"type":[{"coding":[{"system":"http://terminology.hl7.org/CodeSystem/encounter-type","code":"BD/BM-clin"}]}],"subject":{"reference":"Patient/cb258ac2-e2a6-4a16-9421-9401d79439d1"},"period":{"start":"2022-10-17T00:00:00+00:00","end":"2022-10-22T00:00:00+00:00"}},"request":{"method":"POST","url":"Encounter"}},{"fullUrl":"Encounter/9d69cf76-faba-4216-806d-5751f4c23485","resource":{"resourceType":"Encounter","id":"9d69cf76-faba-4216-806d-5751f4c23485","status":"finished","class":{"system":"http://terminology.hl7.org/CodeSystem/v3-ActCode","code":"VR","display":"virtual"},"type":[{"coding":[{"system":"http://terminology.hl7.org/CodeSystem/encounter-type","code":"CCS60"}]}],"subject":{"reference":"Patient/cb258ac2-e2a6-4a16-9421-9401d79439d1"},"period":{"start":"2022-03-28T00:00:00+00:00","end":"2022-04-04T00:00:00+00:00"}},"request":{"method":"POST","url":"Encounter"}},{"fullUrl":"Patient/67b742c1-2a88-47a0-b11b-e9cf7da000b5","resource":{"resourceType":"Patient","id":"67b742c1-2a88-47a0-b11b-e9cf7da000b5","identifier":[{"type":{"coding":[{"system":"http://terminology.hl7.org/CodeSystem/v2-0203","code":"MR"}]},"system":"urn:fhirgen:mrn","value":"419-17-0270"}],"name":[{"use":"official","family":"Ward","given":["Jose"]},{"use":"maiden","family":"Schaefer"}],"telecom":[{"system":"phone","value":"426.575.2743x741","use":"mobile"},{"system":"email","value":"dmathis@gmail.com","use":"home"}],"gender":"male","birthDate":"1980-09-19","address":[{"use":"home","line":["19907 David Lights Suite 276"],"city":"South Kimberlyborough","state":"WY","postalCode":"98345"},{"use":"old","line":["55160 Samuel Mills"],"city":"North Jackiefurt","state":"NH","postalCode":"58852"}]},"request":{"method":"POST","url":"Patient"}},{"fullUrl":"Observation/b0758f2d-6d13-4554-b792-1e9552cf6c63","resource":{"resourceType":"Observation","id":"b0758f2d-6d13-4554-b792-1e9552cf6c63","status":"final","code":{"coding":[{"system":"http://loinc.org","code":"26009-1"}]},"subject":{"reference":"Patient/67b742c1-2a88-47a0-b11b-e9cf7da000b5"},"effectiveDateTime":"2022-06-29T00:00:00+00:00","valueRatio":{"numerator":{"value":1},"denominator":{"value":64}}},"request":{"method":"POST","url":"Observation"}},{"fullUrl":"Observation/046c50b0-4576-46ef-bf38-346b84771418","resource":{"resourceType":"Observation","id":"046c50b0-4576-46ef-bf38-346b84771418","status":"final","code":{"coding":[{"system":"http://loinc.org","code":"46203-6"}]},"subject":{"reference":"Patient/67b742c1-2a88-47a0-b11b-e9cf7da000b5"},"effectiveDateTime":"2022-01-30T00:00:00+00:00","valueRatio":{"numerator":{"value":1},"denominator":{"value":64}}},"request":{"method":"POST","url":"Observation"}},{"fullUrl":"Condition/bac04d6d-0b09-4d34-9868-bb2eff3fc0d3","resource":{"resourceType":"Condition","id":"bac04d6d-0b09-4d34-9868-bb2eff3fc0d3","code":{"coding":[{"system":"http://snomed.info/sct","code":"297123002"}]},"subject":{"reference":"Patient/67b742c1-2a88-47a0-b11b-e9cf7da000b5"},"onsetDateTime":"2022-12-23T00:00:00+00:00"},"request":{"method":"POST","url":"Condition"}},{"fullUrl":"Condition/abed55c4-60a2-46e7-b284-bcce1cfe932c","resource":{"resourceType":"Condition","id":"abed55c4-60a2-46e7-b284-bcce1cfe932c","code":{"coding":[{"system":"http://snomed.info/sct","code":"386661006"}]},"subject":{"reference":"Patient/67b742c1-2a88-47a0-b11b-e9cf7da000b5"},"onsetDateTime":"2022-06-17T00:00:00+00:00"},"request":{"method":"POST","url":"Condition"}},{"fullUrl":"Condition/93c7677d-b7eb-49a8-9c10-fd5eba2bb920","resource":{"resourceType":"Condition","id":"93c7677d-b7eb-49a8-9c10-fd5eba2bb920","code":{"coding":[{"system":"http://snomed.info/sct","code":"44882003"}]},"subject":{"reference":"Patient/67b742c1-2a88-47a0-b11b-e9cf7da000b5"},"onsetDateTime":"2022-05-22T00:00:00+00:00"},"request":{"method":"POST","url":"Condition"}},{"fullUrl":"Condition/9cf77671-eaf1-4e0b-a392-319e86731da8","resource":{"resourceType":"Condition","id":"9cf77671-eaf1-4e0b-a392-319e86731da8","code":{"coding":[{"system":"http://snomed.info/sct","code":"31070006"}]},"subject":{"reference":"Patient/67b742c1-2a88-47a0-b11b-e9cf7da000b5"},"onsetDateTime":"2022-01-18T00:00:00+00:00"},"request":{"method":"POST","url":"Condition"}},{"fullUrl":"Condition/9517b69d-0307-42d0-8bac-3f925f42eec1","resource":{"resourceType":"Condition","id":"9517b69d-0307-42d0-8bac-3f925f42eec1","code":{"coding":[{"system":"http://snomed.info/sct","code":"386661006"}]},"subject":{"reference":"Patient/67b742c1-2a88-47a0-b11b-e9cf7da000b5"},"onsetDateTime":"2022-07-06T00:00:00+00:00"},"request":{"method":"POST","url":"Condition"}},{"fullUrl":"Condition/9db32da0-3dec-4aec-b368-8d5017cec215","resource":{"resourceType":"Condition","id":"9db32da0-3dec-4aec-b368-8d5017cec215","code":{"coding":[{"system":"http://snomed.info/sct","code":"297123002"}]},"subject":{"reference":"Patient/67b742c1-2a88-47a0-b11b-e9cf7da000b5"},"onsetDateTime":"2022-04-13T00:00:00+00:00"},"request":{"method":"POST","url":"Condition"}},{"fullUrl":"Condition/8aa4504e-b3db-44d9-971c-d1f9d9c9c6fc","resource":{"resourceType":"Condition","id":"8aa4504e-b3db-44d9-971c-d1f9d9c9c6fc","code":{"coding":[{"system":"http://snomed.info/sct","code":"297123002"}]},"subject":{"reference":"Patient/67b742c1-2a88-47a0-b11b-e9cf7da000b5"},"onsetDateTime":"2022-03-17T00:00:00+00:00"},"request":{"method":"POST","url":"Condition"}},{"fullUrl":"Observation/050aebc9-1af4-4807-9f80-195bba451a28","resource":{"resourceType":"Observation","id":"050aebc9-1af4-4807-9f80-195bba451a28","status":"final","code":{"coding":[{"system":"http://loinc.org","code":"804-5"}]},"subject":{"reference":"Patient/67b742c1-2a88-47a0-b11b-e9cf7da000b5"},"effectiveDateTime":"2022-10-06T00:00:00+00:00","valueQuantity":{"value":5.4}},"request":{"method":"POST","url":"Observation"}},{"fullUrl":"Observation/a603352b-54e0-44de-ae39-913cdacf3074","resource":{"resourceType":"Observation","id":"a603352b-54e0-44de-ae39-913cdacf3074","status":"final","code":{"coding":[{"system":"http://loinc.org","code":"26464-8"}]},"subject":{"reference":"Patient/67b742c1-2a88-47a0-b11b-e9cf7da000b5"},"effectiveDateTime":"2022-11-20T00:00:00+00:00","valueQuantity":{"value":8}},"request":{"method":"POST","url":"Observation"}},{"fullUrl":"Observation/8b5532ea-b3eb-4860-b4bf-40d7bfc01860","resource":{"resourceType":"Observation","id":"8b5532ea-b3eb-4860-b4bf-40d7bfc01860","status":"final","code":{"coding":[{"system":"http://loinc.org","code":"49498-9"}]},"subject":{"reference":"Patient/67b742c1-2a88-47a0-b11b-e9cf7da000b5"},"effectiveDateTime":"2022-12-12T00:00:00+00:00"},"request":{"method":"POST","url":"Observation"}},{"fullUrl":"Observation/82312e1e-0a96-4bd1-8850-997e0c1c774a","resource":{"resourceType":"Observation","id":"82312e1e-0a96-4bd1-8850-997e0c1c774a","status":"final","code":{"coding":[{"system":"http://loinc.org","code":"49498-9"}]},"subject":{"reference":"Patient/67b742c1-2a88-47a0-b11b-e9cf7da000b5"},"effectiveDateTime":"2022-08-03T00:00:00+00:00"},"request":{"method":"POST","url":"Observation"}},{"fullUrl":"Observation/e76742bf-6a0b-4eb4-b246-14ecf89ddd7d","resource":{"resourceType":"Observation","id":"e76742bf-6a0b-4eb4-b246-14ecf89ddd7d","status":"final","code":{"coding":[{"system":"http://loinc.org","code":"49498-9"}]},"subject":{"reference":"Patient/67b742c1-2a88-47a0-b11b-e9cf7da000b5"},"effectiveDateTime":"2022-01-31T00:00:00+00:00"},"request":{"method":"POST","url":"Observation"}},{"fullUrl":"Procedure/02d8b8cf-9387-4fda-a986-d8125d7a6067","resource":{"resourceType":"Procedure","id":"02d8b8cf-9387-4fda-a986-d8125d7a6067","status":"completed","code":{"coding":[{"system":"http://snomed.info/sct","code":"104001"}]},"subject":{"reference":"Patient/67b742c1-2a88-47a0-b11b-e9cf7da000b5"},"performedDateTime":"2022-02-15T00:00:00+00:00"},"request":{"method":"POST","url":"Procedure"}},{"fullUrl":"Procedure/904c86c8-f97b-4d50-aaa9-8f2016f1417f","resource":{"resourceType":"Procedure","id":"904c86c8-f97b-4d50-aaa9-8f2016f1417f","status":"completed","code":{"coding":[{"system":"http://snomed.info/sct","code":"647000"}]},"subject":{"reference":"Patient/67b742c1-2a88-47a0-b11b-e9cf7da000b5"},"performedDateTime":"2022-01-19T00:00:00+00:00"},"request":{"method":"POST","url":"Procedure"}},{"fullUrl":"Procedure/3518dfca-5ff3-40c4-9d8e-60ae51cfe85c","resource":{"resourceType":"Procedure","id":"3518dfca-5ff3-40c4-9d8e-60ae51cfe85c","status":"completed","code":{"coding":[{"system":"http://snomed.info/sct","code":"647000"}]},"subject":{"reference":"Patient/67b742c1-2a88-47a0-b11b-e9cf7da000b5"},"performedDateTime":"2022-03-27T00:00:00+00:00"},"request":{"method":"POST","url":"Procedure"}},{"fullUrl":"MedicationStatement/7c7e3702-6457-458a-8074-ad11b083f16a","resource":{"resourceType":"MedicationStatement","id":"7c7e3702-6457-458a-8074-ad11b083f16a","status":"completed","medicationCodeableConcept":{"coding":[{"system":"http://www.nlm.nih.gov/research/umls/rxnorm","code":"2193"}]},"subject":{"reference":"Patient/67b742c1-2a88-47a0-b11b-e9cf7da000b5"},"effectiveDateTime":"2022-09-06T00:00:00+00:00","dosage":[{"doseAndRate":[{"doseQuantity":{"value":2,"unit":"TAB","system":"http://terminology.hl7.org/CodeSystem/v3-orderableDrugForm","code":"TAB"}}]}]},"request":{"method":"POST","url":"MedicationStatement"}},{"fullUrl":"MedicationStatement/eb524ef6-63ae-4740-a6e6-7c908f1f69b0","resource":{"resourceType":"MedicationStatement","id":"eb524ef6-63ae-4740-a6e6-7c908f1f69b0","status":"completed","medicationCodeableConcept":{"coding":[{"system":"http://www.nlm.nih.gov/research/umls/rxnorm","code":"2193"}]},"subject":{"reference":"Patient/67b742c1-2a88-47a0-b11b-e9cf7da000b5"},"effectiveDateTime":"2022-03-27T00:00:00+00:00","dosage":[{"doseAndRate":[{"doseQuantity":{"value":1,"unit":"TAB","system":"http://terminology.hl7.org/CodeSystem/v3-orderableDrugForm","code":"TAB"}}]}]},"request":{"method":"POST","url":"MedicationStatement"}},{"fullUrl":"MedicationStatement/67635435-e4a1-4f4b-a4a7-fa64cf74646d","resource":{"resourceType":"MedicationStatement","id":"67635435-e4a1-4f4b-a4a7-fa64cf74646d","status":"completed","medicationCodeableConcept":{"coding":[{"system":"http://www.nlm.nih.gov/research/umls/rxnorm","code":"7980"}]},"subject":{"reference":"Patient/67b742c1-2a88-47a0-b11b-e9cf7da000b5"},"effectiveDateTime":"2022-02-25T00:00:00+00:00","dosage":[{"doseAndRate":[{"doseQuantity":{"value":2,"unit":"TAB","system":"http://terminology.hl7.org/CodeSystem/v3-orderableDrugForm","code":"TAB"}}]}]},"request":{"method":"POST","url":"MedicationStatement"}},{"fullUrl":"MedicationStatement/e65f27bd-b8b7-4123-ac04-68fb3e9e557d","resource":{"resourceType":"MedicationStatement","id":"e65f27bd-b8b7-4123-ac04-68fb3e9e557d","status":"completed","medicationCodeableConcept":{"coding":[{"system":"http://www.nlm.nih.gov/research/umls/rxnorm","code":"10395"}]},"subject":{"reference":"Patient/67b742c1-2a88-47a0-b11b-e9cf7da000b5"},"effectiveDateTime":"2022-06-15T00:00:00+00:00","dosage":[{"doseAndRate":[{"doseQuantity":{"value":1,"unit":"TAB","system":"http://terminology.hl7.org/CodeSystem/v3-orderableDrugForm","code":"TAB"}}]}]},"request":{"method":"POST","url":"MedicationStatement"}},{"fullUrl":"MedicationStatement/3f3c2517-f3b7-4b91-9ee6-b91b752e8ec9","resource":{"resourceType":"MedicationStatement","id":"3f3c2517-f3b7-4b91-9ee6-b91b752e8ec9","status":"completed","medicationCodeableConcept":{"coding":[{"system":"http://www.nlm.nih.gov/research/umls/rxnorm","code":"8698"}]},"subject":{"reference":"Patient/67b742c1-2a88-47a0-b11b-e9cf7da000b5"},"effectiveDateTime":"2022-03-17T00:00:00+00:00","dosage":[{"doseAndRate":[{"doseQuantity":{"value":2,"unit":"TAB","system":"http://terminology.hl7.org/CodeSystem/v3-orderableDrugForm","code":"TAB"}}]}]},"request":{"method":"POST","url":"MedicationStatement"}},{"fullUrl":"MedicationStatement/a8d12ed4-017c-4b0a-8b62-ce490d31a4de","resource":{"resourceType":"MedicationStatement","id":"a8d12ed4-017c-4b0a-8b62-ce490d31a4de","status":"completed","medicationCodeableConcept":{"coding":[{"system":"http://www.nlm.nih.gov/research/umls/rxnorm","code":"10395"}]},"subject":{"reference":"Patient/67b742c1-2a88-47a0-b11b-e9cf7da000b5"},"effectiveDateTime":"2022-06-02T00:00:00+00:00","dosage":[{"doseAndRate":[{"doseQuantity":{"value":3.9,"unit":"TAB","system":"http://terminology.hl7.org/CodeSystem/v3-orderableDrugForm","code":"TAB"}}]}]},"request":{"method":"POST","url":"MedicationStatement"}},{"fullUrl":"MedicationStatement/448cd2c0-e888-4f4c-95b8-7a3a55e0db89","resource":{"resourceType":"MedicationStatement","id":"448cd2c0-e888-4f4c-95b8-7a3a55e0db89","status":"completed","medicationCodeableConcept":{"coding":[{"system":"http://www.nlm.nih.gov/research/umls/rxnorm","code":"7980"}]},"subject":{"reference":"Patient/67b742c1-2a88-47a0-b11b-e9cf7da000b5"},"effectiveDateTime":"2022-09-16T00:00:00+00:00","dosage":[{"doseAndRate":[{"doseQuantity":{"value":6.2,"unit":"TAB","system":"http://terminology.hl7.org/CodeSystem/v3-orderableDrugForm","code":"TAB"}}]}]},"request":{"method":"POST","url":"MedicationStatement"}},{"fullUrl":"Encounter/a9c6f1cb-dd0e-472c-a27b-93b294b22377","resource":{"resourceType":"Encounter","id":"a9c6f1cb-dd0e-472c-a27b-93b294b22377","status":"finished","class":{"system":"http://terminology.hl7.org/CodeSystem/v3-ActCode","code":"IMP","display":"inpatient encounter"},"type":[{"coding":[{"system":"http://terminology.hl7.org/CodeSystem/encounter-type","code":"CCS60"}]}],"subject":{"reference":"Patient/67b742c1-2a88-47a0-b11b-e9cf7da000b5"},"period":{"start":"2022-03-14T00:00:00+00:00","end":"2022-03-22T00:00:00+00:00"}},"request":{"method":"POST","url":"Encounter"}},{"fullUrl":"Encounter/6c846431-adbe-4447-9d3e-1108ce605087","resource":{"resourceType":"Encounter","id":"6c846431-adbe-4447-9d3e-1108ce605087","status":"finished","class":{"system":"http://terminology.hl7.org/CodeSystem/v3-ActCode","code":"IMP","display":"inpatient encounter"},"type":[{"coding":[{"system":"http://terminology.hl7.org/CodeSystem/encounter-type","code":"ADMS"}]}],"subject":{"reference":"Patient/67b742c1-2a88-47a0-b11b-e9cf7da000b5"},"period":{"start":"2022-02-22T00:00:00+00:00","end":"2022-02-27T00:00:00+00:00"}},"request":{"method":"POST","url":"Encounter"}},{"fullUrl":"Encounter/2daba1fe-9de5-4b94-abf7-2ab8026c9e8a","resource":{"resourceType":"Encounter","id":"2daba1fe-9de5-4b94-abf7-2ab8026c9e8a","status":"finished","class":{"system":"http://terminology.hl7.org/CodeSystem/v3-ActCode","code":"IMP","display":"inpatient encounter"},"type":[{"coding":[{"system":"http://terminology.hl7.org/CodeSystem/encounter-type","code":"CCS60"}]}],"subject":{"reference":"Patient/67b742c1-2a88-47a0-b11b-e9cf7da000b5"},"period":{"start":"2022-09-10T00:00:00+00:00","end":"2022-09-13T00:00:00+00:00"}},"request":{"method":"POST","url":"Encounter"}},{"fullUrl":"Encounter/9a7ce28d-81ad-4861-bc94-6835a202650d","resource":{"resourceType":"Encounter","id":"9a7ce28d-81ad-4861-bc94-6835a202650d","status":"finished","class":{"system":"http://terminology.hl7.org/CodeSystem/v3-ActCode","code":"HH","display":"home health"},"type":[{"coding":[{"system":"http://terminology.hl7.org/CodeSystem/encounter-type","code":"OKI"}]}],"subject":{"reference":"Patient/67b742c1-2a88-47a0-b11b-e9cf7da000b5"},"period":{"start":"2022-11-02T00:00:00+00:00","end":"2022-11-03T00:00:00+00:00"}},"request":{"method":"POST","url":"Encounter"}},{"fullUrl":"Encounter/cdf23fc0-0606-4adf-8ee8-c7600648cd6c","resource":{"resourceType":"Encounter","id":"cdf23fc0-0606-4adf-8ee8-c7600648cd6c","status":"finished","class":{"system":"http://terminology.hl7.org/CodeSystem/v3-ActCode","code":"SS","display":"short-stay"},"type":[{"coding":[{"system":"http://terminology.hl7.org/CodeSystem/encounter-type","code":"OKI"}]}],"subject":{"reference":"Patient/67b742c1-2a88-47a0-b11b-e9cf7da000b5"},"period":{"start":"2022-01-30T00:00:00+00:00","end":"2022-02-01T00:00:00+00:00"}},"request":{"method":"POST","url":"Encounter"}},{"fullUrl":"Encounter/2af3bce3-570f-449b-8c65-81d2f86bbd05","resource":{"resourceType":"Encounter","id":"2af3bce3-570f-449b-8c65-81d2f86bbd05","status":"finished","class":{"system":"http://terminology.hl7.org/CodeSystem/v3-ActCode","code":"ACUTE","display":"inpatient acute"},"type":[{"coding":[{"system":"http://terminology.hl7.org/CodeSystem/encounter-type","code":"OKI"}]}],"subject":{"reference":"Patient/67b742c1-2a88-47a0-b11b-e9cf7da000b5"},"period":{"start":"2022-04-12T00:00:00+00:00","end":"2022-04-19T00:00:00+00:00"}},"request":{"method":"POST","url":"Encounter"}},{"fullUrl":"Patient/f7303712-1697-4144-a89c-5ebbebc6d65e","resource":{"resourceType":"Patient","id":"f7303712-1697-4144-a89c-5ebbebc6d65e","identifier":[{"type":{"coding":[{"system":"http://terminology.hl7.org/CodeSystem/v2-0203","code":"MR"}]},"system":"urn:fhirgen:mrn","value":"141-34-8873"}],"name":[{"use":"official","family":"Kirk","given":["Sara"]},{"use":"maiden","family":"Miller"}],"telecom":[{"system":"phone","value":"9358560598","use":"mobile"},{"system":"email","value":"seancunningham@hotmail.com","use":"mobile"}],"gender":"female","birthDate":"1960-10-19","address":[{"use":"home","line":["400 Cox Ford"],"city":"West Alexander","state":"OR","postalCode":"65524"},{"use":"old","line":["95799 Steven Haven"],"city":"Brookeview","state":"MN","postalCode":"26357"}]},"request":{"method":"POST","url":"Patient"}},{"fullUrl":"Observation/ad8a79b2-3670-4fdc-aba0-21d5845e64bb","resource":{"resourceType":"Observation","id":"ad8a79b2-3670-4fdc-aba0-21d5845e64bb","status":"final","code":{"coding":[{"system":"http://loinc.org","code":"87925-4"}]},"subject":{"reference":"Patient/f7303712-1697-4144-a89c-5ebbebc6d65e"},"effectiveDateTime":"2022-02-04T00:00:00+00:00","valueRatio":{"numerator":{"value":1},"denominator":{"value":32}}},"request":{"method":"POST","url":"Observation"}},{"fullUrl":"Observation/f7a51c9b-8939-4de8-9f49-9c456a4fce0d","resource":{"resourceType":"Observation","id":"f7a51c9b-8939-4de8-9f49-9c456a4fce0d","status":"final","code":{"coding":[{"system":"http://loinc.org","code":"46203-6"}]},"subject":{"reference":"Patient/f7303712-1697-4144-a89c-5ebbebc6d65e"},"effectiveDateTime":"2022-07-20T00:00:00+00:00","valueRatio":{"numerator":{"value":1},"denominator":{"value":32}}},"request":{"method":"POST","url":"Observation"}},{"fullUrl":"Condition/c3f24111-71f4-4206-ac4b-844200b564bd","resource":{"resourceType":"Condition","id":"c3f24111-71f4-4206-ac4b-844200b564bd","code":{"coding":[{"system":"http://snomed.info/sct","code":"405737000"}]},"subject":{"reference":"Patient/f7303712-1697-4144-a89c-5ebbebc6d65e"},"onsetDateTime":"2022-04-01T00:00:00+00:00"},"request":{"method":"POST","url":"Condition"}},{"fullUrl":"Condition/bc6cfbc9-67fb-4ee4-85e9-d8febdcf2da5","resource":{"resourceType":"Condition","id":"bc6cfbc9-67fb-4ee4-85e9-d8febdcf2da5","code":{"coding":[{"system":"http://snomed.info/sct","code":"198199009"}]},"subject":{"reference":"Patient/f7303712-1697-4144-a89c-5ebbebc6d65e"},"onsetDateTime":"2022-01-17T00:00:00+00:00"},"request":{"method":"POST","url":"Condition"}},{"fullUrl":"Condition/39338c2f-07dd-40f3-a639-59ad78e190e7","resource":{"resourceType":"Condition","id":"39338c2f-07dd-40f3-a639-59ad78e190e7","code":{"coding":[{"system":"http://snomed.info/sct","code":"18165001"}]},"subject":{"reference":"Patient/f7303712-1697-4144-a89c-5ebbebc6d65e"},"onsetDateTime":"2022-06-09T00:00:00+00:00"},"request":{"method":"POST","url":"Condition"}},{"fullUrl":"Condition/277bacbd-8b7e-42ad-8c39-d23dbf1efeca","resource":{"resourceType":"Condition","id":"277bacbd-8b7e-42ad-8c39-d23dbf1efeca","code":{"coding":[{"system":"http://snomed.info/sct","code":"18165001"}]},"subject":{"reference":"Patient/f7303712-1697-4144-a89c-5ebbebc6d65e"},"onsetDateTime":"2022-07-26T00:00:00+00:00"},"request":{"method":"POST","url":"Condition"}},{"fullUrl":"Condition/31fd7e26-4b44-4151-b684-7f26e62975d0","resource":{"resourceType":"Condition","id":"31fd7e26-4b44-4151-b684-7f26e62975d0","code":{"coding":[{"system":"http://snomed.info/sct","code":"709977002"}]},"subject":{"reference":"Patient/f7303712-1697-4144-a89c-5ebbebc6d65e"},"onsetDateTime":"2022-07-14T00:00:00+00:00"},"request":{"method":"POST","url":"Condition"}},{"fullUrl":"Condition/ee79a228-c44a-4750-98e3-34548392b5a9","resource":{"resourceType":"Condition","id":"ee79a228-c44a-4750-98e3-34548392b5a9","code":{"coding":[{"system":"http://snomed.info/sct","code":"418290006"}]},"subject":{"reference":"Patient/f7303712-1697-4144-a89c-5ebbebc6d65e"},"onsetDateTime":"2022-07-28T00:00:00+00:00"},"request":{"method":"POST","url":"Condition"}},{"fullUrl":"Condition/9786a505-a0ea-4288-bb05-24723243d117","resource":{"resourceType":"Condition","id":"9786a505-a0ea-4288-bb05-24723243d117","code":{"coding":[{"system":"http://snomed.info/sct","code":"297123002"}]},"subject":{"reference":"Patient/f7303712-1697-4144-a89c-5ebbebc6d65e"},"onsetDateTime":"2022-01-24T00:00:00+00:00"},"request":{"method":"POST","url":"Condition"}},{"fullUrl":"Condition/b9e699d2-d713-4eff-b931-4c96c138fbd3","resource":{"resourceType":"Condition","id":"b9e699d2-d713-4eff-b931-4c96c138fbd3","code":{"coding":[{"system":"http://snomed.info/sct","code":"271939006"}]},"subject":{"reference":"Patient/f7303712-1697-4144-a89c-5ebbebc6d65e"},"onsetDateTime":"2022-10-11T00:00:00+00:00"},"request":{"method":"POST","url":"Condition"}},{"fullUrl":"Observation/32329b5a-8b83-418a-a0c5-39d11e604545","resource":{"resourceType":"Observation","id":"32329b5a-8b83-418a-a0c5-39d11e604545","status":"final","code":{"coding":[{"system":"http://loinc.org","code":"49498-9"}]},"subject":{"reference":"Patient/f7303712-1697-4144-a89c-5ebbebc6d65e"},"effectiveDateTime":"2022-03-21T00:00:00+00:00","valueQuantity":{"value":4.6}},"request":{"method":"POST","url":"Observation"}},{"fullUrl":"Observation/452caebd-3440-4dc9-b89b-1f17bb19f232","resource":{"resourceType":"Observation","id":"452caebd-3440-4dc9-b89b-1f17bb19f232","status":"final","code":{"coding":[{"system":"http://loinc.org","code":"6690-2"}]},"subject":{"reference":"Patient/f7303712-1697-4144-a89c-5ebbebc6d65e"},"effectiveDateTime":"2022-03-08T00:00:00+00:00","valueQuantity":{"value":4}},"request":{"method":"POST","url":"Observation"}},{"fullUrl":"Observation/2b235b58-9ef9-4629-994e-53112aa2ee69","resource":{"resourceType":"Observation","id":"2b235b58-9ef9-4629-994e-53112aa2ee69","status":"final","code":{"coding":[{"system":"http://loinc.org","code":"49498-9"}]},"subject":{"reference":"Patient/f7303712-1697-4144-a89c-5ebbebc6d65e"},"effectiveDateTime":"2022-07-06T00:00:00+00:00","valueQuantity":{"value":10.9}},"request":{"method":"POST","url":"Observation"}},{"fullUrl":"Observation/3193010f-5e62-404b-948e-cebd04cc9e06","resource":{"resourceType":"Observation","id":"3193010f-5e62-404b-948e-cebd04cc9e06","status":"final","code":{"coding":[{"system":"http://loinc.org","code":"49498-9"}]},"subject":{"reference":"Patient/f7303712-1697-4144-a89c-5ebbebc6d65e"},"effectiveDateTime":"2022-10-02T00:00:00+00:00"},"request":{"method":"POST","url":"Observation"}},{"fullUrl":"Observation/038c28cb-17cc-409b-8002-44ff40968c96","resource":{"resourceType":"Observation","id":"038c28cb-17cc-409b-8002-44ff40968c96","status":"final","code":{"coding":[{"system":"http://loinc.org","code":"49498-9"}]},"subject":{"reference":"Patient/f7303712-1697-4144-a89c-5ebbebc6d65e"},"effectiveDateTime":"2022-01-08T00:00:00+00:00"},"request":{"method":"POST","url":"Observation"}},{"fullUrl":"Procedure/a0e8efe4-56ed-4654-8b9e-0c3d91f2f74c","resource":{"resourceType":"Procedure","id":"a0e8efe4-56ed-4654-8b9e-0c3d91f2f74c","status":"completed","code":{"coding":[{"system":"http://snomed.info/sct","code":"146005"}]},"subject":{"reference":"Patient/f7303712-1697-4144-a89c-5ebbebc6d65e"},"performedDateTime":"2022-06-25T00:00:00+00:00"},"request":{"method":"POST","url":"Procedure"}},{"fullUrl":"Procedure/6aa92c63-b868-401c-b5e7-d499eeec97b6","resource":{"resourceType":"Procedure","id":"6aa92c63-b868-401c-b5e7-d499eeec97b6","status":"completed","code":{"coding":[{"system":"http://snomed.info/sct","code":"146005"}]},"subject":{"reference":"Patient/f7303712-1697-4144-a89c-5ebbebc6d65e"},"performedDateTime":"2022-09-04T00:00:00+00:00"},"request":{"method":"POST","url":"Procedure"}},{"fullUrl":"Procedure/c2076427-a413-4741-90dd-0fef631b0e99","resource":{"resourceType":"Procedure","id":"c2076427-a413-4741-90dd-0fef631b0e99","status":"completed","code":{"coding":[{"system":"http://snomed.info/sct","code":"115006"}]},"subject":{"reference":"Patient/f7303712-1697-4144-a89c-5ebbebc6d65e"},"performedDateTime":"2022-03-08T00:00:00+00:00"},"request":{"method":"POST","url":"Procedure"}},{"fullUrl":"MedicationStatement/ea17945c-7208-41c8-a1fd-3c8004455781","resource":{"resourceType":"MedicationStatement","id":"ea17945c-7208-41c8-a1fd-3c8004455781","status":"completed","medicationCodeableConcept":{"coding":[{"system":"http://www.nlm.nih.gov/research/umls/rxnorm","code":"8698"}]},"subject":{"reference":"Patient/f7303712-1697-4144-a89c-5ebbebc6d65e"},"effectiveDateTime":"2022-07-26T00:00:00+00:00","dosage":[{"doseAndRate":[{"doseQuantity":{"value":1,"unit":"TAB","system":"http://terminology.hl7.org/CodeSystem/v3-orderableDrugForm","code":"TAB"}}]}]},"request":{"method":"POST","url":"MedicationStatement"}},{"fullUrl":"MedicationStatement/02f8347a-d716-4a77-ad66-a16840e43b88","resource":{"resourceType":"MedicationStatement","id":"02f8347a-d716-4a77-ad66-a16840e43b88","status":"completed","medicationCodeableConcept":{"coding":[{"system":"http://www.nlm.nih.gov/research/umls/rxnorm","code":"7984"}]},"subject":{"reference":"Patient/f7303712-1697-4144-a89c-5ebbebc6d65e"},"effectiveDateTime":"2022-10-31T00:00:00+00:00","dosage":[{"doseAndRate":[{"doseQuantity":{"value":1,"unit":"TAB","system":"http://terminology.hl7.org/CodeSystem/v3-orderableDrugForm","code":"TAB"}}]}]},"request":{"method":"POST","url":"MedicationStatement"}},{"fullUrl":"MedicationStatement/92b512d4-9b6e-45cb-be0d-f74235fb55d4","resource":{"resourceType":"MedicationStatement","id":"92b512d4-9b6e-45cb-be0d-f74235fb55d4","status":"completed","medicationCodeableConcept":{"coding":[{"system":"http://www.nlm.nih.gov/research/umls/rxnorm","code":"7980"}]},"subject":{"reference":"Patient/f7303712-1697-4144-a89c-5ebbebc6d65e"},"effectiveDateTime":"2022-05-16T00:00:00+00:00","dosage":[{"doseAndRate":[{"doseQuantity":{"value":1,"unit":"TAB","system":"http://terminology.hl7.org/CodeSystem/v3-orderableDrugForm","code":"TAB"}}]}]},"request":{"method":"POST","url":"MedicationStatement"}},{"fullUrl":"MedicationStatement/4d46a825-9c78-4a56-9d6b-86b4bb71c928","resource":{"resourceType":"MedicationStatement","id":"4d46a825-9c78-4a56-9d6b-86b4bb71c928","status":"completed","medicationCodeableConcept":{"coding":[{"system":"http://www.nlm.nih.gov/research/umls/rxnorm","code":"2193"}]},"subject":{"reference":"Patient/f7303712-1697-4144-a89c-5ebbebc6d65e"},"effectiveDateTime":"2022-03-06T00:00:00+00:00","dosage":[{"doseAndRate":[{"doseQuantity":{"value":2,"unit":"TAB","system":"http://terminology.hl7.org/CodeSystem/v3-orderableDrugForm","code":"TAB"}}]}]},"request":{"method":"POST","url":"MedicationStatement"}},{"fullUrl":"MedicationStatement/1f9db823-4b2b-487d-873e-ff2fe31890f4","resource":{"resourceType":"MedicationStatement","id":"1f9db823-4b2b-487d-873e-ff2fe31890f4","status":"completed","medicationCodeableConcept":{"coding":[{"system":"http://www.nlm.nih.gov/research/umls/rxnorm","code":"3640"}]},"subject":{"reference":"Patient/f7303712-1697-4144-a89c-5ebbebc6d65e"},"effectiveDateTime":"2022-10-04T00:00:00+00:00","dosage":[{"doseAndRate":[{"doseQuantity":{"value":3,"unit":"TAB","system":"http://terminology.hl7.org/CodeSystem/v3-orderableDrugForm","code":"TAB"}}]}]},"request":{"method":"POST","url":"MedicationStatement"}},{"fullUrl":"MedicationStatement/d6b0a523-c072-4e72-9f20-7fde61483cf1","resource":{"resourceType":"MedicationStatement","id":"d6b0a523-c072-4e72-9f20-7fde61483cf1","status":"completed","medicationCodeableConcept":{"coding":[{"system":"http://www.nlm.nih.gov/research/umls/rxnorm","code":"3640"}]},"subject":{"reference":"Patient/f7303712-1697-4144-a89c-5ebbebc6d65e"},"effectiveDateTime":"2022-06-29T00:00:00+00:00","dosage":[{"doseAndRate":[{"doseQuantity":{"value":4.2,"unit":"TAB","system":"http://terminology.hl7.org/CodeSystem/v3-orderableDrugForm","code":"TAB"}}]}]},"request":{"method":"POST","url":"MedicationStatement"}},{"fullUrl":"MedicationStatement/5cfce753-9c3f-4ccb-bdd6-fc7e283f230e","resource":{"resourceType":"MedicationStatement","id":"5cfce753-9c3f-4ccb-bdd6-fc7e283f230e","status":"completed","medicationCodeableConcept":{"coding":[{"system":"http://www.nlm.nih.gov/research/umls/rxnorm","code":"7980"}]},"subject":{"reference":"Patient/f7303712-1697-4144-a89c-5ebbebc6d65e"},"effectiveDateTime":"2022-08-14T00:00:00+00:00","dosage":[{"doseAndRate":[{"doseQuantity":{"value":4.4,"unit":"TAB","system":"http://terminology.hl7.org/CodeSystem/v3-orderableDrugForm","code":"TAB"}}]}]},"request":{"method":"POST","url":"MedicationStatement"}},{"fullUrl":"MedicationStatement/b53a3126-755d-42d8-858c-20cc1460d7ae","resource":{"resourceType":"MedicationStatement","id":"b53a3126-755d-42d8-858c-20cc1460d7ae","status":"completed","medicationCodeableConcept":{"coding":[{"system":"http://www.nlm.nih.gov/research/umls/rxnorm","code":"7980"}]},"subject":{"reference":"Patient/f7303712-1697-4144-a89c-5ebbebc6d65e"},"effectiveDateTime":"2022-09-19T00:00:00+00:00","dosage":[{"doseAndRate":[{"doseQuantity":{"value":3.4,"unit":"TAB","system":"http://terminology.hl7.org/CodeSystem/v3-orderableDrugForm","code":"TAB"}}]}]},"request":{"method":"POST","url":"MedicationStatement"}},{"fullUrl":"MedicationStatement/e95aecb4-d493-4ab9-99e1-93aa460509f0","resource":{"resourceType":"MedicationStatement","id":"e95aecb4-d493-4ab9-99e1-93aa460509f0","status":"completed","medicationCodeableConcept":{"coding":[{"system":"http://www.nlm.nih.gov/research/umls/rxnorm","code":"7980"}]},"subject":{"reference":"Patient/f7303712-1697-4144-a89c-5ebbebc6d65e"},"effectiveDateTime":"2022-07-04T00:00:00+00:00","dosage":[{"doseAndRate":[{"doseQuantity":{"value":4.6,"unit":"TAB","system":"http://terminology.hl7.org/CodeSystem/v3-orderableDrugForm","code":"TAB"}}]}]},"request":{"method":"POST","url":"MedicationStatement"}},{"fullUrl":"Encounter/1f8507f5-68bd-45e2-8343-165f02ea5632","resource":{"resourceType":"Encounter","id":"1f8507f5-68bd-45e2-8343-165f02ea5632","status":"finished","class":{"system":"http://terminology.hl7.org/CodeSystem/v3-ActCode","code":"IMP","display":"inpatient encounter"},"type":[{"coding":[{"system":"http://terminology.hl7.org/CodeSystem/encounter-type","code":"ADMS"}]}],"subject":{"reference":"Patient/f7303712-1697-4144-a89c-5ebbebc6d65e"},"period":{"start":"2022-11-17T00:00:00+00:00","end":"2022-11-19T00:00:00+00:00"}},"request":{"method":"POST","url":"Encounter"}},{"fullUrl":"Encounter/09ed2e75-81cf-4eed-ac85-db489f42cfd5","resource":{"resourceType":"Encounter","id":"09ed2e75-81cf-4eed-ac85-db489f42cfd5","status":"finished","class":{"system":"http://terminology.hl7.org/CodeSystem/v3-ActCode","code":"IMP","display":"inpatient encounter"},"type":[{"coding":[{"system":"http://terminology.hl7.org/CodeSystem/encounter-type","code":"CCS60"}]}],"subject":{"reference":"Patient/f7303712-1697-4144-a89c-5ebbebc6d65e"},"period":{"start":"2022-07-20T00:00:00+00:00","end":"2022-07-29T00:00:00+00:00"}},"request":{"method":"POST","url":"Encounter"}},{"fullUrl":"Encounter/89c3b007-6090-4b00-b5a5-4b7348fbb554","resource":{"resourceType":"Encounter","id":"89c3b007-6090-4b00-b5a5-4b7348fbb554","status":"finished","class":{"system":"http://terminology.hl7.org/CodeSystem/v3-ActCode","code":"IMP","display":"inpatient encounter"},"type":[{"coding":[{"system":"http://terminology.hl7.org/CodeSystem/encounter-type","code":"OKI"}]}],"subject":{"reference":"Patient/f7303712-1697-4144-a89c-5ebbebc6d65e"},"period":{"start":"2022-04-10T00:00:00+00:00","end":"2022-04-13T00:00:00+00:00"}},"request":{"method":"POST","url":"Encounter"}},{"fullUrl":"Encounter/f1140b1e-045b-47cd-b03f-b0cd0e10f552","resource":{"resourceType":"Encounter","id":"f1140b1e-045b-47cd-b03f-b0cd0e10f552","status":"finished","class":{"system":"http://terminology.hl7.org/CodeSystem/v3-ActCode","code":"OBSENC","display":"observation encounter"},"type":[{"coding":[{"system":"http://terminology.hl7.org/CodeSystem/encounter-type","code":"ADMS"}]}],"subject":{"reference":"Patient/f7303712-1697-4144-a89c-5ebbebc6d65e"},"period":{"start":"2022-11-10T00:00:00+00:00","end":"2022-11-13T00:00:00+00:00"}},"request":{"method":"POST","url":"Encounter"}},{"fullUrl":"Encounter/1974a116-0f41-4614-8879-41b51bac93bc","resource":{"resourceType":"Encounter","id":"1974a116-0f41-4614-8879-41b51bac93bc","status":"finished","class":{"system":"http://terminology.hl7.org/CodeSystem/v3-ActCode","code":"AMB","display":"ambulatory"},"type":[{"coding":[{"system":"http://terminology.hl7.org/CodeSystem/encounter-type","code":"CCS60"}]}],"subject":{"reference":"Patient/f7303712-1697-4144-a89c-5ebbebc6d65e"},"period":{"start":"2022-12-03T00:00:00+00:00","end":"2022-12-11T00:00:00+00:00"}},"request":{"method":"POST","url":"Encounter"}},{"fullUrl":"Encounter/d8be95f0-a394-4649-aba6-671349e872d1","resource":{"resourceType":"Encounter","id":"d8be95f0-a394-4649-aba6-671349e872d1","status":"finished","class":{"system":"http://terminology.hl7.org/CodeSystem/v3-ActCode","code":"SS","display":"short-stay"},"type":[{"coding":[{"system":"http://terminology.hl7.org/CodeSystem/encounter-type","code":"OKI"}]}],"subject":{"reference":"Patient/f7303712-1697-4144-a89c-5ebbebc6d65e"},"period":{"start":"2022-03-25T00:00:00+00:00","end":"2022-03-27T00:00:00+00:00"}},"request":{"method":"POST","url":"Encounter"}},{"fullUrl":"Patient/2ec4a693-9492-4ab0-9c89-58194b75395c","resource":{"resourceType":"Patient","id":"2ec4a693-9492-4ab0-9c89-58194b75395c","identifier":[{"type":{"coding":[{"system":"http://terminology.hl7.org/CodeSystem/v2-0203","code":"MR"}]},"system":"urn:fhirgen:mrn","value":"256-56-5433"}],"name":[{"use":"official","family":"Marquez","given":["Mary"]},{"use":"maiden","family":"Watson"}],"telecom":[{"system":"phone","value":"(144)618-7781x53584","use":"home"},{"system":"email","value":"longmark@hotmail.com","use":"work"}],"gender":"female","birthDate":"1948-04-29","address":[{"use":"home","line":["3867 Elizabeth Burg Apt. 694"],"city":"Codymouth","state":"IN","postalCode":"83897"},{"use":"old","line":["30851 Mary Gateway"],"city":"Lambmouth","state":"OH","postalCode":"19174"}]},"request":{"method":"POST","url":"Patient"}},{"fullUrl":"Observation/2b2446f3-38dc-4989-850d-2d4c5d946f56","resource":{"resourceType":"Observation","id":"2b2446f3-38dc-4989-850d-2d4c5d946f56","status":"final","code":{"coding":[{"system":"http://loinc.org","code":"50690-7"}]},"subject":{"reference":"Patient/2ec4a693-9492-4ab0-9c89-58194b75395c"},"effectiveDateTime":"2022-10-11T00:00:00+00:00","valueRatio":{"numerator":{"value":1},"denominator":{"value":4}}},"request":{"method":"POST","url":"Observation"}},{"fullUrl":"Observation/2ace5156-cbd2-453d-a686-db950a1fee4e","resource":{"resourceType":"Observation","id":"2ace5156-cbd2-453d-a686-db950a1fee4e","status":"final","code":{"coding":[{"system":"http://loinc.org","code":"47235-7"}]},"subject":{"reference":"Patient/2ec4a693-9492-4ab0-9c89-58194b75395c"},"effectiveDateTime":"2022-11-30T00:00:00+00:00","valueRatio":{"numerator":{"value":1},"denominator":{"value":32}}},"request":{"method":"POST","url":"Observation"}},{"fullUrl":"Observation/623dcbf6-a958-45bf-99ad-af3230a8b7a2","resource":{"resourceType":"Observation","id":"623dcbf6-a958-45bf-99ad-af3230a8b7a2","status":"final","code":{"coding":[{"system":"http://loinc.org","code":"31146-4"}]},"subject":{"reference":"Patient/2ec4a693-9492-4ab0-9c89-58194b75395c"},"effectiveDateTime":"2022-01-30T00:00:00+00:00","valueRatio":{"numerator":{"value":1},"denominator":{"value":4}}},"request":{"method":"POST","url":"Observation"}},{"fullUrl":"Condition/a58fcc8d-3c23-47c5-b1bb-0734446ea69c","resource":{"resourceType":"Condition","id":"a58fcc8d-3c23-47c5-b1bb-0734446ea69c","code":{"coding":[{"system":"http://snomed.info/sct","code":"30746006"}]},"subject":{"reference":"Patient/2ec4a693-9492-4ab0-9c89-58194b75395c"},"onsetDateTime":"2022-09-16T00:00:00+00:00"},"request":{"method":"POST","url":"Condition"}},{"fullUrl":"Condition/e7798b1e-be1a-4fd0-8b6a-c5034a398630","resource":{"resourceType":"Condition","id":"e7798b1e-be1a-4fd0-8b6a-c5034a398630","code":{"coding":[{"system":"http://snomed.info/sct","code":"198199009"}]},"subject":{"reference":"Patient/2ec4a693-9492-4ab0-9c89-58194b75395c"},"onsetDateTime":"2022-11-30T00:00:00+00:00"},"request":{"method":"POST","url":"Condition"}},{"fullUrl":"Condition/dcfc0ee4-1c11-404b-9eea-fcc1ba99f4af","resource":{"resourceType":"Condition","id":"dcfc0ee4-1c11-404b-9eea-fcc1ba99f4af","code":{"coding":[{"system":"http://snomed.info/sct","code":"18165001"}]},"subject":{"reference":"Patient/2ec4a693-9492-4ab0-9c89-58194b75395c"},"onsetDateTime":"2022-06-01T00:00:00+00:00"},"request":{"method":"POST","url":"Condition"}},{"fullUrl":"Condition/7e96a319-124b-40f6-81f3-20feae2d1cec","resource":{"resourceType":"Condition","id":"7e96a319-124b-40f6-81f3-20feae2d1cec","code":{"coding":[{"system":"http://snomed.info/sct","code":"198199009"}]},"subject":{"reference":"Patient/2ec4a693-9492-4ab0-9c89-58194b75395c"},"onsetDateTime":"2022-10-21T00:00:00+00:00"},"request":{"method":"POST","url":"Condition"}},{"fullUrl":"Condition/0e375223-68ec-4e0e-95f3-6ac361070ef4","resource":{"resourceType":"Condition","id":"0e375223-68ec-4e0e-95f3-6ac361070ef4","code":{"coding":[{"system":"http://snomed.info/sct","code":"44882003"}]},"subject":{"reference":"Patient/2ec4a693-9492-4ab0-9c89-58194b75395c"},"onsetDateTime":"2022-02-15T00:00:00+00:00"},"request":{"method":"POST","url":"Condition"}},{"fullUrl":"Condition/5166ebe2-00c9-42ef-b5d2-44016e2dea32","resource":{"resourceType":"Condition","id":"5166ebe2-00c9-42ef-b5d2-44016e2dea32","code":{"coding":[{"system":"http://snomed.info/sct","code":"44882003"}]},"subject":{"reference":"Patient/2ec4a693-9492-4ab0-9c89-58194b75395c"},"onsetDateTime":"2022-10-15T00:00:00+00:00"},"request":{"method":"POST","url":"Condition"}},{"fullUrl":"Condition/a17f1827-bd24-4c19-b30b-02f2fe5d4fdf","resource":{"resourceType":"Condition","id":"a17f1827-bd24-4c19-b30b-02f2fe5d4fdf","code":{"coding":[{"system":"http://snomed.info/sct","code":"198199009"}]},"subject":{"reference":"Patient/2ec4a693-9492-4ab0-9c89-58194b75395c"},"onsetDateTime":"2022-02-07T00:00:00+00:00"},"request":{"method":"POST","url":"Condition"}},{"fullUrl":"Observation/55df0e19-fa14-46ea-8a41-ac7424fdb2c8","resource":{"resourceType":"Observation","id":"55df0e19-fa14-46ea-8a41-ac7424fdb2c8","status":"final","code":{"coding":[{"system":"http://loinc.org","code":"26464-8"}]},"subject":{"reference":"Patient/2ec4a693-9492-4ab0-9c89-58194b75395c"},"effectiveDateTime":"2022-10-28T00:00:00+00:00","valueQuantity":{"value":6.5}},"request":{"method":"POST","url":"Observation"}},{"fullUrl":"Observation/5e4fb04b-bcb1-4599-a34c-b55875e86228","resource":{"resourceType":"Observation","id":"5e4fb04b-bcb1-4599-a34c-b55875e86228","status":"final","code":{"coding":[{"system":"http://loinc.org","code":"804-5"}]},"subject":{"reference":"Patient/2ec4a693-9492-4ab0-9c89-58194b75395c"},"effectiveDateTime":"2022-04-05T00:00:00+00:00","valueQuantity":{"value":6.1}},"request":{"method":"POST","url":"Observation"}},{"fullUrl":"Observation/566ccbc3-b2ca-4155-b871-d725a82378e8","resource":{"resourceType":"Observation","id":"566ccbc3-b2ca-4155-b871-d725a82378e8","status":"final","code":{"coding":[{"system":"http://www.ama-assn.org/go/cpt","code":"85048"}]},"subject":{"reference":"Patient/2ec4a693-9492-4ab0-9c89-58194b75395c"},"effectiveDateTime":"2022-05-17T00:00:00+00:00","valueQuantity":{"value":9.8}},"request":{"method":"POST","url":"Observation"}},{"fullUrl":"Observation/5697eefe-a094-40d7-bc7b-6397d8ab67e3","resource":{"resourceType":"Observation","id":"5697eefe-a094-40d7-bc7b-6397d8ab67e3","status":"final","code":{"coding":[{"system":"http://loinc.org","code":"49498-9"}]},"subject":{"reference":"Patient/2ec4a693-9492-4ab0-9c89-58194b75395c"},"effectiveDateTime":"2022-07-09T00:00:00+00:00"},"request":{"method":"POST","url":"Observation"}},{"fullUrl":"Observation/426b9896-a8e4-4697-8fdc-93648ccddcf9","resource":{"resourceType":"Observation","id":"426b9896-a8e4-4697-8fdc-93648ccddcf9","status":"final","code":{"coding":[{"system":"http://loinc.org","code":"49498-9"}]},"subject":{"reference":"Patient/2ec4a693-9492-4ab0-9c89-58194b75395c"},"effectiveDateTime":"2022-05-17T00:00:00+00:00"},"request":{"method":"POST","url":"Observation"}},{"fullUrl":"Procedure/906a8740-01e5-4a65-8245-8e9f5583bf8d","resource":{"resourceType":"Procedure","id":"906a8740-01e5-4a65-8245-8e9f5583bf8d","status":"completed","code":{"coding":[{"system":"http://snomed.info/sct","code":"647000"}]},"subject":{"reference":"Patient/2ec4a693-9492-4ab0-9c89-58194b75395c"},"performedDateTime":"2022-11-02T00:00:00+00:00"},"request":{"method":"POST","url":"Procedure"}},{"fullUrl":"Procedure/1d0b95df-85aa-413b-9b9e-c95136b35ffa","resource":{"resourceType":"Procedure","id":"1d0b95df-85aa-413b-9b9e-c95136b35ffa","status":"completed","code":{"coding":[{"system":"http://snomed.info/sct","code":"115006"}]},"subject":{"reference":"Patient/2ec4a693-9492-4ab0-9c89-58194b75395c"},"performedDateTime":"2022-12-27T00:00:00+00:00"},"request":{"method":"POST","url":"Procedure"}},{"fullUrl":"Procedure/95733649-aa4d-4060-8264-5557b58787eb","resource":{"resourceType":"Procedure","id":"95733649-aa4d-4060-8264-5557b58787eb","status":"completed","code":{"coding":[{"system":"http://snomed.info/sct","code":"189009"}]},"subject":{"reference":"Patient/2ec4a693-9492-4ab0-9c89-58194b75395c"},"performedDateTime":"2022-10-14T00:00:00+00:00"},"request":{"method":"POST","url":"Procedure"}},{"fullUrl":"MedicationStatement/97dc4fd9-db83-4daa-8548-fbe7c9e4a54c","resource":{"resourceType":"MedicationStatement","id":"97dc4fd9-db83-4daa-8548-fbe7c9e4a54c","status":"completed","medicationCodeableConcept":{"coding":[{"system":"http://www.nlm.nih.gov/research/umls/rxnorm","code":"3640"}]},"subject":{"reference":"Patient/2ec4a693-9492-4ab0-9c89-58194b75395c"},"effectiveDateTime":"2022-11-19T00:00:00+00:00","dosage":[{"doseAndRate":[{"doseQuantity":{"value":1,"unit":"TAB","system":"http://terminology.hl7.org/CodeSystem/v3-orderableDrugForm","code":"TAB"}}]}]},"request":{"method":"POST","url":"MedicationStatement"}},{"fullUrl":"MedicationStatement/b4b909f7-8973-46d4-8a91-0e49327cf980","resource":{"resourceType":"MedicationStatement","id":"b4b909f7-8973-46d4-8a91-0e49327cf980","status":"completed","medicationCodeableConcept":{"coding":[{"system":"http://www.nlm.nih.gov/research/umls/rxnorm","code":"8698"}]},"subject":{"reference":"Patient/2ec4a693-9492-4ab0-9c89-58194b75395c"},"effectiveDateTime":"2022-01-11T00:00:00+00:00","dosage":[{"doseAndRate":[{"doseQuantity":{"value":2,"unit":"TAB","system":"http://terminology.hl7.org/CodeSystem/v3-orderableDrugForm","code":"TAB"}}]}]},"request":{"method":"POST","url":"MedicationStatement"}},{"fullUrl":"MedicationStatement/74399739-b276-4e98-b033-1acd37724352","resource":{"resourceType":"MedicationStatement","id":"74399739-b276-4e98-b033-1acd37724352","status":"completed","medicationCodeableConcept":{"coding":[{"system":"http://www.nlm.nih.gov/research/umls/rxnorm","code":"3640"}]},"subject":{"reference":"Patient/2ec4a693-9492-4ab0-9c89-58194b75395c"},"effectiveDateTime":"2022-09-23T00:00:00+00:00","dosage":[{"doseAndRate":[{"doseQuantity":{"value":1,"unit":"TAB","system":"http://terminology.hl7.org/CodeSystem/v3-orderableDrugForm","code":"TAB"}}]}]},"request":{"method":"POST","url":"MedicationStatement"}},{"fullUrl":"MedicationStatement/0d12ada4-c1af-4900-b24a-4ff391b2aa8c","resource":{"resourceType":"MedicationStatement","id":"0d12ada4-c1af-4900-b24a-4ff391b2aa8c","status":"completed","medicationCodeableConcept":{"coding":[{"system":"http://www.nlm.nih.gov/research/umls/rxnorm","code":"8698"}]},"subject":{"reference":"Patient/2ec4a693-9492-4ab0-9c89-58194b75395c"},"effectiveDateTime":"2022-09-16T00:00:00+00:00","dosage":[{"doseAndRate":[{"doseQuantity":{"value":1,"unit":"TAB","system":"http://terminology.hl7.org/CodeSystem/v3-orderableDrugForm","code":"TAB"}}]}]},"request":{"method":"POST","url":"MedicationStatement"}},{"fullUrl":"MedicationStatement/d50c9db4-ddc7-4531-88b5-2400b60895a6","resource":{"resourceType":"MedicationStatement","id":"d50c9db4-ddc7-4531-88b5-2400b60895a6","status":"completed","medicationCodeableConcept":{"coding":[{"system":"http://www.nlm.nih.gov/research/umls/rxnorm","code":"3640"}]},"subject":{"reference":"Patient/2ec4a693-9492-4ab0-9c89-58194b75395c"},"effectiveDateTime":"2022-02-24T00:00:00+00:00","dosage":[{"doseAndRate":[{"doseQuantity":{"value":1,"unit":"TAB","system":"http://terminology.hl7.org/CodeSystem/v3-orderableDrugForm","code":"TAB"}}]}]},"request":{"method":"POST","url":"MedicationStatement"}},{"fullUrl":"MedicationStatement/1c449a8b-d3c9-481b-80de-ff2f3c960c74","resource":{"resourceType":"MedicationStatement","id":"1c449a8b-d3c9-481b-80de-ff2f3c960c74","status":"completed","medicationCodeableConcept":{"coding":[{"system":"http://www.nlm.nih.gov/research/umls/rxnorm","code":"3640"}]},"subject":{"reference":"Patient/2ec4a693-9492-4ab0-9c89-58194b75395c"},"effectiveDateTime":"2022-06-24T00:00:00+00:00","dosage":[{"doseAndRate":[{"doseQuantity":{"value":2,"unit":"TAB","system":"http://terminology.hl7.org/CodeSystem/v3-orderableDrugForm","code":"TAB"}}]}]},"request":{"method":"POST","url":"MedicationStatement"}},{"fullUrl":"MedicationStatement/62724e33-543d-4322-a28f-5336486bf11a","resource":{"resourceType":"MedicationStatement","id":"62724e33-543d-4322-a28f-5336486bf11a","status":"completed","medicationCodeableConcept":{"coding":[{"system":"http://www.nlm.nih.gov/research/umls/rxnorm","code":"3640"}]},"subject":{"reference":"Patient/2ec4a693-9492-4ab0-9c89-58194b75395c"},"effectiveDateTime":"2022-02-02T00:00:00+00:00","dosage":[{"doseAndRate":[{"doseQuantity":{"value":2,"unit":"TAB","system":"http://terminology.hl7.org/CodeSystem/v3-orderableDrugForm","code":"TAB"}}]}]},"request":{"method":"POST","url":"MedicationStatement"}},{"fullUrl":"MedicationStatement/4025da3c-a907-4a27-a511-c4da7b8856b3","resource":{"resourceType":"MedicationStatement","id":"4025da3c-a907-4a27-a511-c4da7b8856b3","status":"completed","medicationCodeableConcept":{"coding":[{"system":"http://www.nlm.nih.gov/research/umls/rxnorm","code":"10395"}]},"subject":{"reference":"Patient/2ec4a693-9492-4ab0-9c89-58194b75395c"},"effectiveDateTime":"2022-06-02T00:00:00+00:00","dosage":[{"doseAndRate":[{"doseQuantity":{"value":3.3,"unit":"TAB","system":"http://terminology.hl7.org/CodeSystem/v3-orderableDrugForm","code":"TAB"}}]}]},"request":{"method":"POST","url":"MedicationStatement"}},{"fullUrl":"MedicationStatement/9da98840-7f0f-4df7-b698-dd4ecac02812","resource":{"resourceType":"MedicationStatement","id":"9da98840-7f0f-4df7-b698-dd4ecac02812","status":"completed","medicationCodeableConcept":{"coding":[{"system":"http://www.nlm.nih.gov/research/umls/rxnorm","code":"2193"}]},"subject":{"reference":"Patient/2ec4a693-9492-4ab0-9c89-58194b75395c"},"effectiveDateTime":"2022-03-24T00:00:00+00:00","dosage":[{"doseAndRate":[{"doseQuantity":{"value":4.2,"unit":"TAB","system":"http://terminology.hl7.org/CodeSystem/v3-orderableDrugForm","code":"TAB"}}]}]},"request":{"method":"POST","url":"MedicationStatement"}},{"fullUrl":"MedicationStatement/95a77da3-87c5-4fc1-8aa2-ff064865fd73","resource":{"resourceType":"MedicationStatement","id":"95a77da3-87c5-4fc1-8aa2-ff064865fd73","status":"completed","medicationCodeableConcept":{"coding":[{"system":"http://www.nlm.nih.gov/research/umls/rxnorm","code":"7980"}]},"subject":{"reference":"Patient/2ec4a693-9492-4ab0-9c89-58194b75395c"},"effectiveDateTime":"2022-05-10T00:00:00+00:00","dosage":[{"doseAndRate":[{"doseQuantity":{"value":4.3,"unit":"TAB","system":"http://terminology.hl7.org/CodeSystem/v3-orderableDrugForm","code":"TAB"}}]}]},"request":{"method":"POST","url":"MedicationStatement"}},{"fullUrl":"MedicationStatement/ec350ca5-425e-4685-a839-b50422c69b97","resource":{"resourceType":"MedicationStatement","id":"ec350ca5-425e-4685-a839-b50422c69b97","status":"completed","medicationCodeableConcept":{"coding":[{"system":"http://www.nlm.nih.gov/research/umls/rxnorm","code":"7984"}]},"subject":{"reference":"Patient/2ec4a693-9492-4ab0-9c89-58194b75395c"},"effectiveDateTime":"2022-05-27T00:00:00+00:00","dosage":[{"doseAndRate":[{"doseQuantity":{"value":4.4,"unit":"TAB","system":"http://terminology.hl7.org/CodeSystem/v3-orderableDrugForm","code":"TAB"}}]}]},"request":{"method":"POST","url":"MedicationStatement"}},{"fullUrl":"Encounter/76fb570c-4816-4aea-aa8a-d60f797dcf20","resource":{"resourceType":"Encounter","id":"76fb570c-4816-4aea-aa8a-d60f797dcf20","status":"finished","class":{"system":"http://terminology.hl7.org/CodeSystem/v3-ActCode","code":"IMP","display":"inpatient encounter"},"type":[{"coding":[{"system":"http://terminology.hl7.org/CodeSystem/encounter-type","code":"ADMS"}]}],"subject":{"reference":"Patient/2ec4a693-9492-4ab0-9c89-58194b75395c"},"period":{"start":"2022-07-13T00:00:00+00:00","end":"2022-07-14T00:00:00+00:00"}},"request":{"method":"POST","url":"Encounter"}},{"fullUrl":"Encounter/9afa8827-50e3-45ed-a68c-26b00748a613","resource":{"resourceType":"Encounter","id":"9afa8827-50e3-45ed-a68c-26b00748a613","status":"finished","class":{"system":"http://terminology.hl7.org/CodeSystem/v3-ActCode","code":"IMP","display":"inpatient encounter"},"type":[{"coding":[{"system":"http://terminology.hl7.org/CodeSystem/encounter-type","code":"BD/BM-clin"}]}],"subject":{"reference":"Patient/2ec4a693-9492-4ab0-9c89-58194b75395c"},"period":{"start":"2022-03-03T00:00:00+00:00","end":"2022-03-11T00:00:00+00:00"}},"request":{"method":"POST","url":"Encounter"}},{"fullUrl":"Encounter/ef44c398-7b28-4581-8cc5-a10d3f8bb34e","resource":{"resourceType":"Encounter","id":"ef44c398-7b28-4581-8cc5-a10d3f8bb34e","status":"finished","class":{"system":"http://terminology.hl7.org/CodeSystem/v3-ActCode","code":"IMP","display":"inpatient encounter"},"type":[{"coding":[{"system":"http://terminology.hl7.org/CodeSystem/encounter-type","code":"OKI"}]}],"subject":{"reference":"Patient/2ec4a693-9492-4ab0-9c89-58194b75395c"},"period":{"start":"2022-07-21T00:00:00+00:00","end":"2022-07-22T00:00:00+00:00"}},"request":{"method":"POST","url":"Encounter"}},{"fullUrl":"Encounter/f24b5fdf-0598-4a3c-85e5-8baea248476e","resource":{"resourceType":"Encounter","id":"f24b5fdf-0598-4a3c-85e5-8baea248476e","status":"finished","class":{"system":"http://terminology.hl7.org/CodeSystem/v3-ActCode","code":"PRENC","display":"pre-admission"},"type":[{"coding":[{"system":"http://terminology.hl7.org/CodeSystem/encounter-type","code":"CCS60"}]}],"subject":{"reference":"Patient/2ec4a693-9492-4ab0-9c89-58194b75395c"},"period":{"start":"2022-10-18T00:00:00+00:00","end":"2022-10-22T00:00:00+00:00"}},"request":{"method":"POST","url":"Encounter"}},{"fullUrl":"Encounter/fc334c77-ee12-46d5-b98f-e68e5628ae2f","resource":{"resourceType":"Encounter","id":"fc334c77-ee12-46d5-b98f-e68e5628ae2f","status":"finished","class":{"system":"http://terminology.hl7.org/CodeSystem/v3-ActCode","code":"EMER","display":"emergency"},"type":[{"coding":[{"system":"http://terminology.hl7.org/CodeSystem/encounter-type","code":"OKI"}]}],"subject":{"reference":"Patient/2ec4a693-9492-4ab0-9c89-58194b75395c"},"period":{"start":"2022-10-07T00:00:00+00:00","end":"2022-10-13T00:00:00+00:00"}},"request":{"method":"POST","url":"Encounter"}},{"fullUrl":"Patient/a8e78694-b3db-4041-8c49-20bade94cb92","resource":{"resourceType":"Patient","id":"a8e78694-b3db-4041-8c49-20bade94cb92","identifier":[{"type":{"coding":[{"system":"http://terminology.hl7.org/CodeSystem/v2-0203","code":"MR"}]},"system":"urn:fhirgen:mrn","value":"402-03-6971"}],"name":[{"use":"official","family":"Guerrero","given":["Aaron"]},{"use":"maiden","family":"Lee"}],"telecom":[{"system":"phone","value":"001-419-214-6657x4018","use":"home"},{"system":"email","value":"jennifer57@hotmail.com","use":"home"}],"gender":"other","birthDate":"1963-02-16","address":[{"use":"home","line":["0353 Alex Mission"],"city":"Seanborough","state":"MI","postalCode":"28962"},{"use":"old","line":["171 Lindsey Inlet"],"city":"South James","state":"TX","postalCode":"33302"}]},"request":{"method":"POST","url":"Patient"}},{"fullUrl":"Observation/5c9e89d5-c175-48ef-8318-10cc1ced955f","resource":{"resourceType":"Observation","id":"5c9e89d5-c175-48ef-8318-10cc1ced955f","status":"final","code":{"coding":[{"system":"http://loinc.org","code":"50695-6"}]},"subject":{"reference":"Patient/a8e78694-b3db-4041-8c49-20bade94cb92"},"effectiveDateTime":"2022-03-12T00:00:00+00:00","valueRatio":{"numerator":{"value":1},"denominator":{"value":32}}},"request":{"method":"POST","url":"Observation"}},{"fullUrl":"Observation/e19671f7-62bd-4ef7-a47c-a012e0da95fe","resource":{"resourceType":"Observation","id":"e19671f7-62bd-4ef7-a47c-a012e0da95fe","status":"final","code":{"coding":[{"system":"http://loinc.org","code":"31146-4"}]},"subject":{"reference":"Patient/a8e78694-b3db-4041-8c49-20bade94cb92"},"effectiveDateTime":"2022-04-01T00:00:00+00:00","valueRatio":{"numerator":{"value":1},"denominator":{"value":64}}},"request":{"method":"POST","url":"Observation"}},{"fullUrl":"Condition/e2c3b2ab-f099-41d6-974f-15ac4c3dc3bc","resource":{"resourceType":"Condition","id":"e2c3b2ab-f099-41d6-974f-15ac4c3dc3bc","code":{"coding":[{"system":"http://snomed.info/sct","code":"18165001"}]},"subject":{"reference":"Patient/a8e78694-b3db-4041-8c49-20bade94cb92"},"onsetDateTime":"2022-01-12T00:00:00+00:00"},"request":{"method":"POST","url":"Condition"}},{"fullUrl":"Condition/04001e3b-b372-4733-aa47-742422422e15","resource":{"resourceType":"Condition","id":"04001e3b-b372-4733-aa47-742422422e15","code":{"coding":[{"system":"http://snomed.info/sct","code":"297123002"}]},"subject":{"reference":"Patient/a8e78694-b3db-4041-8c49-20bade94cb92"},"onsetDateTime":"2022-04-04T00:00:00+00:00"},"request":{"method":"POST","url":"Condition"}},{"fullUrl":"Condition/b67d898c-ef22-4bec-869d-965b86ce1afb","resource":{"resourceType":"Condition","id":"b67d898c-ef22-4bec-869d-965b86ce1afb","code":{"coding":[{"system":"http://snomed.info/sct","code":"56317004"}]},"subject":{"reference":"Patient/a8e78694-b3db-4041-8c49-20bade94cb92"},"onsetDateTime":"2022-01-05T00:00:00+00:00"},"request":{"method":"POST","url":"Condition"}},{"fullUrl":"Condition/6b513031-0054-4995-9c11-45311a7f73a9","resource":{"resourceType":"Condition","id":"6b513031-0054-4995-9c11-45311a7f73a9","code":{"coding":[{"system":"http://snomed.info/sct","code":"18165001"}]},"subject":{"reference":"Patient/a8e78694-b3db-4041-8c49-20bade94cb92"},"onsetDateTime":"2022-12-20T00:00:00+00:00"},"request":{"method":"POST","url":"Condition"}},{"fullUrl":"Observation/da85b3cd-7a7e-446a-a92c-c2ae653a2396","resource":{"resourceType":"Observation","id":"da85b3cd-7a7e-446a-a92c-c2ae653a2396","status":"final","code":{"coding":[{"system":"http://loinc.org","code":"26464-8"}]},"subject":{"reference":"Patient/a8e78694-b3db-4041-8c49-20bade94cb92"},"effectiveDateTime":"2022-10-21T00:00:00+00:00","valueQuantity":{"value":10.5}},"request":{"method":"POST","url":"Observation"}},{"fullUrl":"Observation/7d6d214f-7eaf-42ad-bfee-e887f1228c2c","resource":{"resourceType":"Observation","id":"7d6d214f-7eaf-42ad-bfee-e887f1228c2c","status":"final","code":{"coding":[{"system":"http://loinc.org","code":"26464-8"}]},"subject":{"reference":"Patient/a8e78694-b3db-4041-8c49-20bade94cb92"},"effectiveDateTime":"2022-02-22T00:00:00+00:00","valueQuantity":{"value":4.1}},"request":{"method":"POST","url":"Observation"}},{"fullUrl":"Observation/80d730ab-f092-43db-98f3-3aa07aa1824a","resource":{"resourceType":"Observation","id":"80d730ab-f092-43db-98f3-3aa07aa1824a","status":"final","code":{"coding":[{"system":"http://loinc.org","code":"49498-9"}]},"subject":{"reference":"Patient/a8e78694-b3db-4041-8c49-20bade94cb92"},"effectiveDateTime":"2022-10-10T00:00:00+00:00"},"request":{"method":"POST","url":"Observation"}},{"fullUrl":"Observation/6b12a1fd-cae9-43a4-8927-cc5d5516a6c5","resource":{"resourceType":"Observation","id":"6b12a1fd-cae9-43a4-8927-cc5d5516a6c5","status":"final","code":{"coding":[{"system":"http://loinc.org","code":"49498-9"}]},"subject":{"reference":"Patient/a8e78694-b3db-4041-8c49-20bade94cb92"},"effectiveDateTime":"2022-05-25T00:00:00+00:00"},"request":{"method":"POST","url":"Observation"}},{"fullUrl":"Procedure/c9729fd8-0e22-4575-af18-744e2b204d20","resource":{"resourceType":"Procedure","id":"c9729fd8-0e22-4575-af18-744e2b204d20","status":"completed","code":{"coding":[{"system":"http://snomed.info/sct","code":"115006"}]},"subject":{"reference":"Patient/a8e78694-b3db-4041-8c49-20bade94cb92"},"performedDateTime":"2022-04-09T00:00:00+00:00"},"request":{"method":"POST","url":"Procedure"}},{"fullUrl":"Procedure/a3666930-b005-42a4-bb97-9b349743759a","resource":{"resourceType":"Procedure","id":"a3666930-b005-42a4-bb97-9b349743759a","status":"completed","code":{"coding":[{"system":"http://snomed.info/sct","code":"647000"}]},"subject":{"reference":"Patient/a8e78694-b3db-4041-8c49-20bade94cb92"},"performedDateTime":"2022-07-24T00:00:00+00:00"},"request":{"method":"POST","url":"Procedure"}},{"fullUrl":"Procedure/254ab30c-c84f-471e-a48c-b6eadb2935cb","resource":{"resourceType":"Procedure","id":"254ab30c-c84f-471e-a48c-b6eadb2935cb","status":"completed","code":{"coding":[{"system":"http://snomed.info/sct","code":"104001"}]},"subject":{"reference":"Patient/a8e78694-b3db-4041-8c49-20bade94cb92"},"performedDateTime":"2022-12-09T00:00:00+00:00"},"request":{"method":"POST","url":"Procedure"}},{"fullUrl":"MedicationStatement/92f0880c-37a0-4655-b246-2f8059dd550a","resource":{"resourceType":"MedicationStatement","id":"92f0880c-37a0-4655-b246-2f8059dd550a","status":"completed","medicationCodeableConcept":{"coding":[{"system":"http://www.nlm.nih.gov/research/umls/rxnorm","code":"3640"}]},"subject":{"reference":"Patient/a8e78694-b3db-4041-8c49-20bade94cb92"},"effectiveDateTime":"2022-03-20T00:00:00+00:00","dosage":[{"doseAndRate":[{"doseQuantity":{"value":1,"unit":"TAB","system":"http://terminology.hl7.org/CodeSystem/v3-orderableDrugForm","code":"TAB"}}]}]},"request":{"method":"POST","url":"MedicationStatement"}},{"fullUrl":"MedicationStatement/ceaf0834-b48e-4568-8612-f7247433335f","resource":{"resourceType":"MedicationStatement","id":"ceaf0834-b48e-4568-8612-f7247433335f","status":"completed","medicationCodeableConcept":{"coding":[{"system":"http://www.nlm.nih.gov/research/umls/rxnorm","code":"18631"}]},"subject":{"reference":"Patient/a8e78694-b3db-4041-8c49-20bade94cb92"},"effectiveDateTime":"2022-02-17T00:00:00+00:00","dosage":[{"doseAndRate":[{"doseQuantity":{"value":1,"unit":"TAB","system":"http://terminology.hl7.org/CodeSystem/v3-orderableDrugForm","code":"TAB"}}]}]},"request":{"method":"POST","url":"MedicationStatement"}},{"fullUrl":"MedicationStatement/98d6a9b3-4503-428b-b14a-4bdbc212b85e","resource":{"resourceType":"MedicationStatement","id":"98d6a9b3-4503-428b-b14a-4bdbc212b85e","status":"completed","medicationCodeableConcept":{"coding":[{"system":"http://www.nlm.nih.gov/research/umls/rxnorm","code":"18631"}]},"subject":{"reference":"Patient/a8e78694-b3db-4041-8c49-20bade94cb92"},"effectiveDateTime":"2022-11-25T00:00:00+00:00","dosage":[{"doseAndRate":[{"doseQuantity":{"value":1,"unit":"TAB","system":"http://terminology.hl7.org/CodeSystem/v3-orderableDrugForm","code":"TAB"}}]}]},"request":{"method":"POST","url":"MedicationStatement"}},{"fullUrl":"MedicationStatement/6e9a4e7a-8d0f-4d0f-a66b-c73d30f7065e","resource":{"resourceType":"MedicationStatement","id":"6e9a4e7a-8d0f-4d0f-a66b-c73d30f7065e","status":"completed","medicationCodeableConcept":{"coding":[{"system":"http://www.nlm.nih.gov/research/umls/rxnorm","code":"7984"}]},"subject":{"reference":"Patient/a8e78694-b3db-4041-8c49-20bade94cb92"},"effectiveDateTime":"2022-07-08T00:00:00+00:00","dosage":[{"doseAndRate":[{"doseQuantity":{"value":4.9,"unit":"TAB","system":"http://terminology.hl7.org/CodeSystem/v3-orderableDrugForm","code":"TAB"}}]}]},"request":{"method":"POST","url":"MedicationStatement"}},{"fullUrl":"MedicationStatement/3b33bc0b-4a01-4a91-b0d1-ca40f0635fbe","resource":{"resourceType":"MedicationStatement","id":"3b33bc0b-4a01-4a91-b0d1-ca40f0635fbe","status":"completed","medicationCodeableConcept":{"coding":[{"system":"http://www.nlm.nih.gov/research/umls/rxnorm","code":"10395"}]},"subject":{"reference":"Patient/a8e78694-b3db-4041-8c49-20bade94cb92"},"effectiveDateTime":"2022-05-19T00:00:00+00:00","dosage":[{"doseAndRate":[{"doseQuantity":{"value":5.6,"unit":"TAB","system":"http://terminology.hl7.org/CodeSystem/v3-orderableDrugForm","code":"TAB"}}]}]},"request":{"method":"POST","url":"MedicationStatement"}},{"fullUrl":"MedicationStatement/c559945f-6410-4021-a986-54c405751614","resource":{"resourceType":"MedicationStatement","id":"c559945f-6410-4021-a986-54c405751614","status":"completed","medicationCodeableConcept":{"coding":[{"system":"http://www.nlm.nih.gov/research/umls/rxnorm","code":"3640"}]},"subject":{"reference":"Patient/a8e78694-b3db-4041-8c49-20bade94cb92"},"effectiveDateTime":"2022-04-13T00:00:00+00:00","dosage":[{"doseAndRate":[{"doseQuantity":{"value":5.2,"unit":"TAB","system":"http://terminology.hl7.org/CodeSystem/v3-orderableDrugForm","code":"TAB"}}]}]},"request":{"method":"POST","url":"MedicationStatement"}},{"fullUrl":"MedicationStatement/df76257a-114f-4599-acd5-62bbd813eaeb","resource":{"resourceType":"MedicationStatement","id":"df76257a-114f-4599-acd5-62bbd813eaeb","status":"completed","medicationCodeableConcept":{"coding":[{"system":"http://www.nlm.nih.gov/research/umls/rxnorm","code":"2193"}]},"subject":{"reference":"Patient/a8e78694-b3db-4041-8c49-20bade94cb92"},"effectiveDateTime":"2022-07-01T00:00:00+00:00","dosage":[{"doseAndRate":[{"doseQuantity":{"value":5.1,"unit":"TAB","system":"http://terminology.hl7.org/CodeSystem/v3-orderableDrugForm","code":"TAB"}}]}]},"request":{"method":"POST","url":"MedicationStatement"}},{"fullUrl":"Encounter/c4a71c8c-badf-4e8f-8303-05692233e3f4","resource":{"resourceType":"Encounter","id":"c4a71c8c-badf-4e8f-8303-05692233e3f4","status":"finished","class":{"system":"http://terminology.hl7.org/CodeSystem/v3-ActCode","code":"IMP","display":"inpatient encounter"},"type":[{"coding":[{"system":"http://terminology.hl7.org/CodeSystem/encounter-type","code":"OKI"}]}],"subject":{"reference":"Patient/a8e78694-b3db-4041-8c49-20bade94cb92"},"period":{"start":"2022-04-13T00:00:00+00:00","end":"2022-04-21T00:00:00+00:00"}},"request":{"method":"POST","url":"Encounter"}},{"fullUrl":"Encounter/1258f605-6e05-4105-a341-376df4ef499f","resource":{"resourceType":"Encounter","id":"1258f605-6e05-4105-a341-376df4ef499f","status":"finished","class":{"system":"http://terminology.hl7.org/CodeSystem/v3-ActCode","code":"IMP","display":"inpatient encounter"},"type":[{"coding":[{"system":"http://terminology.hl7.org/CodeSystem/encounter-type","code":"BD/BM-clin"}]}],"subject":{"reference":"Patient/a8e78694-b3db-4041-8c49-20bade94cb92"},"period":{"start":"2022-03-03T00:00:00+00:00","end":"2022-03-07T00:00:00+00:00"}},"request":{"method":"POST","url":"Encounter"}},{"fullUrl":"Encounter/34c18e70-ad3c-4b86-bf53-1c58ee26370c","resource":{"resourceType":"Encounter","id":"34c18e70-ad3c-4b86-bf53-1c58ee26370c","status":"finished","class":{"system":"http://terminology.hl7.org/CodeSystem/v3-ActCode","code":"EMER","display":"emergency"},"type":[{"coding":[{"system":"http://terminology.hl7.org/CodeSystem/encounter-type","code":"BD/BM-clin"}]}],"subject":{"reference":"Patient/a8e78694-b3db-4041-8c49-20bade94cb92"},"period":{"start":"2022-05-28T00:00:00+00:00","end":"2022-06-03T00:00:00+00:00"}},"request":{"method":"POST","url":"Encounter"}},{"fullUrl":"Encounter/d622c85a-b62f-44ca-abc5-717edcdc8ebd","resource":{"resourceType":"Encounter","id":"d622c85a-b62f-44ca-abc5-717edcdc8ebd","status":"finished","class":{"system":"http://terminology.hl7.org/CodeSystem/v3-ActCode","code":"SS","display":"short-stay"},"type":[{"coding":[{"system":"http://terminology.hl7.org/CodeSystem/encounter-type","code":"BD/BM-clin"}]}],"subject":{"reference":"Patient/a8e78694-b3db-4041-8c49-20bade94cb92"},"period":{"start":"2022-12-19T00:00:00+00:00","end":"2022-12-27T00:00:00+00:00"}},"request":{"method":"POST","url":"Encounter"}},{"fullUrl":"Encounter/5f804a48-3ac6-47c9-a81b-817e4a63a2e8","resource":{"resourceType":"Encounter","id":"5f804a48-3ac6-47c9-a81b-817e4a63a2e8","status":"finished","class":{"system":"http://terminology.hl7.org/CodeSystem/v3-ActCode","code":"EMER","display":"emergency"},"type":[{"coding":[{"system":"http://terminology.hl7.org/CodeSystem/encounter-type","code":"ADMS"}]}],"subject":{"reference":"Patient/a8e78694-b3db-4041-8c49-20bade94cb92"},"period":{"start":"2022-07-09T00:00:00+00:00","end":"2022-07-18T00:00:00+00:00"}},"request":{"method":"POST","url":"Encounter"}}]}