{"resourceType":"Bundle","id":"125a3173-1d90-46e5-8f81-4edc55287ec4","type":"transaction","entry":[{"fullUrl":"Patient/646eaa71-60a8-4511-abf8-35d1de7227f1","resource":{"resourceType":"Patient","id":"646eaa71-60a8-4511-abf8-35d1de7227f1","identifier":[{"type":{"coding":[{"system":"http://terminology.hl7.org/CodeSystem/v2-0203","code":"MR"}]},"system":"urn:fhirgen:mrn","value":"011-66-1160"}],"name":[{"family":"Kaufman","given":["Austin"]}],"gender":"male","birthDate":"1965-11-26","address":[{"line":["8318 Nicholas Summit Suite 123"],"city":"Lake Ryan","state":"Washington"}]},"request":{"method":"POST","url":"Patient"}},{"fullUrl":"Observation/f5eba83f-8921-4b03-8e12-1815b9a3714c","resource":{"resourceType":"Observation","id":"f5eba83f-8921-4b03-8e12-1815b9a3714c","status":"final","code":{"coding":[{"system":"http://loinc.org","code":"71793-4"}]},"subject":{"reference":"Patient/646eaa71-60a8-4511-abf8-35d1de7227f1"},"effectiveDateTime":"2022-02-03T00:00:00+00:00","valueRatio":{"numerator":{"value":1.0},"denominator":{"value":64.0}}},"request":{"method":"POST","url":"Observation"}},{"fullUrl":"Observation/a1eb68ea-e11b-445e-9ead-af526c3a4365","resource":{"resourceType":"Observation","id":"a1eb68ea-e11b-445e-9ead-af526c3a4365","status":"final","code":{"coding":[{"system":"http://loinc.org","code":"11084-1"}]},"subject":{"reference":"Patient/646eaa71-60a8-4511-abf8-35d1de7227f1"},"effectiveDateTime":"2022-09-20T00:00:00+00:00","valueRatio":{"numerator":{"value":1.0},"denominator":{"value":4.0}}},"request":{"method":"POST","url":"Observation"}},{"fullUrl":"Observation/3a96f82f-3fd1-40f8-94b4-fb485fdf431c","resource":{"resourceType":"Observation","id":"3a96f82f-3fd1-40f8-94b4-fb485fdf431c","status":"final","code":{"coding":[{"system":"http://loinc.org","code":"87925-4"}]},"subject":{"reference":"Patient/646eaa71-60a8-4511-abf8-35d1de7227f1"},"effectiveDateTime":"2022-01-06T00:00:00+00:00","valueRatio":{"numerator":{"value":1.0},"denominator":{"value":64.0}}},"request":{"method":"POST","url":"Observation"}},{"fullUrl":"Condition/34d439ad-1938-4a06-a9b6-0347cef664e8","resource":{"resourceType":"Condition","id":"34d439ad-1938-4a06-a9b6-0347cef664e8","code":{"coding":[{"system":"http://snomed.info/sct","code":"386661006"}]},"subject":{"reference":"Patient/646eaa71-60a8-4511-abf8-35d1de7227f1"},"onsetDateTime":"2022-05-06T00:00:00+00:00"},"request":{"method":"POST","url":"Condition"}},{"fullUrl":"Condition/af2f606c-c80d-4ac1-b111-a5882a02757e","resource":{"resourceType":"Condition","id":"af2f606c-c80d-4ac1-b111-a5882a02757e","code":{"coding":[{"system":"http://snomed.info/sct","code":"386661006"}]},"subject":{"reference":"Patient/646eaa71-60a8-4511-abf8-35d1de7227f1"},"onsetDateTime":"2022-08-05T00:00:00+00:00"},"request":{"method":"POST","url":"Condition"}},{"fullUrl":"Condition/a3719663-e05b-42fc-a4b7-5603167e58f7","resource":{"resourceType":"Condition","id":"a3719663-e05b-42fc-a4b7-5603167e58f7","code":{"coding":[{"system":"http://snomed.info/sct","code":"44882003"}]},"subject":{"reference":"Patient/646eaa71-60a8-4511-abf8-35d1de7227f1"},"onsetDateTime":"2022-09-10T00:00:00+00:00"},"request":{"method":"POST","url":"Condition"}},{"fullUrl":"Observation/c4ddad04-7f84-43a8-9d45-8953c292414f","resource":{"resourceType":"Observation","id":"c4ddad04-7f84-43a8-9d45-8953c292414f","status":"final","code":{"coding":[{"system":"http://loinc.org","code":"6690-2"}]},"subject":{"reference":"Patient/646eaa71-60a8-4511-abf8-35d1de7227f1"},"effectiveDateTime":"2022-04-29T00:00:00+00:00","valueQuantity":{"value":5.5}},"request":{"method":"POST","url":"Observation"}},{"fullUrl":"Observation/885129ba-0d90-426b-bf47-6b8739a17582","resource":{"resourceType":"Observation","id":"885129ba-0d90-426b-bf47-6b8739a17582","status":"final","code":{"coding":[{"system":"http://loinc.org","code":"6690-2"}]},"subject":{"reference":"Patient/646eaa71-60a8-4511-abf8-35d1de7227f1"},"effectiveDateTime":"2022-06-16T00:00:00+00:00","valueQuantity":{"value":9.0}},"request":{"method":"POST","url":"Observation"}},{"fullUrl":"Observation/facd1976-1e84-41d2-8858-26eaa1cc717c","resource":{"resourceType":"Observation","id":"facd1976-1e84-41d2-8858-26eaa1cc717c","status":"final","code":{"coding":[{"system":"http://loinc.org","code":"804-5"}]},"subject":{"reference":"Patient/646eaa71-60a8-4511-abf8-35d1de7227f1"},"effectiveDateTime":"2022-11-07T00:00:00+00:00","valueQuantity":{"value":10.6}},"request":{"method":"POST","url":"Observation"}},{"fullUrl":"Procedure/d31e9001-d58c-4a7a-a465-bba4693d80aa","resource":{"resourceType":"Procedure","id":"d31e9001-d58c-4a7a-a465-bba4693d80aa","status":"completed","code":{"coding":[{"system":"http://snomed.info/sct","code":"647000"}]},"subject":{"reference":"Patient/646eaa71-60a8-4511-abf8-35d1de7227f1"},"performedDateTime":"2022-07-30T00:00:00+00:00"},"request":{"method":"POST","url":"Procedure"}},{"fullUrl":"Procedure/fdb31689-a757-492d-94d2-d5959012e1c3","resource":{"resourceType":"Procedure","id":"fdb31689-a757-492d-94d2-d5959012e1c3","status":"completed","code":{"coding":[{"system":"http://snomed.info/sct","code":"104001"}]},"subject":{"reference":"Patient/646eaa71-60a8-4511-abf8-35d1de7227f1"},"performedDateTime":"2022-06-20T00:00:00+00:00"},"request":{"method":"POST","url":"Procedure"}},{"fullUrl":"Procedure/8af6ec19-a9d2-4036-b151-5763fc4a7809","resource":{"resourceType":"Procedure","id":"8af6ec19-a9d2-4036-b151-5763fc4a7809","status":"completed","code":{"coding":[{"system":"http://snomed.info/sct","code":"146005"}]},"subject":{"reference":"Patient/646eaa71-60a8-4511-abf8-35d1de7227f1"},"performedDateTime":"2022-03-12T00:00:00+00:00"},"request":{"method":"POST","url":"Procedure"}},{"fullUrl":"MedicationStatement/dedad81d-ad96-451b-88d5-084fbae158b9","resource":{"resourceType":"MedicationStatement","id":"dedad81d-ad96-451b-88d5-084fbae158b9","status":"completed","medicationCodeableConcept":{"coding":[{"system":"http://www.nlm.nih.gov/research/umls/rxnorm","code":"10395"}]},"subject":{"reference":"Patient/646eaa71-60a8-4511-abf8-35d1de7227f1"},"effectiveDateTime":"2022-10-15T00:00:00+00:00","dosage":[{"doseAndRate":[{"doseQuantity":{"value":1.0,"unit":"TAB","system":"http://terminology.hl7.org/CodeSystem/v3-orderableDrugForm","code":"TAB"}}]}]},"request":{"method":"POST","url":"MedicationStatement"}},{"fullUrl":"MedicationStatement/afffdf3a-8370-48b4-8721-78832c759aca","resource":{"resourceType":"MedicationStatement","id":"afffdf3a-8370-48b4-8721-78832c759aca","status":"completed","medicationCodeableConcept":{"coding":[{"system":"http://www.nlm.nih.gov/research/umls/rxnorm","code":"10395"}]},"subject":{"reference":"Patient/646eaa71-60a8-4511-abf8-35d1de7227f1"},"effectiveDateTime":"2022-10-02T00:00:00+00:00","dosage":[{"doseAndRate":[{"doseQuantity":{"value":6.6,"unit":"TAB","system":"http://terminology.hl7.org/CodeSystem/v3-orderableDrugForm","code":"TAB"}}]}]},"request":{"method":"POST","url":"MedicationStatement"}},{"fullUrl":"MedicationStatement/c2bdcb93-dd36-43e3-8a11-5e49581b2b71","resource":{"resourceType":"MedicationStatement","id":"c2bdcb93-dd36-43e3-8a11-5e49581b2b71","status":"completed","medicationCodeableConcept":{"coding":[{"system":"http://www.nlm.nih.gov/research/umls/rxnorm","code":"7980"}]},"subject":{"reference":"Patient/646eaa71-60a8-4511-abf8-35d1de7227f1"},"effectiveDateTime":"2022-07-02T00:00:00+00:00","dosage":[{"doseAndRate":[{"doseQuantity":{"value":6.0,"unit":"TAB","system":"http://terminology.hl7.org/CodeSystem/v3-orderableDrugForm","code":"TAB"}}]}]},"request":{"method":"POST","url":"MedicationStatement"}},{"fullUrl":"MedicationStatement/db5f7dfb-6765-4798-8cba-cefafe7d5a04","resource":{"resourceType":"MedicationStatement","id":"db5f7dfb-6765-4798-8cba-cefafe7d5a04","status":"completed","medicationCodeableConcept":{"coding":[{"system":"http://www.nlm.nih.gov/research/umls/rxnorm","code":"7984"}]},"subject":{"reference":"Patient/646eaa71-60a8-4511-abf8-35d1de7227f1"},"effectiveDateTime":"2022-11-12T00:00:00+00:00","dosage":[{"doseAndRate":[{"doseQuantity":{"value":3.1,"unit":"TAB","system":"http://terminology.hl7.org/CodeSystem/v3-orderableDrugForm","code":"TAB"}}]}]},"request":{"method":"POST","url":"MedicationStatement"}},{"fullUrl":"MedicationStatement/8445d942-d185-426f-a13a-788f67e6cfc7","resource":{"resourceType":"MedicationStatement","id":"8445d942-d185-426f-a13a-788f67e6cfc7","status":"completed","medicationCodeableConcept":{"coding":[{"system":"http://www.nlm.nih.gov/research/umls/rxnorm","code":"10395"}]},"subject":{"reference":"Patient/646eaa71-60a8-4511-abf8-35d1de7227f1"},"effectiveDateTime":"2022-09-10T00:00:00+00:00","dosage":[{"doseAndRate":[{"doseQuantity":{"value":3.7,"unit":"TAB","system":"http://terminology.hl7.org/CodeSystem/v3-orderableDrugForm","code":"TAB"}}]}]},"request":{"method":"POST","url":"MedicationStatement"}},{"fullUrl":"MedicationStatement/14f66210-b943-442f-8308-1b0f23011918","resource":{"resourceType":"MedicationStatement","id":"14f66210-b943-442f-8308-1b0f23011918","status":"completed","medicationCodeableConcept":{"coding":[{"system":"http://www.nlm.nih.gov/research/umls/rxnorm","code":"2193"}]},"subject":{"reference":"Patient/646eaa71-60a8-4511-abf8-35d1de7227f1"},"effectiveDateTime":"2022-11-07T00:00:00+00:00","dosage":[{"doseAndRate":[{"doseQuantity":{"value":6.3,"unit":"TAB","system":"http://terminology.hl7.org/CodeSystem/v3-orderableDrugForm","code":"TAB"}}]}]},"request":{"method":"POST","url":"MedicationStatement"}},{"fullUrl":"Encounter/d773e3bf-915d-4c51-a11e-1bbb0e063a99","resource":{"resourceType":"Encounter","id":"d773e3bf-915d-4c51-a11e-1bbb0e063a99","status":"finished","class":{"system":"http://terminology.hl7.org/CodeSystem/v3-ActCode","code":"IMP","display":"inpatient encounter"},"type":[{"coding":[{"system":"http://terminology.hl7.org/CodeSystem/encounter-type","code":"ADMS"}]}],"subject":{"reference":"Patient/646eaa71-60a8-4511-abf8-35d1de7227f1"},"period":{"start":"2022-04-04T00:00:00+00:00","end":"2022-04-13T00:00:00+00:00"}},"request":{"method":"POST","url":"Encounter"}},{"fullUrl":"Encounter/9dede1bc-dd56-412d-bc51-b5cc7a94de36","resource":{"resourceType":"Encounter","id":"9dede1bc-dd56-412d-bc51-b5cc7a94de36","status":"finished","class":{"system":"http://terminology.hl7.org/CodeSystem/v3-ActCode","code":"IMP","display":"inpatient encounter"},"type":[{"coding":[{"system":"http://terminology.hl7.org/CodeSystem/encounter-type","code":"CCS60"}]}],"subject":{"reference":"Patient/646eaa71-60a8-4511-abf8-35d1de7227f1"},"period":{"start":"2022-07-30T00:00:00+00:00","end":"2022-08-04T00:00:00+00:00"}},"request":{"method":"POST","url":"Encounter"}},{"fullUrl":"Encounter/15289509-f29f-40ba-ba45-c28f0cf35828","resource":{"resourceType":"Encounter","id":"15289509-f29f-40ba-ba45-c28f0cf35828","status":"finished","class":{"system":"http://terminology.hl7.org/CodeSystem/v3-ActCode","code":"IMP","display":"inpatient encounter"},"type":[{"coding":[{"system":"http://terminology.hl7.org/CodeSystem/encounter-type","code":"OKI"}]}],"subject":{"reference":"Patient/646eaa71-60a8-4511-abf8-35d1de7227f1"},"period":{"start":"2022-03-15T00:00:00+00:00","end":"2022-03-18T00:00:00+00:00"}},"request":{"method":"POST","url":"Encounter"}},{"fullUrl":"Encounter/f36c99ec-d64f-4b13-94c6-b2a6277399d2","resource":{"resourceType":"Encounter","id":"f36c99ec-d64f-4b13-94c6-b2a6277399d2","status":"finished","class":{"system":"http://terminology.hl7.org/CodeSystem/v3-ActCode","code":"VR","display":"virtual"},"type":[{"coding":[{"system":"http://terminology.hl7.org/CodeSystem/encounter-type","code":"CCS60"}]}],"subject":{"reference":"Patient/646eaa71-60a8-4511-abf8-35d1de7227f1"},"period":{"start":"2022-12-30T00:00:00+00:00","end":"2023-01-05T00:00:00+00:00"}},"request":{"method":"POST","url":"Encounter"}},{"fullUrl":"Encounter/37bec2bd-5218-4c85-b58c-50195a4c83ac","resource":{"resourceType":"Encounter","id":"37bec2bd-5218-4c85-b58c-50195a4c83ac","status":"finished","class":{"system":"http://terminology.hl7.org/CodeSystem/v3-ActCode","code":"OBSENC","display":"observation encounter"},"type":[{"coding":[{"system":"http://terminology.hl7.org/CodeSystem/encounter-type","code":"CCS60"}]}],"subject":{"reference":"Patient/646eaa71-60a8-4511-abf8-35d1de7227f1"},"period":{"start":"2022-06-13T00:00:00+00:00","end":"2022-06-20T00:00:00+00:00"}},"request":{"method":"POST","url":"Encounter"}},{"fullUrl":"Patient/68b3ad3d-5d62-4b45-8d5c-8a0e7d66f7df","resource":{"resourceType":"Patient","id":"68b3ad3d-5d62-4b45-8d5c-8a0e7d66f7df","identifier":[{"type":{"coding":[{"system":"http://terminology.hl7.org/CodeSystem/v2-0203","code":"MR"}]},"system":"urn:fhirgen:mrn","value":"872-44-2796"}],"name":[{"family":"Richardson","given":["Frederick"]}],"gender":"male","birthDate":"1967-03-20","address":[{"line":["555 Timothy Villages Suite 123"],"city":"Amytown","state":"Georgia"}]},"request":{"method":"POST","url":"Patient"}},{"fullUrl":"Observation/e220d309-85b1-46aa-8631-2cb445711305","resource":{"resourceType":"Observation","id":"e220d309-85b1-46aa-8631-2cb445711305","status":"final","code":{"coding":[{"system":"http://loinc.org","code":"87925-4"}]},"subject":{"reference":"Patient/68b3ad3d-5d62-4b45-8d5c-8a0e7d66f7df"},"effectiveDateTime":"2022-05-04T00:00:00+00:00","valueRatio":{"numerator":{"value":1.0},"denominator":{"value":4.0}}},"request":{"method":"POST","url":"Observation"}},{"fullUrl":"Observation/4dbc6038-8db9-4914-b814-460dfe56d57c","resource":{"resourceType":"Observation","id":"4dbc6038-8db9-4914-b814-460dfe56d57c","status":"final","code":{"coding":[{"system":"http://loinc.org","code":"31146-4"}]},"subject":{"reference":"Patient/68b3ad3d-5d62-4b45-8d5c-8a0e7d66f7df"},"effectiveDateTime":"2022-06-29T00:00:00+00:00","valueRatio":{"numerator":{"value":1.0},"denominator":{"value":64.0}}},"request":{"method":"POST","url":"Observation"}},{"fullUrl":"Condition/0f3aa249-9a6e-4b7c-a7e5-966484fa7020","resource":{"resourceType":"Condition","id":"0f3aa249-9a6e-4b7c-a7e5-966484fa7020","code":{"coding":[{"system":"http://snomed.info/sct","code":"71315007"}]},"subject":{"reference":"Patient/68b3ad3d-5d62-4b45-8d5c-8a0e7d66f7df"},"onsetDateTime":"2022-03-10T00:00:00+00:00"},"request":{"method":"POST","url":"Condition"}},{"fullUrl":"Condition/1c2e7674-95b4-4b58-b0d2-6004bf6ccd89","resource":{"resourceType":"Condition","id":"1c2e7674-95b4-4b58-b0d2-6004bf6ccd89","code":{"coding":[{"system":"http://snomed.info/sct","code":"386661006"}]},"subject":{"reference":"Patient/68b3ad3d-5d62-4b45-8d5c-8a0e7d66f7df"},"onsetDateTime":"2022-03-13T00:00:00+00:00"},"request":{"method":"POST","url":"Condition"}},{"fullUrl":"Condition/fee79374-a433-45fe-97fd-5bb702cafe26","resource":{"resourceType":"Condition","id":"fee79374-a433-45fe-97fd-5bb702cafe26","code":{"coding":[{"system":"http://snomed.info/sct","code":"418290006"}]},"subject":{"reference":"Patient/68b3ad3d-5d62-4b45-8d5c-8a0e7d66f7df"},"onsetDateTime":"2022-03-18T00:00:00+00:00"},"request":{"method":"POST","url":"Condition"}},{"fullUrl":"Condition/357d0c15-0d76-4463-b1f4-f2c77a800540","resource":{"resourceType":"Condition","id":"357d0c15-0d76-4463-b1f4-f2c77a800540","code":{"coding":[{"system":"http://snomed.info/sct","code":"21522001"}]},"subject":{"reference":"Patient/68b3ad3d-5d62-4b45-8d5c-8a0e7d66f7df"},"onsetDateTime":"2022-12-21T00:00:00+00:00"},"request":{"method":"POST","url":"Condition"}},{"fullUrl":"Condition/53bd59ed-87b8-472f-9415-8de1953441c9","resource":{"resourceType":"Condition","id":"53bd59ed-87b8-472f-9415-8de1953441c9","code":{"coding":[{"system":"http://snomed.info/sct","code":"79342006"}]},"subject":{"reference":"Patient/68b3ad3d-5d62-4b45-8d5c-8a0e7d66f7df"},"onsetDateTime":"2022-11-02T00:00:00+00:00"},"request":{"method":"POST","url":"Condition"}},{"fullUrl":"Condition/fd97df44-08f3-41bb-b4c6-d7ea66c14435","resource":{"resourceType":"Condition","id":"fd97df44-08f3-41bb-b4c6-d7ea66c14435","code":{"coding":[{"system":"http://snomed.info/sct","code":"418290006"}]},"subject":{"reference":"Patient/68b3ad3d-5d62-4b45-8d5c-8a0e7d66f7df"},"onsetDateTime":"2022-04-12T00:00:00+00:00"},"request":{"method":"POST","url":"Condition"}},{"fullUrl":"Condition/09167439-b080-458d-9064-0c5ab2ba947e","resource":{"resourceType":"Condition","id":"09167439-b080-458d-9064-0c5ab2ba947e","code":{"coding":[{"system":"http://snomed.info/sct","code":"198199009"}]},"subject":{"reference":"Patient/68b3ad3d-5d62-4b45-8d5c-8a0e7d66f7df"},"onsetDateTime":"2022-03-22T00:00:00+00:00"},"request":{"method":"POST","url":"Condition"}},{"fullUrl":"Condition/022f7e54-8737-4cae-b104-1c85143db6ac","resource":{"resourceType":"Condition","id":"022f7e54-8737-4cae-b104-1c85143db6ac","code":{"coding":[{"system":"http://snomed.info/sct","code":"271939006"}]},"subject":{"reference":"Patient/68b3ad3d-5d62-4b45-8d5c-8a0e7d66f7df"},"onsetDateTime":"2022-12-30T00:00:00+00:00"},"request":{"method":"POST","url":"Condition"}},{"fullUrl":"Observation/889bc585-bf80-492b-9854-cbf268040303","resource":{"resourceType":"Observation","id":"889bc585-bf80-492b-9854-cbf268040303","status":"final","code":{"coding":[{"system":"http://www.ama-assn.org/go/cpt","code":"85048"}]},"subject":{"reference":"Patient/68b3ad3d-5d62-4b45-8d5c-8a0e7d66f7df"},"effectiveDateTime":"2022-07-05T00:00:00+00:00","valueQuantity":{"value":10.3}},"request":{"method":"POST","url":"Observation"}},{"fullUrl":"Observation/33e4e53e-ffe5-4f6e-8c0e-3e7536cd7ff3","resource":{"resourceType":"Observation","id":"33e4e53e-ffe5-4f6e-8c0e-3e7536cd7ff3","status":"final","code":{"coding":[{"system":"http://loinc.org","code":"26464-8"}]},"subject":{"reference":"Patient/68b3ad3d-5d62-4b45-8d5c-8a0e7d66f7df"},"effectiveDateTime":"2022-01-23T00:00:00+00:00","valueQuantity":{"value":4.2}},"request":{"method":"POST","url":"Observation"}},{"fullUrl":"Observation/45e3ed2e-c84a-4965-a547-48bc61c4b222","resource":{"resourceType":"Observation","id":"45e3ed2e-c84a-4965-a547-48bc61c4b222","status":"final","code":{"coding":[{"system":"http://www.ama-assn.org/go/cpt","code":"85048"}]},"subject":{"reference":"Patient/68b3ad3d-5d62-4b45-8d5c-8a0e7d66f7df"},"effectiveDateTime":"2022-06-28T00:00:00+00:00","valueQuantity":{"value":4.1}},"request":{"method":"POST","url":"Observation"}},{"fullUrl":"Procedure/b75df455-9b2d-4418-b0c2-7725da447e25","resource":{"resourceType":"Procedure","id":"b75df455-9b2d-4418-b0c2-7725da447e25","status":"completed","code":{"coding":[{"system":"http://snomed.info/sct","code":"104001"}]},"subject":{"reference":"Patient/68b3ad3d-5d62-4b45-8d5c-8a0e7d66f7df"},"performedDateTime":"2022-02-13T00:00:00+00:00"},"request":{"method":"POST","url":"Procedure"}},{"fullUrl":"Procedure/11f45d15-6dfa-4c99-934d-174c250c5c37","resource":{"resourceType":"Procedure","id":"11f45d15-6dfa-4c99-934d-174c250c5c37","status":"completed","code":{"coding":[{"system":"http://snomed.info/sct","code":"115006"}]},"subject":{"reference":"Patient/68b3ad3d-5d62-4b45-8d5c-8a0e7d66f7df"},"performedDateTime":"2022-07-21T00:00:00+00:00"},"request":{"method":"POST","url":"Procedure"}},{"fullUrl":"Procedure/11c96a48-9385-4602-a8cf-f35a567234ee","resource":{"resourceType":"Procedure","id":"11c96a48-9385-4602-a8cf-f35a567234ee","status":"completed","code":{"coding":[{"system":"http://snomed.info/sct","code":"189009"}]},"subject":{"reference":"Patient/68b3ad3d-5d62-4b45-8d5c-8a0e7d66f7df"},"performedDateTime":"2022-07-04T00:00:00+00:00"},"request":{"method":"POST","url":"Procedure"}},{"fullUrl":"MedicationStatement/7cb9daf9-7e03-4322-92d6-df27682e5796","resource":{"resourceType":"MedicationStatement","id":"7cb9daf9-7e03-4322-92d6-df27682e5796","status":"completed","medicationCodeableConcept":{"coding":[{"system":"http://www.nlm.nih.gov/research/umls/rxnorm","code":"10395"}]},"subject":{"reference":"Patient/68b3ad3d-5d62-4b45-8d5c-8a0e7d66f7df"},"effectiveDateTime":"2022-10-21T00:00:00+00:00","dosage":[{"doseAndRate":[{"doseQuantity":{"value":1.0,"unit":"TAB","system":"http://terminology.hl7.org/CodeSystem/v3-orderableDrugForm","code":"TAB"}}]}]},"request":{"method":"POST","url":"MedicationStatement"}},{"fullUrl":"MedicationStatement/5bdde4e9-d31d-4a32-a0db-1380bedb0f90","resource":{"resourceType":"MedicationStatement","id":"5bdde4e9-d31d-4a32-a0db-1380bedb0f90","status":"completed","medicationCodeableConcept":{"coding":[{"system":"http://www.nlm.nih.gov/research/umls/rxnorm","code":"7984"}]},"subject":{"reference":"Patient/68b3ad3d-5d62-4b45-8d5c-8a0e7d66f7df"},"effectiveDateTime":"2022-03-08T00:00:00+00:00","dosage":[{"doseAndRate":[{"doseQuantity":{"value":1.0,"unit":"TAB","system":"http://terminology.hl7.org/CodeSystem/v3-orderableDrugForm","code":"TAB"}}]}]},"request":{"method":"POST","url":"MedicationStatement"}},{"fullUrl":"MedicationStatement/da160745-4a86-4dfa-9296-a3ebb07462e3","resource":{"resourceType":"MedicationStatement","id":"da160745-4a86-4dfa-9296-a3ebb07462e3","status":"completed","medicationCodeableConcept":{"coding":[{"system":"http://www.nlm.nih.gov/research/umls/rxnorm","code":"10395"}]},"subject":{"reference":"Patient/68b3ad3d-5d62-4b45-8d5c-8a0e7d66f7df"},"effectiveDateTime":"2022-05-11T00:00:00+00:00","dosage":[{"doseAndRate":[{"doseQuantity":{"value":2.0,"unit":"TAB","system":"http://terminology.hl7.org/CodeSystem/v3-orderableDrugForm","code":"TAB"}}]}]},"request":{"method":"POST","url":"MedicationStatement"}},{"fullUrl":"MedicationStatement/13c53d61-4f97-496b-8da7-5b04a2d84a58","resource":{"resourceType":"MedicationStatement","id":"13c53d61-4f97-496b-8da7-5b04a2d84a58","status":"completed","medicationCodeableConcept":{"coding":[{"system":"http://www.nlm.nih.gov/research/umls/rxnorm","code":"8698"}]},"subject":{"reference":"Patient/68b3ad3d-5d62-4b45-8d5c-8a0e7d66f7df"},"effectiveDateTime":"2022-03-13T00:00:00+00:00","dosage":[{"doseAndRate":[{"doseQuantity":{"value":2.0,"unit":"TAB","system":"http://terminology.hl7.org/CodeSystem/v3-orderableDrugForm","code":"TAB"}}]}]},"request":{"method":"POST","url":"MedicationStatement"}},{"fullUrl":"MedicationStatement/ea026240-b5be-4c34-9588-61adc5e5abe6","resource":{"resourceType":"MedicationStatement","id":"ea026240-b5be-4c34-9588-61adc5e5abe6","status":"completed","medicationCodeableConcept":{"coding":[{"system":"http://www.nlm.nih.gov/research/umls/rxnorm","code":"10395"}]},"subject":{"reference":"Patient/68b3ad3d-5d62-4b45-8d5c-8a0e7d66f7df"},"effectiveDateTime":"2022-06-27T00:00:00+00:00","dosage":[{"doseAndRate":[{"doseQuantity":{"value":1.0,"unit":"TAB","system":"http://terminology.hl7.org/CodeSystem/v3-orderableDrugForm","code":"TAB"}}]}]},"request":{"method":"POST","url":"MedicationStatement"}},{"fullUrl":"MedicationStatement/e035ef0f-b972-4aad-9f44-3da4b2b246fe","resource":{"resourceType":"MedicationStatement","id":"e035ef0f-b972-4aad-9f44-3da4b2b246fe","status":"completed","medicationCodeableConcept":{"coding":[{"system":"http://www.nlm.nih.gov/research/umls/rxnorm","code":"2193"}]},"subject":{"reference":"Patient/68b3ad3d-5d62-4b45-8d5c-8a0e7d66f7df"},"effectiveDateTime":"2022-01-12T00:00:00+00:00","dosage":[{"doseAndRate":[{"doseQuantity":{"value":1.0,"unit":"TAB","system":"http://terminology.hl7.org/CodeSystem/v3-orderableDrugForm","code":"TAB"}}]}]},"request":{"method":"POST","url":"MedicationStatement"}},{"fullUrl":"MedicationStatement/e7f41cde-881f-4f16-93df-f7b78315e8e9","resource":{"resourceType":"MedicationStatement","id":"e7f41cde-881f-4f16-93df-f7b78315e8e9","status":"completed","medicationCodeableConcept":{"coding":[{"system":"http://www.nlm.nih.gov/research/umls/rxnorm","code":"3640"}]},"subject":{"reference":"Patient/68b3ad3d-5d62-4b45-8d5c-8a0e7d66f7df"},"effectiveDateTime":"2022-12-13T00:00:00+00:00","dosage":[{"doseAndRate":[{"doseQuantity":{"value":2.0,"unit":"TAB","system":"http://terminology.hl7.org/CodeSystem/v3-orderableDrugForm","code":"TAB"}}]}]},"request":{"method":"POST","url":"MedicationStatement"}},{"fullUrl":"MedicationStatement/be28fc3e-335d-46bc-949c-4c3cce1fa5f5","resource":{"resourceType":"MedicationStatement","id":"be28fc3e-335d-46bc-949c-4c3cce1fa5f5","status":"completed","medicationCodeableConcept":{"coding":[{"system":"http://www.nlm.nih.gov/research/umls/rxnorm","code":"8698"}]},"subject":{"reference":"Patient/68b3ad3d-5d62-4b45-8d5c-8a0e7d66f7df"},"effectiveDateTime":"2022-04-30T00:00:00+00:00","dosage":[{"doseAndRate":[{"doseQuantity":{"value":2.0,"unit":"TAB","system":"http://terminology.hl7.org/CodeSystem/v3-orderableDrugForm","code":"TAB"}}]}]},"request":{"method":"POST","url":"MedicationStatement"}},{"fullUrl":"MedicationStatement/f4a1ce45-b8f9-412b-b300-7ae413d2041c","resource":{"resourceType":"MedicationStatement","id":"f4a1ce45-b8f9-412b-b300-7ae413d2041c","status":"completed","medicationCodeableConcept":{"coding":[{"system":"http://www.nlm.nih.gov/research/umls/rxnorm","code":"8698"}]},"subject":{"reference":"Patient/68b3ad3d-5d62-4b45-8d5c-8a0e7d66f7df"},"effectiveDateTime":"2022-12-07T00:00:00+00:00","dosage":[{"doseAndRate":[{"doseQuantity":{"value":4.8,"unit":"TAB","system":"http://terminology.hl7.org/CodeSystem/v3-orderableDrugForm","code":"TAB"}}]}]},"request":{"method":"POST","url":"MedicationStatement"}},{"fullUrl":"Encounter/292deeea-fc5e-4c05-af41-70b363893553","resource":{"resourceType":"Encounter","id":"292deeea-fc5e-4c05-af41-70b363893553","status":"finished","class":{"system":"http://terminology.hl7.org/CodeSystem/v3-ActCode","code":"IMP","display":"inpatient encounter"},"type":[{"coding":[{"system":"http://terminology.hl7.org/CodeSystem/encounter-type","code":"OKI"}]}],"subject":{"reference":"Patient/68b3ad3d-5d62-4b45-8d5c-8a0e7d66f7df"},"period":{"start":"2022-12-20T00:00:00+00:00","end":"2022-12-21T00:00:00+00:00"}},"request":{"method":"POST","url":"Encounter"}},{"fullUrl":"Encounter/b13023aa-22bd-483e-ac62-907bd28b4f7d","resource":{"resourceType":"Encounter","id":"b13023aa-22bd-483e-ac62-907bd28b4f7d","status":"finished","class":{"system":"http://terminology.hl7.org/CodeSystem/v3-ActCode","code":"IMP","display":"inpatient encounter"},"type":[{"coding":[{"system":"http://terminology.hl7.org/CodeSystem/encounter-type","code":"ADMS"}]}],"subject":{"reference":"Patient/68b3ad3d-5d62-4b45-8d5c-8a0e7d66f7df"},"period":{"start":"2022-01-13T00:00:00+00:00","end":"2022-01-14T00:00:00+00:00"}},"request":{"method":"POST","url":"Encounter"}},{"fullUrl":"Encounter/e7f48a76-6d6d-48fe-82c4-85f3dea75c21","resource":{"resourceType":"Encounter","id":"e7f48a76-6d6d-48fe-82c4-85f3dea75c21","status":"finished","class":{"system":"http://terminology.hl7.org/CodeSystem/v3-ActCode","code":"IMP","display":"inpatient encounter"},"type":[{"coding":[{"system":"http://terminology.hl7.org/CodeSystem/encounter-type","code":"OKI"}]}],"subject":{"reference":"Patient/68b3ad3d-5d62-4b45-8d5c-8a0e7d66f7df"},"period":{"start":"2022-08-05T00:00:00+00:00","end":"2022-08-08T00:00:00+00:00"}},"request":{"method":"POST","url":"Encounter"}},{"fullUrl":"Encounter/a4b01c43-5d44-44b7-a7c3-06ab4490edb6","resource":{"resourceType":"Encounter","id":"a4b01c43-5d44-44b7-a7c3-06ab4490edb6","status":"finished","class":{"system":"http://terminology.hl7.org/CodeSystem/v3-ActCode","code":"FLD","display":"field"},"type":[{"coding":[{"system":"http://terminology.hl7.org/CodeSystem/encounter-type","code":"BD/BM-clin"}]}],"subject":{"reference":"Patient/68b3ad3d-5d62-4b45-8d5c-8a0e7d66f7df"},"period":{"start":"2022-01-30T00:00:00+00:00","end":"2022-01-30T00:00:00+00:00"}},"request":{"method":"POST","url":"Encounter"}},{"fullUrl":"Encounter/7f22b0fa-b258-4a07-a96e-65af293f0336","resource":{"resourceType":"Encounter","id":"7f22b0fa-b258-4a07-a96e-65af293f0336","status":"finished","class":{"system":"http://terminology.hl7.org/CodeSystem/v3-ActCode","code":"VR","display":"virtual"},"type":[{"coding":[{"system":"http://terminology.hl7.org/CodeSystem/encounter-type","code":"OKI"}]}],"subject":{"reference":"Patient/68b3ad3d-5d62-4b45-8d5c-8a0e7d66f7df"},"period":{"start":"2022-10-25T00:00:00+00:00","end":"2022-10-27T00:00:00+00:00"}},"request":{"method":"POST","url":"Encounter"}},{"fullUrl":"Patient/231a6028-327e-4322-a4cf-17ff4fd1f65c","resource":{"resourceType":"Patient","id":"231a6028-327e-4322-a4cf-17ff4fd1f65c","identifier":[{"type":{"coding":[{"system":"http://terminology.hl7.org/CodeSystem/v2-0203","code":"MR"}]},"system":"urn:fhirgen:mrn","value":"396-20-0922"}],"name":[{"family":"Greene","given":["Erin"]}],"gender":"female","birthDate":"1948-07-09","address":[{"line":["1002 Woodward Canyon"],"city":"Mooneytown","state":"Colorado"}]},"request":{"method":"POST","url":"Patient"}},{"fullUrl":"Observation/514a2f1c-ee9c-4c9f-bf72-2fa4baea5b80","resource":{"resourceType":"Observation","id":"514a2f1c-ee9c-4c9f-bf72-2fa4baea5b80","status":"final","code":{"coding":[{"system":"http://loinc.org","code":"11084-1"}]},"subject":{"reference":"Patient/231a6028-327e-4322-a4cf-17ff4fd1f65c"},"effectiveDateTime":"2022-07-05T00:00:00+00:00","valueRatio":{"numerator":{"value":1.0},"denominator":{"value":4.0}}},"request":{"method":"POST","url":"Observation"}},{"fullUrl":"Observation/94c85c2b-4bb4-42ec-9d51-d29cc557a4dd","resource":{"resourceType":"Observation","id":"94c85c2b-4bb4-42ec-9d51-d29cc557a4dd","status":"final","code":{"coding":[{"system":"http://loinc.org","code":"31146-4"}]},"subject":{"reference":"Patient/231a6028-327e-4322-a4cf-17ff4fd1f65c"},"effectiveDateTime":"2022-05-22T00:00:00+00:00","valueRatio":{"numerator":{"value":1.0},"denominator":{"value":4.0}}},"request":{"method":"POST","url":"Observation"}},{"fullUrl":"Condition/fdb334ae-8a28-4b7c-9e49-c24bbc6b6911","resource":{"resourceType":"Condition","id":"fdb334ae-8a28-4b7c-9e49-c24bbc6b6911","code":{"coding":[{"system":"http://snomed.info/sct","code":"44882003"}]},"subject":{"reference":"Patient/231a6028-327e-4322-a4cf-17ff4fd1f65c"},"onsetDateTime":"2022-03-09T00:00:00+00:00"},"request":{"method":"POST","url":"Condition"}},{"fullUrl":"Condition/28ebfe6c-851e-4a58-8465-a4c8431ff336","resource":{"resourceType":"Condition","id":"28ebfe6c-851e-4a58-8465-a4c8431ff336","code":{"coding":[{"system":"http://snomed.info/sct","code":"79342006"}]},"subject":{"reference":"Patient/231a6028-327e-4322-a4cf-17ff4fd1f65c"},"onsetDateTime":"2022-07-07T00:00:00+00:00"},"request":{"method":"POST","url":"Condition"}},{"fullUrl":"Condition/a4222a74-7a8e-4b2f-b3ca-aa2a75f5f760","resource":{"resourceType":"Condition","id":"a4222a74-7a8e-4b2f-b3ca-aa2a75f5f760","code":{"coding":[{"system":"http://snomed.info/sct","code":"198199009"}]},"subject":{"reference":"Patient/231a6028-327e-4322-a4cf-17ff4fd1f65c"},"onsetDateTime":"2022-07-29T00:00:00+00:00"},"request":{"method":"POST","url":"Condition"}},{"fullUrl":"Condition/6337e60e-d1be-4044-96e7-14686f2e91d8","resource":{"resourceType":"Condition","id":"6337e60e-d1be-4044-96e7-14686f2e91d8","code":{"coding":[{"system":"http://snomed.info/sct","code":"44882003"}]},"subject":{"reference":"Patient/231a6028-327e-4322-a4cf-17ff4fd1f65c"},"onsetDateTime":"2022-06-04T00:00:00+00:00"},"request":{"method":"POST","url":"Condition"}},{"fullUrl":"Condition/e7539040-85f2-4498-8896-d4ee60c0fbf7","resource":{"resourceType":"Condition","id":"e7539040-85f2-4498-8896-d4ee60c0fbf7","code":{"coding":[{"system":"http://snomed.info/sct","code":"198199009"}]},"subject":{"reference":"Patient/231a6028-327e-4322-a4cf-17ff4fd1f65c"},"onsetDateTime":"2022-03-16T00:00:00+00:00"},"request":{"method":"POST","url":"Condition"}},{"fullUrl":"Observation/fc1a2ae4-9275-4372-837f-10bef66a4b6b","resource":{"resourceType":"Observation","id":"fc1a2ae4-9275-4372-837f-10bef66a4b6b","status":"final","code":{"coding":[{"system":"http://loinc.org","code":"26464-8"}]},"subject":{"reference":"Patient/231a6028-327e-4322-a4cf-17ff4fd1f65c"},"effectiveDateTime":"2022-03-05T00:00:00+00:00","valueQuantity":{"value":7.1}},"request":{"method":"POST","url":"Observation"}},{"fullUrl":"Observation/187641cc-bc42-4641-8e7d-fc1c72687eba","resource":{"resourceType":"Observation","id":"187641cc-bc42-4641-8e7d-fc1c72687eba","status":"final","code":{"coding":[{"system":"http://loinc.org","code":"6690-2"}]},"subject":{"reference":"Patient/231a6028-327e-4322-a4cf-17ff4fd1f65c"},"effectiveDateTime":"2022-11-09T00:00:00+00:00","valueQuantity":{"value":6.5}},"request":{"method":"POST","url":"Observation"}},{"fullUrl":"Observation/68823d86-8c29-43d0-9623-f78569cf9937","resource":{"resourceType":"Observation","id":"68823d86-8c29-43d0-9623-f78569cf9937","status":"final","code":{"coding":[{"system":"http://www.ama-assn.org/go/cpt","code":"85048"}]},"subject":{"reference":"Patient/231a6028-327e-4322-a4cf-17ff4fd1f65c"},"effectiveDateTime":"2022-05-04T00:00:00+00:00","valueQuantity":{"value":4.0}},"request":{"method":"POST","url":"Observation"}},{"fullUrl":"Procedure/9cbf111c-2974-4c7f-921c-302f1d33b4a9","resource":{"resourceType":"Procedure","id":"9cbf111c-2974-4c7f-921c-302f1d33b4a9","status":"completed","code":{"coding":[{"system":"http://snomed.info/sct","code":"104001"}]},"subject":{"reference":"Patient/231a6028-327e-4322-a4cf-17ff4fd1f65c"},"performedDateTime":"2022-05-14T00:00:00+00:00"},"request":{"method":"POST","url":"Procedure"}},{"fullUrl":"Procedure/b001f14c-c87f-4bcb-9c7c-2f823cb486b0","resource":{"resourceType":"Procedure","id":"b001f14c-c87f-4bcb-9c7c-2f823cb486b0","status":"completed","code":{"coding":[{"system":"http://snomed.info/sct","code":"146005"}]},"subject":{"reference":"Patient/231a6028-327e-4322-a4cf-17ff4fd1f65c"},"performedDateTime":"2022-03-28T00:00:00+00:00"},"request":{"method":"POST","url":"Procedure"}},{"fullUrl":"Procedure/f5828e9b-40a2-4a8a-b2c1-8338b14c8c27","resource":{"resourceType":"Procedure","id":"f5828e9b-40a2-4a8a-b2c1-8338b14c8c27","status":"completed","code":{"coding":[{"system":"http://snomed.info/sct","code":"104001"}]},"subject":{"reference":"Patient/231a6028-327e-4322-a4cf-17ff4fd1f65c"},"performedDateTime":"2022-03-23T00:00:00+00:00"},"request":{"method":"POST","url":"Procedure"}},{"fullUrl":"MedicationStatement/9c89804a-bba3-4145-97c6-16e14605897d","resource":{"resourceType":"MedicationStatement","id":"9c89804a-bba3-4145-97c6-16e14605897d","status":"completed","medicationCodeableConcept":{"coding":[{"system":"http://www.nlm.nih.gov/research/umls/rxnorm","code":"2193"}]},"subject":{"reference":"Patient/231a6028-327e-4322-a4cf-17ff4fd1f65c"},"effectiveDateTime":"2022-10-13T00:00:00+00:00","dosage":[{"doseAndRate":[{"doseQuantity":{"value":2.0,"unit":"TAB","system":"http://terminology.hl7.org/CodeSystem/v3-orderableDrugForm","code":"TAB"}}]}]},"request":{"method":"POST","url":"MedicationStatement"}},{"fullUrl":"MedicationStatement/dade5ae7-e85e-4087-9a34-5485cddfeb53","resource":{"resourceType":"MedicationStatement","id":"dade5ae7-e85e-4087-9a34-5485cddfeb53","status":"completed","medicationCodeableConcept":{"coding":[{"system":"http://www.nlm.nih.gov/research/umls/rxnorm","code":"18631"}]},"subject":{"reference":"Patient/231a6028-327e-4322-a4cf-17ff4fd1f65c"},"effectiveDateTime":"2022-03-01T00:00:00+00:00","dosage":[{"doseAndRate":[{"doseQuantity":{"value":2.0,"unit":"TAB","system":"http://terminology.hl7.org/CodeSystem/v3-orderableDrugForm","code":"TAB"}}]}]},"request":{"method":"POST","url":"MedicationStatement"}},{"fullUrl":"MedicationStatement/8a0a21c3-3a2c-4b5a-90f0-24d238bee9d9","resource":{"resourceType":"MedicationStatement","id":"8a0a21c3-3a2c-4b5a-90f0-24d238bee9d9","status":"completed","medicationCodeableConcept":{"coding":[{"system":"http://www.nlm.nih.gov/research/umls/rxnorm","code":"10395"}]},"subject":{"reference":"Patient/231a6028-327e-4322-a4cf-17ff4fd1f65c"},"effectiveDateTime":"2022-01-12T00:00:00+00:00","dosage":[{"doseAndRate":[{"doseQuantity":{"value":2.0,"unit":"TAB","system":"http://terminology.hl7.org/CodeSystem/v3-orderableDrugForm","code":"TAB"}}]}]},"request":{"method":"POST","url":"MedicationStatement"}},{"fullUrl":"MedicationStatement/a3ea6296-06d1-43f9-bd03-d28ef394efa8","resource":{"resourceType":"MedicationStatement","id":"a3ea6296-06d1-43f9-bd03-d28ef394efa8","status":"completed","medicationCodeableConcept":{"coding":[{"system":"http://www.nlm.nih.gov/research/umls/rxnorm","code":"18631"}]},"subject":{"reference":"Patient/231a6028-327e-4322-a4cf-17ff4fd1f65c"},"effectiveDateTime":"2022-04-01T00:00:00+00:00","dosage":[{"doseAndRate":[{"doseQuantity":{"value":2.0,"unit":"TAB","system":"http://terminology.hl7.org/CodeSystem/v3-orderableDrugForm","code":"TAB"}}]}]},"request":{"method":"POST","url":"MedicationStatement"}},{"fullUrl":"MedicationStatement/3215a65c-62ba-437d-b08a-8f46c386143b","resource":{"resourceType":"MedicationStatement","id":"3215a65c-62ba-437d-b08a-8f46c386143b","status":"completed","medicationCodeableConcept":{"coding":[{"system":"http://www.nlm.nih.gov/research/umls/rxnorm","code":"10395"}]},"subject":{"reference":"Patient/231a6028-327e-4322-a4cf-17ff4fd1f65c"},"effectiveDateTime":"2022-02-13T00:00:00+00:00","dosage":[{"doseAndRate":[{"doseQuantity":{"value":1.0,"unit":"TAB","system":"http://terminology.hl7.org/CodeSystem/v3-orderableDrugForm","code":"TAB"}}]}]},"request":{"method":"POST","url":"MedicationStatement"}},{"fullUrl":"MedicationStatement/18d274d1-47b4-4062-bc8f-c56b9aa86753","resource":{"resourceType":"MedicationStatement","id":"18d274d1-47b4-4062-bc8f-c56b9aa86753","status":"completed","medicationCodeableConcept":{"coding":[{"system":"http://www.nlm.nih.gov/research/umls/rxnorm","code":"7984"}]},"subject":{"reference":"Patient/231a6028-327e-4322-a4cf-17ff4fd1f65c"},"effectiveDateTime":"2022-11-10T00:00:00+00:00","dosage":[{"doseAndRate":[{"doseQuantity":{"value":1.0,"unit":"TAB","system":"http://terminology.hl7.org/CodeSystem/v3-orderableDrugForm","code":"TAB"}}]}]},"request":{"method":"POST","url":"MedicationStatement"}},{"fullUrl":"MedicationStatement/bdf5c9ce-dd21-4697-a1a3-bc9873c54a00","resource":{"resourceType":"MedicationStatement","id":"bdf5c9ce-dd21-4697-a1a3-bc9873c54a00","status":"completed","medicationCodeableConcept":{"coding":[{"system":"http://www.nlm.nih.gov/research/umls/rxnorm","code":"7984"}]},"subject":{"reference":"Patient/231a6028-327e-4322-a4cf-17ff4fd1f65c"},"effectiveDateTime":"2022-12-07T00:00:00+00:00","dosage":[{"doseAndRate":[{"doseQuantity":{"value":1.0,"unit":"TAB","system":"http://terminology.hl7.org/CodeSystem/v3-orderableDrugForm","code":"TAB"}}]}]},"request":{"method":"POST","url":"MedicationStatement"}},{"fullUrl":"MedicationStatement/037f7ef0-0413-4181-92d8-f7c08b0eba5a","resource":{"resourceType":"MedicationStatement","id":"037f7ef0-0413-4181-92d8-f7c08b0eba5a","status":"completed","medicationCodeableConcept":{"coding":[{"system":"http://www.nlm.nih.gov/research/umls/rxnorm","code":"10395"}]},"subject":{"reference":"Patient/231a6028-327e-4322-a4cf-17ff4fd1f65c"},"effectiveDateTime":"2022-12-06T00:00:00+00:00","dosage":[{"doseAndRate":[{"doseQuantity":{"value":2.0,"unit":"TAB","system":"http://terminology.hl7.org/CodeSystem/v3-orderableDrugForm","code":"TAB"}}]}]},"request":{"method":"POST","url":"MedicationStatement"}},{"fullUrl":"MedicationStatement/ba908a70-d13a-48af-8a7f-91f8a5aca257","resource":{"resourceType":"MedicationStatement","id":"ba908a70-d13a-48af-8a7f-91f8a5aca257","status":"completed","medicationCodeableConcept":{"coding":[{"system":"http://www.nlm.nih.gov/research/umls/rxnorm","code":"7984"}]},"subject":{"reference":"Patient/231a6028-327e-4322-a4cf-17ff4fd1f65c"},"effectiveDateTime":"2022-05-31T00:00:00+00:00","dosage":[{"doseAndRate":[{"doseQuantity":{"value":6.0,"unit":"TAB","system":"http://terminology.hl7.org/CodeSystem/v3-orderableDrugForm","code":"TAB"}}]}]},"request":{"method":"POST","url":"MedicationStatement"}},{"fullUrl":"MedicationStatement/e1d6b4a4-93e6-4b34-9145-330131d19609","resource":{"resourceType":"MedicationStatement","id":"e1d6b4a4-93e6-4b34-9145-330131d19609","status":"completed","medicationCodeableConcept":{"coding":[{"system":"http://www.nlm.nih.gov/research/umls/rxnorm","code":"2193"}]},"subject":{"reference":"Patient/231a6028-327e-4322-a4cf-17ff4fd1f65c"},"effectiveDateTime":"2022-07-31T00:00:00+00:00","dosage":[{"doseAndRate":[{"doseQuantity":{"value":5.9,"unit":"TAB","system":"http://terminology.hl7.org/CodeSystem/v3-orderableDrugForm","code":"TAB"}}]}]},"request":{"method":"POST","url":"MedicationStatement"}},{"fullUrl":"MedicationStatement/fa5bc745-e78e-4c2b-b127-ad20c16f42d2","resource":{"resourceType":"MedicationStatement","id":"fa5bc745-e78e-4c2b-b127-ad20c16f42d2","status":"completed","medicationCodeableConcept":{"coding":[{"system":"http://www.nlm.nih.gov/research/umls/rxnorm","code":"3640"}]},"subject":{"reference":"Patient/231a6028-327e-4322-a4cf-17ff4fd1f65c"},"effectiveDateTime":"2022-02-21T00:00:00+00:00","dosage":[{"doseAndRate":[{"doseQuantity":{"value":3.2,"unit":"TAB","system":"http://terminology.hl7.org/CodeSystem/v3-orderableDrugForm","code":"TAB"}}]}]},"request":{"method":"POST","url":"MedicationStatement"}},{"fullUrl":"MedicationStatement/624b72df-5470-41ba-b908-32c016ec0047","resource":{"resourceType":"MedicationStatement","id":"624b72df-5470-41ba-b908-32c016ec0047","status":"completed","medicationCodeableConcept":{"coding":[{"system":"http://www.nlm.nih.gov/research/umls/rxnorm","code":"8698"}]},"subject":{"reference":"Patient/231a6028-327e-4322-a4cf-17ff4fd1f65c"},"effectiveDateTime":"2022-10-15T00:00:00+00:00","dosage":[{"doseAndRate":[{"doseQuantity":{"value":3.6,"unit":"TAB","system":"http://terminology.hl7.org/CodeSystem/v3-orderableDrugForm","code":"TAB"}}]}]},"request":{"method":"POST","url":"MedicationStatement"}},{"fullUrl":"Encounter/d8aaa806-9510-4208-a19c-7a981293917b","resource":{"resourceType":"Encounter","id":"d8aaa806-9510-4208-a19c-7a981293917b","status":"finished","class":{"system":"http://terminology.hl7.org/CodeSystem/v3-ActCode","code":"IMP","display":"inpatient encounter"},"type":[{"coding":[{"system":"http://terminology.hl7.org/CodeSystem/encounter-type","code":"CCS60"}]}],"subject":{"reference":"Patient/231a6028-327e-4322-a4cf-17ff4fd1f65c"},"period":{"start":"2022-07-29T00:00:00+00:00","end":"2022-08-05T00:00:00+00:00"}},"request":{"method":"POST","url":"Encounter"}},{"fullUrl":"Encounter/ef041c25-b4b8-4fcb-ab50-24a814d1c239","resource":{"resourceType":"Encounter","id":"ef041c25-b4b8-4fcb-ab50-24a814d1c239","status":"finished","class":{"system":"http://terminology.hl7.org/CodeSystem/v3-ActCode","code":"IMP","display":"inpatient encounter"},"type":[{"coding":[{"system":"http://terminology.hl7.org/CodeSystem/encounter-type","code":"ADMS"}]}],"subject":{"reference":"Patient/231a6028-327e-4322-a4cf-17ff4fd1f65c"},"period":{"start":"2022-06-09T00:00:00+00:00","end":"2022-06-18T00:00:00+00:00"}},"request":{"method":"POST","url":"Encounter"}},{"fullUrl":"Encounter/7106c2bb-9e6a-48e0-bd20-a94cd5de7fd6","resource":{"resourceType":"Encounter","id":"7106c2bb-9e6a-48e0-bd20-a94cd5de7fd6","status":"finished","class":{"system":"http://terminology.hl7.org/CodeSystem/v3-ActCode","code":"NONAC","display":"inpatient non-acute"},"type":[{"coding":[{"system":"http://terminology.hl7.org/CodeSystem/encounter-type","code":"ADMS"}]}],"subject":{"reference":"Patient/231a6028-327e-4322-a4cf-17ff4fd1f65c"},"period":{"start":"2022-11-05T00:00:00+00:00","end":"2022-11-10T00:00:00+00:00"}},"request":{"method":"POST","url":"Encounter"}},{"fullUrl":"Encounter/a42d6348-7b25-43bf-af68-0344c2a8c979","resource":{"resourceType":"Encounter","id":"a42d6348-7b25-43bf-af68-0344c2a8c979","status":"finished","class":{"system":"http://terminology.hl7.org/CodeSystem/v3-ActCode","code":"OBSENC","display":"observation encounter"},"type":[{"coding":[{"system":"http://terminology.hl7.org/CodeSystem/encounter-type","code":"ADMS"}]}],"subject":{"reference":"Patient/231a6028-327e-4322-a4cf-17ff4fd1f65c"},"period":{"start":"2022-12-23T00:00:00+00:00","end":"2022-12-30T00:00:00+00:00"}},"request":{"method":"POST","url":"Encounter"}},{"fullUrl":"Patient/fd755ed7-c5d4-4add-bf52-f61d4c39a7d0","resource":{"resourceType":"Patient","id":"fd755ed7-c5d4-4add-bf52-f61d4c39a7d0","identifier":[{"type":{"coding":[{"system":"http://terminology.hl7.org/CodeSystem/v2-0203","code":"MR"}]},"system":"urn:fhirgen:mrn","value":"707-37-5240"}],"name":[{"family":"Love","given":["Colleen"]}],"gender":"female","birthDate":"1959-10-06","address":[{"line":["285 Foley Land Suite 968"],"city":"South Lisafurt","state":"Pennsylvania"}]},"request":{"method":"POST","url":"Patient"}},{"fullUrl":"Observation/fb8169d8-74a9-4edf-a1a6-3c7ea7fdcb9e","resource":{"resourceType":"Observation","id":"fb8169d8-74a9-4edf-a1a6-3c7ea7fdcb9e","status":"final","code":{"coding":[{"system":"http://loinc.org","code":"31146-4"}]},"subject":{"reference":"Patient/fd755ed7-c5d4-4add-bf52-f61d4c39a7d0"},"effectiveDateTime":"2022-10-22T00:00:00+00:00","valueRatio":{"numerator":{"value":1.0},"denominator":{"value":4.0}}},"request":{"method":"POST","url":"Observation"}},{"fullUrl":"Observation/47b8b0eb-2650-4c54-ab55-09e1eb452122","resource":{"resourceType":"Observation","id":"47b8b0eb-2650-4c54-ab55-09e1eb452122","status":"final","code":{"coding":[{"system":"http://loinc.org","code":"46203-6"}]},"subject":{"reference":"Patient/fd755ed7-c5d4-4add-bf52-f61d4c39a7d0"},"effectiveDateTime":"2022-10-14T00:00:00+00:00","valueRatio":{"numerator":{"value":1.0},"denominator":{"value":4.0}}},"request":{"method":"POST","url":"Observation"}},{"fullUrl":"Observation/9439efcd-37b6-49b1-a56e-9ca8b795fe3e","resource":{"resourceType":"Observation","id":"9439efcd-37b6-49b1-a56e-9ca8b795fe3e","status":"final","code":{"coding":[{"system":"http://loinc.org","code":"22590-4"}]},"subject":{"reference":"Patient/fd755ed7-c5d4-4add-bf52-f61d4c39a7d0"},"effectiveDateTime":"2022-08-30T00:00:00+00:00","valueRatio":{"numerator":{"value":1.0},"denominator":{"value":64.0}}},"request":{"method":"POST","url":"Observation"}},{"fullUrl":"Condition/5fde0a79-9820-4f26-a2fd-546dae906a62","resource":{"resourceType":"Condition","id":"5fde0a79-9820-4f26-a2fd-546dae906a62","code":{"coding":[{"system":"http://snomed.info/sct","code":"736686006"}]},"subject":{"reference":"Patient/fd755ed7-c5d4-4add-bf52-f61d4c39a7d0"},"onsetDateTime":"2022-03-30T00:00:00+00:00"},"request":{"method":"POST","url":"Condition"}},{"fullUrl":"Condition/c5bfc566-a54b-4abb-8834-3b761512022d","resource":{"resourceType":"Condition","id":"c5bfc566-a54b-4abb-8834-3b761512022d","code":{"coding":[{"system":"http://snomed.info/sct","code":"21522001"}]},"subject":{"reference":"Patient/fd755ed7-c5d4-4add-bf52-f61d4c39a7d0"},"onsetDateTime":"2022-09-09T00:00:00+00:00"},"request":{"method":"POST","url":"Condition"}},{"fullUrl":"Condition/21f50722-87d1-4ae6-935b-697ee9c2bd25","resource":{"resourceType":"Condition","id":"21f50722-87d1-4ae6-935b-697ee9c2bd25","code":{"coding":[{"system":"http://snomed.info/sct","code":"30746006"}]},"subject":{"reference":"Patient/fd755ed7-c5d4-4add-bf52-f61d4c39a7d0"},"onsetDateTime":"2022-10-03T00:00:00+00:00"},"request":{"method":"POST","url":"Condition"}},{"fullUrl":"Observation/b3682e7d-de47-4cd8-b754-8fa531d60462","resource":{"resourceType":"Observation","id":"b3682e7d-de47-4cd8-b754-8fa531d60462","status":"final","code":{"coding":[{"system":"http://loinc.org","code":"804-5"}]},"subject":{"reference":"Patient/fd755ed7-c5d4-4add-bf52-f61d4c39a7d0"},"effectiveDateTime":"2022-06-25T00:00:00+00:00","valueQuantity":{"value":9.5}},"request":{"method":"POST","url":"Observation"}},{"fullUrl":"Observation/39abc002-a075-4fa0-aa40-61eb696b0945","resource":{"resourceType":"Observation","id":"39abc002-a075-4fa0-aa40-61eb696b0945","status":"final","code":{"coding":[{"system":"http://loinc.org","code":"6690-2"}]},"subject":{"reference":"Patient/fd755ed7-c5d4-4add-bf52-f61d4c39a7d0"},"effectiveDateTime":"2022-12-08T00:00:00+00:00","valueQuantity":{"value":6.6}},"request":{"method":"POST","url":"Observation"}},{"fullUrl":"Procedure/a695f185-2d16-4055-8dc3-a6a9af6e102e","resource":{"resourceType":"Procedure","id":"a695f185-2d16-4055-8dc3-a6a9af6e102e","status":"completed","code":{"coding":[{"system":"http://snomed.info/sct","code":"104001"}]},"subject":{"reference":"Patient/fd755ed7-c5d4-4add-bf52-f61d4c39a7d0"},"performedDateTime":"2022-06-21T00:00:00+00:00"},"request":{"method":"POST","url":"Procedure"}},{"fullUrl":"Procedure/cc9b14be-6d20-4f52-b629-fa8e7f7f31d6","resource":{"resourceType":"Procedure","id":"cc9b14be-6d20-4f52-b629-fa8e7f7f31d6","status":"completed","code":{"coding":[{"system":"http://snomed.info/sct","code":"647000"}]},"subject":{"reference":"Patient/fd755ed7-c5d4-4add-bf52-f61d4c39a7d0"},"performedDateTime":"2022-06-27T00:00:00+00:00"},"request":{"method":"POST","url":"Procedure"}},{"fullUrl":"Procedure/d614663b-5d31-4951-b4d5-153365cb45d2","resource":{"resourceType":"Procedure","id":"d614663b-5d31-4951-b4d5-153365cb45d2","status":"completed","code":{"coding":[{"system":"http://snomed.info/sct","code":"115006"}]},"subject":{"reference":"Patient/fd755ed7-c5d4-4add-bf52-f61d4c39a7d0"},"performedDateTime":"2022-05-29T00:00:00+00:00"},"request":{"method":"POST","url":"Procedure"}},{"fullUrl":"MedicationStatement/e50449f8-8c46-442c-9d09-dfe33ead056c","resource":{"resourceType":"MedicationStatement","id":"e50449f8-8c46-442c-9d09-dfe33ead056c","status":"completed","medicationCodeableConcept":{"coding":[{"system":"http://www.nlm.nih.gov/research/umls/rxnorm","code":"8698"}]},"subject":{"reference":"Patient/fd755ed7-c5d4-4add-bf52-f61d4c39a7d0"},"effectiveDateTime":"2022-11-24T00:00:00+00:00","dosage":[{"doseAndRate":[{"doseQuantity":{"value":2.0,"unit":"TAB","system":"http://terminology.hl7.org/CodeSystem/v3-orderableDrugForm","code":"TAB"}}]}]},"request":{"method":"POST","url":"MedicationStatement"}},{"fullUrl":"MedicationStatement/2db02bea-ca0e-4fae-b923-5323801d2d8a","resource":{"resourceType":"MedicationStatement","id":"2db02bea-ca0e-4fae-b923-5323801d2d8a","status":"completed","medicationCodeableConcept":{"coding":[{"system":"http://www.nlm.nih.gov/research/umls/rxnorm","code":"18631"}]},"subject":{"reference":"Patient/fd755ed7-c5d4-4add-bf52-f61d4c39a7d0"},"effectiveDateTime":"2022-01-07T00:00:00+00:00","dosage":[{"doseAndRate":[{"doseQuantity":{"value":2.0,"unit":"TAB","system":"http://terminology.hl7.org/CodeSystem/v3-orderableDrugForm","code":"TAB"}}]}]},"request":{"method":"POST","url":"MedicationStatement"}},{"fullUrl":"MedicationStatement/41321719-5cb4-490e-afad-c7c7f6f6f6a0","resource":{"resourceType":"MedicationStatement","id":"41321719-5cb4-490e-afad-c7c7f6f6f6a0","status":"completed","medicationCodeableConcept":{"coding":[{"system":"http://www.nlm.nih.gov/research/umls/rxnorm","code":"7984"}]},"subject":{"reference":"Patient/fd755ed7-c5d4-4add-bf52-f61d4c39a7d0"},"effectiveDateTime":"2022-12-31T00:00:00+00:00","dosage":[{"doseAndRate":[{"doseQuantity":{"value":6.1,"unit":"TAB","system":"http://terminology.hl7.org/CodeSystem/v3-orderableDrugForm","code":"TAB"}}]}]},"request":{"method":"POST","url":"MedicationStatement"}},{"fullUrl":"MedicationStatement/810f1a4f-415b-45ed-9d95-022804f6c95c","resource":{"resourceType":"MedicationStatement","id":"810f1a4f-415b-45ed-9d95-022804f6c95c","status":"completed","medicationCodeableConcept":{"coding":[{"system":"http://www.nlm.nih.gov/research/umls/rxnorm","code":"3640"}]},"subject":{"reference":"Patient/fd755ed7-c5d4-4add-bf52-f61d4c39a7d0"},"effectiveDateTime":"2022-09-19T00:00:00+00:00","dosage":[{"doseAndRate":[{"doseQuantity":{"value":5.6,"unit":"TAB","system":"http://terminology.hl7.org/CodeSystem/v3-orderableDrugForm","code":"TAB"}}]}]},"request":{"method":"POST","url":"MedicationStatement"}},{"fullUrl":"MedicationStatement/86bc3d42-dcb6-4a6a-96ed-ae2e20a15951","resource":{"resourceType":"MedicationStatement","id":"86bc3d42-dcb6-4a6a-96ed-ae2e20a15951","status":"completed","medicationCodeableConcept":{"coding":[{"system":"http://www.nlm.nih.gov/research/umls/rxnorm","code":"7984"}]},"subject":{"reference":"Patient/fd755ed7-c5d4-4add-bf52-f61d4c39a7d0"},"effectiveDateTime":"2022-07-22T00:00:00+00:00","dosage":[{"doseAndRate":[{"doseQuantity":{"value":4.5,"unit":"TAB","system":"http://terminology.hl7.org/CodeSystem/v3-orderableDrugForm","code":"TAB"}}]}]},"request":{"method":"POST","url":"MedicationStatement"}},{"fullUrl":"MedicationStatement/4f0ccd9f-548f-4e6f-a8e4-2b79bc4e6471","resource":{"resourceType":"MedicationStatement","id":"4f0ccd9f-548f-4e6f-a8e4-2b79bc4e6471","status":"completed","medicationCodeableConcept":{"coding":[{"system":"http://www.nlm.nih.gov/research/umls/rxnorm","code":"2193"}]},"subject":{"reference":"Patient/fd755ed7-c5d4-4add-bf52-f61d4c39a7d0"},"effectiveDateTime":"2022-03-29T00:00:00+00:00","dosage":[{"doseAndRate":[{"doseQuantity":{"value":6.6,"unit":"TAB","system":"http://terminology.hl7.org/CodeSystem/v3-orderableDrugForm","code":"TAB"}}]}]},"request":{"method":"POST","url":"MedicationStatement"}},{"fullUrl":"MedicationStatement/46b5c89f-2984-45e3-a53d-b9197cc8a6b5","resource":{"resourceType":"MedicationStatement","id":"46b5c89f-2984-45e3-a53d-b9197cc8a6b5","status":"completed","medicationCodeableConcept":{"coding":[{"system":"http://www.nlm.nih.gov/research/umls/rxnorm","code":"3640"}]},"subject":{"reference":"Patient/fd755ed7-c5d4-4add-bf52-f61d4c39a7d0"},"effectiveDateTime":"2022-03-20T00:00:00+00:00","dosage":[{"doseAndRate":[{"doseQuantity":{"value":6.7,"unit":"TAB","system":"http://terminology.hl7.org/CodeSystem/v3-orderableDrugForm","code":"TAB"}}]}]},"request":{"method":"POST","url":"MedicationStatement"}},{"fullUrl":"MedicationStatement/9c4c236f-35f7-4008-b3ae-d56f7a513946","resource":{"resourceType":"MedicationStatement","id":"9c4c236f-35f7-4008-b3ae-d56f7a513946","status":"completed","medicationCodeableConcept":{"coding":[{"system":"http://www.nlm.nih.gov/research/umls/rxnorm","code":"7984"}]},"subject":{"reference":"Patient/fd755ed7-c5d4-4add-bf52-f61d4c39a7d0"},"effectiveDateTime":"2022-10-02T00:00:00+00:00","dosage":[{"doseAndRate":[{"doseQuantity":{"value":4.7,"unit":"TAB","system":"http://terminology.hl7.org/CodeSystem/v3-orderableDrugForm","code":"TAB"}}]}]},"request":{"method":"POST","url":"MedicationStatement"}},{"fullUrl":"Encounter/cb579571-8bf9-4512-a65d-f7dbbe18ccdf","resource":{"resourceType":"Encounter","id":"cb579571-8bf9-4512-a65d-f7dbbe18ccdf","status":"finished","class":{"system":"http://terminology.hl7.org/CodeSystem/v3-ActCode","code":"IMP","display":"inpatient encounter"},"type":[{"coding":[{"system":"http://terminology.hl7.org/CodeSystem/encounter-type","code":"BD/BM-clin"}]}],"subject":{"reference":"Patient/fd755ed7-c5d4-4add-bf52-f61d4c39a7d0"},"period":{"start":"2022-10-17T00:00:00+00:00","end":"2022-10-20T00:00:00+00:00"}},"request":{"method":"POST","url":"Encounter"}},{"fullUrl":"Encounter/3c2770f5-107e-4ee8-8718-2fed0289e0e2","resource":{"resourceType":"Encounter","id":"3c2770f5-107e-4ee8-8718-2fed0289e0e2","status":"finished","class":{"system":"http://terminology.hl7.org/CodeSystem/v3-ActCode","code":"IMP","display":"inpatient encounter"},"type":[{"coding":[{"system":"http://terminology.hl7.org/CodeSystem/encounter-type","code":"BD/BM-clin"}]}],"subject":{"reference":"Patient/fd755ed7-c5d4-4add-bf52-f61d4c39a7d0"},"period":{"start":"2022-04-02T00:00:00+00:00","end":"2022-04-10T00:00:00+00:00"}},"request":{"method":"POST","url":"Encounter"}},{"fullUrl":"Encounter/5a9738e5-b4b9-40fb-82ca-ed9c97fa65f4","resource":{"resourceType":"Encounter","id":"5a9738e5-b4b9-40fb-82ca-ed9c97fa65f4","status":"finished","class":{"system":"http://terminology.hl7.org/CodeSystem/v3-ActCode","code":"NONAC","display":"inpatient non-acute"},"type":[{"coding":[{"system":"http://terminology.hl7.org/CodeSystem/encounter-type","code":"OKI"}]}],"subject":{"reference":"Patient/fd755ed7-c5d4-4add-bf52-f61d4c39a7d0"},"period":{"start":"2022-05-14T00:00:00+00:00","end":"2022-05-18T00:00:00+00:00"}},"request":{"method":"POST","url":"Encounter"}},{"fullUrl":"Encounter/3d1f1f7f-31d5-43d1-b7dd-9a56cd47d426","resource":{"resourceType":"Encounter","id":"3d1f1f7f-31d5-43d1-b7dd-9a56cd47d426","status":"finished","class":{"system":"http://terminology.hl7.org/CodeSystem/v3-ActCode","code":"FLD","display":"field"},"type":[{"coding":[{"system":"http://terminology.hl7.org/CodeSystem/encounter-type","code":"ADMS"}]}],"subject":{"reference":"Patient/fd755ed7-c5d4-4add-bf52-f61d4c39a7d0"},"period":{"start":"2022-06-29T00:00:00+00:00","end":"2022-07-03T00:00:00+00:00"}},"request":{"method":"POST","url":"Encounter"}},{"fullUrl":"Patient/6ad950f6-7fa2-4a72-b73c-2b4b79b83788","resource":{"resourceType":"Patient","id":"6ad950f6-7fa2-4a72-b73c-2b4b79b83788","identifier":[{"type":{"coding":[{"system":"http://terminology.hl7.org/CodeSystem/v2-0203","code":"MR"}]},"system":"urn:fhirgen:mrn","value":"270-63-4702"}],"name":[{"family":"Reid","given":["Kelly"]}],"gender":"other","birthDate":"1962-10-17","address":[{"line":["65382 Le Port"],"city":"Port Douglas","state":"Arkansas"}]},"request":{"method":"POST","url":"Patient"}},{"fullUrl":"Observation/faea2a7f-7399-4fed-9469-e879ab14aef1","resource":{"resourceType":"Observation","id":"faea2a7f-7399-4fed-9469-e879ab14aef1","status":"final","code":{"coding":[{"system":"http://loinc.org","code":"46203-6"}]},"subject":{"reference":"Patient/6ad950f6-7fa2-4a72-b73c-2b4b79b83788"},"effectiveDateTime":"2022-11-01T00:00:00+00:00","valueRatio":{"numerator":{"value":1.0},"denominator":{"value":32.0}}},"request":{"method":"POST","url":"Observation"}},{"fullUrl":"Observation/75cfbf02-6784-4c74-a106-338162375605","resource":{"resourceType":"Observation","id":"75cfbf02-6784-4c74-a106-338162375605","status":"final","code":{"coding":[{"system":"http://loinc.org","code":"5394-2"}]},"subject":{"reference":"Patient/6ad950f6-7fa2-4a72-b73c-2b4b79b83788"},"effectiveDateTime":"2022-08-21T00:00:00+00:00","valueRatio":{"numerator":{"value":1.0},"denominator":{"value":4.0}}},"request":{"method":"POST","url":"Observation"}},{"fullUrl":"Condition/7127247e-ab2d-4e32-b66e-d9a87e834af2","resource":{"resourceType":"Condition","id":"7127247e-ab2d-4e32-b66e-d9a87e834af2","code":{"coding":[{"system":"http://snomed.info/sct","code":"3951002"}]},"subject":{"reference":"Patient/6ad950f6-7fa2-4a72-b73c-2b4b79b83788"},"onsetDateTime":"2022-10-25T00:00:00+00:00"},"request":{"method":"POST","url":"Condition"}},{"fullUrl":"Condition/a4e2925e-64b4-4639-a7aa-6cb530b84d29","resource":{"resourceType":"Condition","id":"a4e2925e-64b4-4639-a7aa-6cb530b84d29","code":{"coding":[{"system":"http://snomed.info/sct","code":"71315007"}]},"subject":{"reference":"Patient/6ad950f6-7fa2-4a72-b73c-2b4b79b83788"},"onsetDateTime":"2022-07-09T00:00:00+00:00"},"request":{"method":"POST","url":"Condition"}},{"fullUrl":"Condition/585704f2-d245-44a0-800b-bbab91955ceb","resource":{"resourceType":"Condition","id":"585704f2-d245-44a0-800b-bbab91955ceb","code":{"coding":[{"system":"http://snomed.info/sct","code":"71315007"}]},"subject":{"reference":"Patient/6ad950f6-7fa2-4a72-b73c-2b4b79b83788"},"onsetDateTime":"2022-01-22T00:00:00+00:00"},"request":{"method":"POST","url":"Condition"}},{"fullUrl":"Condition/4d3bcb40-04ab-48c5-b596-626baf66738f","resource":{"resourceType":"Condition","id":"4d3bcb40-04ab-48c5-b596-626baf66738f","code":{"coding":[{"system":"http://snomed.info/sct","code":"30746006"}]},"subject":{"reference":"Patient/6ad950f6-7fa2-4a72-b73c-2b4b79b83788"},"onsetDateTime":"2022-03-22T00:00:00+00:00"},"request":{"method":"POST","url":"Condition"}},{"fullUrl":"Condition/1257c788-9979-4d64-bcb7-2bc8e6298ca6","resource":{"resourceType":"Condition","id":"1257c788-9979-4d64-bcb7-2bc8e6298ca6","code":{"coding":[{"system":"http://snomed.info/sct","code":"709977002"}]},"subject":{"reference":"Patient/6ad950f6-7fa2-4a72-b73c-2b4b79b83788"},"onsetDateTime":"2022-01-15T00:00:00+00:00"},"request":{"method":"POST","url":"Condition"}},{"fullUrl":"Condition/bd0be5ce-f97d-4852-a094-dfde156f9e10","resource":{"resourceType":"Condition","id":"bd0be5ce-f97d-4852-a094-dfde156f9e10","code":{"coding":[{"system":"http://snomed.info/sct","code":"297123002"}]},"subject":{"reference":"Patient/6ad950f6-7fa2-4a72-b73c-2b4b79b83788"},"onsetDateTime":"2022-03-21T00:00:00+00:00"},"request":{"method":"POST","url":"Condition"}},{"fullUrl":"Observation/dc80822a-2709-45fa-a840-5f1bf8347816","resource":{"resourceType":"Observation","id":"dc80822a-2709-45fa-a840-5f1bf8347816","status":"final","code":{"coding":[{"system":"http://loinc.org","code":"804-5"}]},"subject":{"reference":"Patient/6ad950f6-7fa2-4a72-b73c-2b4b79b83788"},"effectiveDateTime":"2022-04-24T00:00:00+00:00","valueQuantity":{"value":8.5}},"request":{"method":"POST","url":"Observation"}},{"fullUrl":"Observation/09509a81-8838-4273-963a-08f9211b90ba","resource":{"resourceType":"Observation","id":"09509a81-8838-4273-963a-08f9211b90ba","status":"final","code":{"coding":[{"system":"http://loinc.org","code":"804-5"}]},"subject":{"reference":"Patient/6ad950f6-7fa2-4a72-b73c-2b4b79b83788"},"effectiveDateTime":"2022-06-22T00:00:00+00:00","valueQuantity":{"value":9.0}},"request":{"method":"POST","url":"Observation"}},{"fullUrl":"Observation/14f8d7bf-a59c-491a-8576-2b8ade34250c","resource":{"resourceType":"Observation","id":"14f8d7bf-a59c-491a-8576-2b8ade34250c","status":"final","code":{"coding":[{"system":"http://loinc.org","code":"6690-2"}]},"subject":{"reference":"Patient/6ad950f6-7fa2-4a72-b73c-2b4b79b83788"},"effectiveDateTime":"2022-11-28T00:00:00+00:00","valueQuantity":{"value":10.5}},"request":{"method":"POST","url":"Observation"}},{"fullUrl":"Procedure/15f87c2c-3a73-4fd8-98a3-0f87bb489b72","resource":{"resourceType":"Procedure","id":"15f87c2c-3a73-4fd8-98a3-0f87bb489b72","status":"completed","code":{"coding":[{"system":"http://snomed.info/sct","code":"104001"}]},"subject":{"reference":"Patient/6ad950f6-7fa2-4a72-b73c-2b4b79b83788"},"performedDateTime":"2022-07-09T00:00:00+00:00"},"request":{"method":"POST","url":"Procedure"}},{"fullUrl":"Procedure/caf451f4-c0f9-4939-a7d4-4e97d1ec7e09","resource":{"resourceType":"Procedure","id":"caf451f4-c0f9-4939-a7d4-4e97d1ec7e09","status":"completed","code":{"coding":[{"system":"http://snomed.info/sct","code":"146005"}]},"subject":{"reference":"Patient/6ad950f6-7fa2-4a72-b73c-2b4b79b83788"},"performedDateTime":"2022-01-19T00:00:00+00:00"},"request":{"method":"POST","url":"Procedure"}},{"fullUrl":"Procedure/f9f48f1e-3ab5-4c6d-ae27-70ae143dade2","resource":{"resourceType":"Procedure","id":"f9f48f1e-3ab5-4c6d-ae27-70ae143dade2","status":"completed","code":{"coding":[{"system":"http://snomed.info/sct","code":"146005"}]},"subject":{"reference":"Patient/6ad950f6-7fa2-4a72-b73c-2b4b79b83788"},"performedDateTime":"2022-04-27T00:00:00+00:00"},"request":{"method":"POST","url":"Procedure"}},{"fullUrl":"MedicationStatement/84a549c0-373d-4d5a-9818-01ee0f341c8f","resource":{"resourceType":"MedicationStatement","id":"84a549c0-373d-4d5a-9818-01ee0f341c8f","status":"completed","medicationCodeableConcept":{"coding":[{"system":"http://www.nlm.nih.gov/research/umls/rxnorm","code":"8698"}]},"subject":{"reference":"Patient/6ad950f6-7fa2-4a72-b73c-2b4b79b83788"},"effectiveDateTime":"2022-10-14T00:00:00+00:00","dosage":[{"doseAndRate":[{"doseQuantity":{"value":2.0,"unit":"TAB","system":"http://terminology.hl7.org/CodeSystem/v3-orderableDrugForm","code":"TAB"}}]}]},"request":{"method":"POST","url":"MedicationStatement"}},{"fullUrl":"MedicationStatement/68ced9a5-22f8-45d5-a3f9-162a2e768734","resource":{"resourceType":"MedicationStatement","id":"68ced9a5-22f8-45d5-a3f9-162a2e768734","status":"completed","medicationCodeableConcept":{"coding":[{"system":"http://www.nlm.nih.gov/research/umls/rxnorm","code":"7984"}]},"subject":{"reference":"Patient/6ad950f6-7fa2-4a72-b73c-2b4b79b83788"},"effectiveDateTime":"2022-05-11T00:00:00+00:00","dosage":[{"doseAndRate":[{"doseQuantity":{"value":1.0,"unit":"TAB","system":"http://terminology.hl7.org/CodeSystem/v3-orderableDrugForm","code":"TAB"}}]}]},"request":{"method":"POST","url":"MedicationStatement"}},{"fullUrl":"MedicationStatement/3c1a8692-bae7-42ff-8742-15227754c3c1","resource":{"resourceType":"MedicationStatement","id":"3c1a8692-bae7-42ff-8742-15227754c3c1","status":"completed","medicationCodeableConcept":{"coding":[{"system":"http://www.nlm.nih.gov/research/umls/rxnorm","code":"10395"}]},"subject":{"reference":"Patient/6ad950f6-7fa2-4a72-b73c-2b4b79b83788"},"effectiveDateTime":"2022-04-01T00:00:00+00:00","dosage":[{"doseAndRate":[{"doseQuantity":{"value":2.0,"unit":"TAB","system":"http://terminology.hl7.org/CodeSystem/v3-orderableDrugForm","code":"TAB"}}]}]},"request":{"method":"POST","url":"MedicationStatement"}},{"fullUrl":"MedicationStatement/a1e2717d-d49b-4944-8060-80b05ab722c9","resource":{"resourceType":"MedicationStatement","id":"a1e2717d-d49b-4944-8060-80b05ab722c9","status":"completed","medicationCodeableConcept":{"coding":[{"system":"http://www.nlm.nih.gov/research/umls/rxnorm","code":"7980"}]},"subject":{"reference":"Patient/6ad950f6-7fa2-4a72-b73c-2b4b79b83788"},"effectiveDateTime":"2022-02-02T00:00:00+00:00","dosage":[{"doseAndRate":[{"doseQuantity":{"value":2.0,"unit":"TAB","system":"http://terminology.hl7.org/CodeSystem/v3-orderableDrugForm","code":"TAB"}}]}]},"request":{"method":"POST","url":"MedicationStatement"}},{"fullUrl":"MedicationStatement/51221f8c-e40c-4ab5-a5c7-5c4a9de027c7","resource":{"resourceType":"MedicationStatement","id":"51221f8c-e40c-4ab5-a5c7-5c4a9de027c7","status":"completed","medicationCodeableConcept":{"coding":[{"system":"http://www.nlm.nih.gov/research/umls/rxnorm","code":"8698"}]},"subject":{"reference":"Patient/6ad950f6-7fa2-4a72-b73c-2b4b79b83788"},"effectiveDateTime":"2022-04-28T00:00:00+00:00","dosage":[{"doseAndRate":[{"doseQuantity":{"value":2.0,"unit":"TAB","system":"http://terminology.hl7.org/CodeSystem/v3-orderableDrugForm","code":"TAB"}}]}]},"request":{"method":"POST","url":"MedicationStatement"}},{"fullUrl":"MedicationStatement/91d75082-737b-416b-b50a-3a128c8f922d","resource":{"resourceType":"MedicationStatement","id":"91d75082-737b-416b-b50a-3a128c8f922d","status":"completed","medicationCodeableConcept":{"coding":[{"system":"http://www.nlm.nih.gov/research/umls/rxnorm","code":"2193"}]},"subject":{"reference":"Patient/6ad950f6-7fa2-4a72-b73c-2b4b79b83788"},"effectiveDateTime":"2022-10-21T00:00:00+00:00","dosage":[{"doseAndRate":[{"doseQuantity":{"value":1.0,"unit":"TAB","system":"http://terminology.hl7.org/CodeSystem/v3-orderableDrugForm","code":"TAB"}}]}]},"request":{"method":"POST","url":"MedicationStatement"}},{"fullUrl":"MedicationStatement/df576c98-d50b-4ac7-a339-2168873ccb6d","resource":{"resourceType":"MedicationStatement","id":"df576c98-d50b-4ac7-a339-2168873ccb6d","status":"completed","medicationCodeableConcept":{"coding":[{"system":"http://www.nlm.nih.gov/research/umls/rxnorm","code":"8698"}]},"subject":{"reference":"Patient/6ad950f6-7fa2-4a72-b73c-2b4b79b83788"},"effectiveDateTime":"2022-02-10T00:00:00+00:00","dosage":[{"doseAndRate":[{"doseQuantity":{"value":3.6,"unit":"TAB","system":"http://terminology.hl7.org/CodeSystem/v3-orderableDrugForm","code":"TAB"}}]}]},"request":{"method":"POST","url":"MedicationStatement"}},{"fullUrl":"MedicationStatement/c27b36f5-0bbd-45c5-8fce-e8a936f531dd","resource":{"resourceType":"MedicationStatement","id":"c27b36f5-0bbd-45c5-8fce-e8a936f531dd","status":"completed","medicationCodeableConcept":{"coding":[{"system":"http://www.nlm.nih.gov/research/umls/rxnorm","code":"18631"}]},"subject":{"reference":"Patient/6ad950f6-7fa2-4a72-b73c-2b4b79b83788"},"effectiveDateTime":"2022-12-04T00:00:00+00:00","dosage":[{"doseAndRate":[{"doseQuantity":{"value":4.4,"unit":"TAB","system":"http://terminology.hl7.org/CodeSystem/v3-orderableDrugForm","code":"TAB"}}]}]},"request":{"method":"POST","url":"MedicationStatement"}},{"fullUrl":"MedicationStatement/16e93355-628c-460a-8585-f13e2918168d","resource":{"resourceType":"MedicationStatement","id":"16e93355-628c-460a-8585-f13e2918168d","status":"completed","medicationCodeableConcept":{"coding":[{"system":"http://www.nlm.nih.gov/research/umls/rxnorm","code":"18631"}]},"subject":{"reference":"Patient/6ad950f6-7fa2-4a72-b73c-2b4b79b83788"},"effectiveDateTime":"2022-11-06T00:00:00+00:00","dosage":[{"doseAndRate":[{"doseQuantity":{"value":3.2,"unit":"TAB","system":"http://terminology.hl7.org/CodeSystem/v3-orderableDrugForm","code":"TAB"}}]}]},"request":{"method":"POST","url":"MedicationStatement"}},{"fullUrl":"Encounter/4a1238e9-addd-488f-84c4-5a3845810a11","resource":{"resourceType":"Encounter","id":"4a1238e9-addd-488f-84c4-5a3845810a11","status":"finished","class":{"system":"http://terminology.hl7.org/CodeSystem/v3-ActCode","code":"IMP","display":"inpatient encounter"},"type":[{"coding":[{"system":"http://terminology.hl7.org/CodeSystem/encounter-type","code":"CCS60"}]}],"subject":{"reference":"Patient/6ad950f6-7fa2-4a72-b73c-2b4b79b83788"},"period":{"start":"2022-11-19T00:00:00+00:00","end":"2022-11-24T00:00:00+00:00"}},"request":{"method":"POST","url":"Encounter"}},{"fullUrl":"Encounter/a5060c60-42a3-446f-b884-0e5553f17974","resource":{"resourceType":"Encounter","id":"a5060c60-42a3-446f-b884-0e5553f17974","status":"finished","class":{"system":"http://terminology.hl7.org/CodeSystem/v3-ActCode","code":"IMP","display":"inpatient encounter"},"type":[{"coding":[{"system":"http://terminology.hl7.org/CodeSystem/encounter-type","code":"OKI"}]}],"subject":{"reference":"Patient/6ad950f6-7fa2-4a72-b73c-2b4b79b83788"},"period":{"start":"2022-10-03T00:00:00+00:00","end":"2022-10-10T00:00:00+00:00"}},"request":{"method":"POST","url":"Encounter"}},{"fullUrl":"Encounter/3b050982-9484-4d39-b3ff-b098433a9e67","resource":{"resourceType":"Encounter","id":"3b050982-9484-4d39-b3ff-b098433a9e67","status":"finished","class":{"system":"http://terminology.hl7.org/CodeSystem/v3-ActCode","code":"IMP","display":"inpatient encounter"},"type":[{"coding":[{"system":"http://terminology.hl7.org/CodeSystem/encounter-type","code":"ADMS"}]}],"subject":{"reference":"Patient/6ad950f6-7fa2-4a72-b73c-2b4b79b83788"},"period":{"start":"2022-01-25T00:00:00+00:00","end":"2022-01-26T00:00:00+00:00"}},"request":{"method":"POST","url":"Encounter"}},{"fullUrl":"Encounter/2a4bdc56-288d-4946-8012-cd1b883f3605","resource":{"resourceType":"Encounter","id":"2a4bdc56-288d-4946-8012-cd1b883f3605","status":"finished","class":{"system":"http://terminology.hl7.org/CodeSystem/v3-ActCode","code":"ACUTE","display":"inpatient acute"},"type":[{"coding":[{"system":"http://terminology.hl7.org/CodeSystem/encounter-type","code":"BD/BM-clin"}]}],"subject":{"reference":"Patient/6ad950f6-7fa2-4a72-b73c-2b4b79b83788"},"period":{"start":"2022-04-26T00:00:00+00:00","end":"2022-05-03T00:00:00+00:00"}},"request":{"method":"POST","url":"Encounter"}},{"fullUrl":"Encounter/19c7e325-0384-405f-adcb-2fd4012be9a1","resource":{"resourceType":"Encounter","id":"19c7e325-0384-405f-adcb-2fd4012be9a1","status":"finished","class":{"system":"http://terminology.hl7.org/CodeSystem/v3-ActCode","code":"AMB","display":"ambulatory"},"type":[{"coding":[{"system":"http://terminology.hl7.org/CodeSystem/encounter-type","code":"BD/BM-clin"}]}],"subject":{"reference":"Patient/6ad950f6-7fa2-4a72-b73c-2b4b79b83788"},"period":{"start":"2022-11-04T00:00:00+00:00","end":"2022-11-13T00:00:00+00:00"}},"request":{"method":"POST","url":"Encounter"}},{"fullUrl":"Encounter/be2e6456-611e-4a96-ba06-f5f363082cf8","resource":{"resourceType":"Encounter","id":"be2e6456-611e-4a96-ba06-f5f363082cf8","status":"finished","class":{"system":"http://terminology.hl7.org/CodeSystem/v3-ActCode","code":"SS","display":"short-stay"},"type":[{"coding":[{"system":"http://terminology.hl7.org/CodeSystem/encounter-type","code":"BD/BM-clin"}]}],"subject":{"reference":"Patient/6ad950f6-7fa2-4a72-b73c-2b4b79b83788"},"period":{"start":"2022-08-15T00:00:00+00:00","end":"2022-08-18T00:00:00+00:00"}},"request":{"method":"POST","url":"Encounter"}}]}