{"resourceType":"Bundle","id":"c1ccb6d0-fb04-402c-bdea-792cfb862611","type":"transaction","entry":[{"fullUrl":"Patient/80607890-0dbf-4113-b93e-e9a9a1c9813a","resource":{"resourceType":"Patient","id":"80607890-0dbf-4113-b93e-e9a9a1c9813a","identifier":[{"type":{"coding":[{"system":"http://terminology.hl7.org/CodeSystem/v2-0203","code":"MR"}]},"system":"urn:fhirgen:mrn","value":"504-38-6343"},{"system":"http://hl7.org/fhir/sid/us-ssn","value":"752-49-6200"}],"name":[{"use":"official","family":"Cruz","given":["Ryan"]},{"use":"maiden","family":"Harris"}],"telecom":[{"system":"phone","value":"+1-413-260-2988x5985","use":"mobile"},{"system":"email","value":"jamesclark@hotmail.com","use":"home"}],"gender":"male","birthDate":"1970-09-11","address":[{"use":"home","line":["584 Jones Neck"],"city":"East Gabriella","state":"IL","postalCode":"59827"},{"use":"old","line":["62339 Rodriguez Inlet"],"city":"Lake Michael","state":"ND","postalCode":"63265"}],"maritalStatus":{"coding":[{"system":"http://terminology.hl7.org/CodeSystem/v3-MaritalStatus","code":"P","display":"Polygamous"}]}},"request":{"method":"POST","url":"Patient"}},{"fullUrl":"Observation/b2957d86-7dd7-44f0-a7bb-22508e562438","resource":{"resourceType":"Observation","id":"b2957d86-7dd7-44f0-a7bb-22508e562438","status":"final","code":{"coding":[{"system":"http://loinc.org","code":"26009-1"}]},"subject":{"reference":"Patient/80607890-0dbf-4113-b93e-e9a9a1c9813a"},"effectiveDateTime":"2022-03-26T00:00:00+00:00","valueRatio":{"numerator":{"value":1},"denominator":{"value":32}}},"request":{"method":"POST","url":"Observation"}},{"fullUrl":"Observation/0c85a7b8-a3ce-4c69-a6d8-5695a13a7c56","resource":{"resourceType":"Observation","id":"0c85a7b8-a3ce-4c69-a6d8-5695a13a7c56","status":"final","code":{"coding":[{"system":"http://loinc.org","code":"34382-2"}]},"subject":{"reference":"Patient/80607890-0dbf-4113-b93e-e9a9a1c9813a"},"effectiveDateTime":"2022-01-09T00:00:00+00:00","valueRatio":{"numerator":{"value":1},"denominator":{"value":4}}},"request":{"method":"POST","url":"Observation"}},{"fullUrl":"Observation/fbbfbc64-efc9-4fb8-b845-9a6c21631abe","resource":{"resourceType":"Observation","id":"fbbfbc64-efc9-4fb8-b845-9a6c21631abe","status":"final","code":{"coding":[{"system":"http://loinc.org","code":"31147-2"}]},"subject":{"reference":"Patient/80607890-0dbf-4113-b93e-e9a9a1c9813a"},"effectiveDateTime":"2022-06-30T00:00:00+00:00","valueRatio":{"numerator":{"value":1},"denominator":{"value":32}}},"request":{"method":"POST","url":"Observation"}},{"fullUrl":"Condition/4c7651f5-32df-4791-b75b-7d4088aa89b0","resource":{"resourceType":"Condition","id":"4c7651f5-32df-4791-b75b-7d4088aa89b0","code":{"coding":[{"system":"http://snomed.info/sct","code":"91554004"}]},"subject":{"reference":"Patient/80607890-0dbf-4113-b93e-e9a9a1c9813a"},"onsetDateTime":"2022-01-20T00:00:00+00:00"},"request":{"method":"POST","url":"Condition"}},{"fullUrl":"Condition/2c779ab8-53c7-46f1-91e1-5d40a773573d","resource":{"resourceType":"Condition","id":"2c779ab8-53c7-46f1-91e1-5d40a773573d","code":{"coding":[{"system":"http://snomed.info/sct","code":"56317004"}]},"subject":{"reference":"Patient/80607890-0dbf-4113-b93e-e9a9a1c9813a"},"onsetDateTime":"2022-06-23T00:00:00+00:00"},"request":{"method":"POST","url":"Condition"}},{"fullUrl":"Condition/093edcda-3e76-4cf2-b30d-fdc4eb277e06","resource":{"resourceType":"Condition","id":"093edcda-3e76-4cf2-b30d-fdc4eb277e06","code":{"coding":[{"system":"http://snomed.info/sct","code":"79342006"}]},"subject":{"reference":"Patient/80607890-0dbf-4113-b93e-e9a9a1c9813a"},"onsetDateTime":"2022-09-26T00:00:00+00:00"},"request":{"method":"POST","url":"Condition"}},{"fullUrl":"Observation/66f7dd06-8aa3-4521-8c6f-fd61c46e7fe6","resource":{"resourceType":"Observation","id":"66f7dd06-8aa3-4521-8c6f-fd61c46e7fe6","status":"final","code":{"coding":[{"system":"http://loinc.org","code":"6690-2"}]},"subject":{"reference":"Patient/80607890-0dbf-4113-b93e-e9a9a1c9813a"},"effectiveDateTime":"2022-03-14T00:00:00+00:00","valueQuantity":{"value":7.7}},"request":{"method":"POST","url":"Observation"}},{"fullUrl":"Observation/738ea797-64d0-4b2e-a389-e44cdf2da503","resource":{"resourceType":"Observation","id":"738ea797-64d0-4b2e-a389-e44cdf2da503","status":"final","code":{"coding":[{"system":"http://loinc.org","code":"804-5"}]},"subject":{"reference":"Patient/80607890-0dbf-4113-b93e-e9a9a1c9813a"},"effectiveDateTime":"2022-07-16T00:00:00+00:00","valueQuantity":{"value":9.9}},"request":{"method":"POST","url":"Observation"}},{"fullUrl":"Observation/90acd1c3-b227-4d7f-b779-ded25be2ae21","resource":{"resourceType":"Observation","id":"90acd1c3-b227-4d7f-b779-ded25be2ae21","status":"final","code":{"coding":[{"system":"http://loinc.org","code":"49498-9"}]},"subject":{"reference":"Patient/80607890-0dbf-4113-b93e-e9a9a1c9813a"},"effectiveDateTime":"2022-10-20T00:00:00+00:00","valueCodeableConcept":{"coding":[{"system":"snomed","code":"123456","display":"fake snomed"}]}},"request":{"method":"POST","url":"Observation"}},{"fullUrl":"Observation/944a6a96-13af-4be4-a091-e8b4309843ca","resource":{"resourceType":"Observation","id":"944a6a96-13af-4be4-a091-e8b4309843ca","status":"final","code":{"coding":[{"system":"http://loinc.org","code":"49498-9"}]},"subject":{"reference":"Patient/80607890-0dbf-4113-b93e-e9a9a1c9813a"},"effectiveDateTime":"2022-07-25T00:00:00+00:00","valueCodeableConcept":{"coding":[{"system":"snomed","code":"123456","display":"fake snomed"}]}},"request":{"method":"POST","url":"Observation"}},{"fullUrl":"Observation/414f33d8-387c-4ace-8908-f7b5c7a21163","resource":{"resourceType":"Observation","id":"414f33d8-387c-4ace-8908-f7b5c7a21163","status":"final","code":{"coding":[{"system":"http://loinc.org","code":"49498-9"}]},"subject":{"reference":"Patient/80607890-0dbf-4113-b93e-e9a9a1c9813a"},"effectiveDateTime":"2022-09-05T00:00:00+00:00"},"request":{"method":"POST","url":"Observation"}},{"fullUrl":"Observation/c82ede65-d5a6-4140-acdf-e2d489a60376","resource":{"resourceType":"Observation","id":"c82ede65-d5a6-4140-acdf-e2d489a60376","status":"final","code":{"coding":[{"system":"http://loinc.org","code":"49498-9"}]},"subject":{"reference":"Patient/80607890-0dbf-4113-b93e-e9a9a1c9813a"},"effectiveDateTime":"2022-05-28T00:00:00+00:00"},"request":{"method":"POST","url":"Observation"}},{"fullUrl":"Observation/a46c0a1a-8c35-4049-9010-30d64c59af9e","resource":{"resourceType":"Observation","id":"a46c0a1a-8c35-4049-9010-30d64c59af9e","status":"final","code":{"coding":[{"system":"http://loinc.org","code":"49498-9"}]},"subject":{"reference":"Patient/80607890-0dbf-4113-b93e-e9a9a1c9813a"},"effectiveDateTime":"2022-07-04T00:00:00+00:00"},"request":{"method":"POST","url":"Observation"}},{"fullUrl":"Procedure/a1195d0d-b664-4eca-8362-821414206e10","resource":{"resourceType":"Procedure","id":"a1195d0d-b664-4eca-8362-821414206e10","status":"completed","code":{"coding":[{"system":"http://snomed.info/sct","code":"104001"}]},"subject":{"reference":"Patient/80607890-0dbf-4113-b93e-e9a9a1c9813a"},"performedDateTime":"2022-08-07T00:00:00+00:00"},"request":{"method":"POST","url":"Procedure"}},{"fullUrl":"Procedure/7d61949a-aba5-4004-992e-e22b32cd45da","resource":{"resourceType":"Procedure","id":"7d61949a-aba5-4004-992e-e22b32cd45da","status":"completed","code":{"coding":[{"system":"http://snomed.info/sct","code":"104001"}]},"subject":{"reference":"Patient/80607890-0dbf-4113-b93e-e9a9a1c9813a"},"performedDateTime":"2022-10-08T00:00:00+00:00"},"request":{"method":"POST","url":"Procedure"}},{"fullUrl":"Procedure/792a88c2-2a30-4863-ac88-5d7f2f286b86","resource":{"resourceType":"Procedure","id":"792a88c2-2a30-4863-ac88-5d7f2f286b86","status":"completed","code":{"coding":[{"system":"http://snomed.info/sct","code":"189009"}]},"subject":{"reference":"Patient/80607890-0dbf-4113-b93e-e9a9a1c9813a"},"performedDateTime":"2022-06-05T00:00:00+00:00"},"request":{"method":"POST","url":"Procedure"}},{"fullUrl":"MedicationStatement/9ce6f54f-2cb8-4ba7-9d7f-a71f9caf2738","resource":{"resourceType":"MedicationStatement","id":"9ce6f54f-2cb8-4ba7-9d7f-a71f9caf2738","status":"completed","medicationCodeableConcept":{"coding":[{"system":"http://www.nlm.nih.gov/research/umls/rxnorm","code":"8698"}]},"subject":{"reference":"Patient/80607890-0dbf-4113-b93e-e9a9a1c9813a"},"effectiveDateTime":"2022-07-14T00:00:00+00:00","dosage":[{"doseAndRate":[{"doseQuantity":{"value":2,"unit":"TAB","system":"http://terminology.hl7.org/CodeSystem/v3-orderableDrugForm","code":"TAB"}}]}]},"request":{"method":"POST","url":"MedicationStatement"}},{"fullUrl":"MedicationStatement/ba3fccb0-b9fc-4d4d-9141-064304c10fe0","resource":{"resourceType":"MedicationStatement","id":"ba3fccb0-b9fc-4d4d-9141-064304c10fe0","status":"completed","medicationCodeableConcept":{"coding":[{"system":"http://www.nlm.nih.gov/research/umls/rxnorm","code":"10395"}]},"subject":{"reference":"Patient/80607890-0dbf-4113-b93e-e9a9a1c9813a"},"effectiveDateTime":"2022-03-14T00:00:00+00:00","dosage":[{"doseAndRate":[{"doseQuantity":{"value":1,"unit":"TAB","system":"http://terminology.hl7.org/CodeSystem/v3-orderableDrugForm","code":"TAB"}}]}]},"request":{"method":"POST","url":"MedicationStatement"}},{"fullUrl":"MedicationStatement/c48482fb-3bb6-4584-99de-e041baccc60f","resource":{"resourceType":"MedicationStatement","id":"c48482fb-3bb6-4584-99de-e041baccc60f","status":"completed","medicationCodeableConcept":{"coding":[{"system":"http://www.nlm.nih.gov/research/umls/rxnorm","code":"8698"}]},"subject":{"reference":"Patient/80607890-0dbf-4113-b93e-e9a9a1c9813a"},"effectiveDateTime":"2022-11-01T00:00:00+00:00","dosage":[{"doseAndRate":[{"doseQuantity":{"value":2,"unit":"TAB","system":"http://terminology.hl7.org/CodeSystem/v3-orderableDrugForm","code":"TAB"}}]}]},"request":{"method":"POST","url":"MedicationStatement"}},{"fullUrl":"MedicationStatement/b91a3cfa-57e4-4f06-9cc3-68b067987073","resource":{"resourceType":"MedicationStatement","id":"b91a3cfa-57e4-4f06-9cc3-68b067987073","status":"completed","medicationCodeableConcept":{"coding":[{"system":"http://www.nlm.nih.gov/research/umls/rxnorm","code":"7980"}]},"subject":{"reference":"Patient/80607890-0dbf-4113-b93e-e9a9a1c9813a"},"effectiveDateTime":"2022-11-23T00:00:00+00:00","dosage":[{"doseAndRate":[{"doseQuantity":{"value":2,"unit":"TAB","system":"http://terminology.hl7.org/CodeSystem/v3-orderableDrugForm","code":"TAB"}}]}]},"request":{"method":"POST","url":"MedicationStatement"}},{"fullUrl":"MedicationStatement/753f9f63-b76c-4b4c-a198-ddd9fa434bc2","resource":{"resourceType":"MedicationStatement","id":"753f9f63-b76c-4b4c-a198-ddd9fa434bc2","status":"completed","medicationCodeableConcept":{"coding":[{"system":"http://www.nlm.nih.gov/research/umls/rxnorm","code":"7984"}]},"subject":{"reference":"Patient/80607890-0dbf-4113-b93e-e9a9a1c9813a"},"effectiveDateTime":"2022-12-28T00:00:00+00:00","dosage":[{"doseAndRate":[{"doseQuantity":{"value":4.4,"unit":"TAB","system":"http://terminology.hl7.org/CodeSystem/v3-orderableDrugForm","code":"TAB"}}]}]},"request":{"method":"POST","url":"MedicationStatement"}},{"fullUrl":"MedicationStatement/b5f28d71-047e-4dfc-aeea-5e25694fde0e","resource":{"resourceType":"MedicationStatement","id":"b5f28d71-047e-4dfc-aeea-5e25694fde0e","status":"completed","medicationCodeableConcept":{"coding":[{"system":"http://www.nlm.nih.gov/research/umls/rxnorm","code":"2193"}]},"subject":{"reference":"Patient/80607890-0dbf-4113-b93e-e9a9a1c9813a"},"effectiveDateTime":"2022-10-07T00:00:00+00:00","dosage":[{"doseAndRate":[{"doseQuantity":{"value":5.3,"unit":"TAB","system":"http://terminology.hl7.org/CodeSystem/v3-orderableDrugForm","code":"TAB"}}]}]},"request":{"method":"POST","url":"MedicationStatement"}},{"fullUrl":"MedicationStatement/42e8d79b-2b98-4c5c-b54c-f223a4432911","resource":{"resourceType":"MedicationStatement","id":"42e8d79b-2b98-4c5c-b54c-f223a4432911","status":"completed","medicationCodeableConcept":{"coding":[{"system":"http://www.nlm.nih.gov/research/umls/rxnorm","code":"2193"}]},"subject":{"reference":"Patient/80607890-0dbf-4113-b93e-e9a9a1c9813a"},"effectiveDateTime":"2022-10-17T00:00:00+00:00","dosage":[{"doseAndRate":[{"doseQuantity":{"value":5.4,"unit":"TAB","system":"http://terminology.hl7.org/CodeSystem/v3-orderableDrugForm","code":"TAB"}}]}]},"request":{"method":"POST","url":"MedicationStatement"}},{"fullUrl":"MedicationStatement/b57cbfca-9718-48b0-86c6-b07b6f60a6bd","resource":{"resourceType":"MedicationStatement","id":"b57cbfca-9718-48b0-86c6-b07b6f60a6bd","status":"completed","medicationCodeableConcept":{"coding":[{"system":"http://www.nlm.nih.gov/research/umls/rxnorm","code":"7984"}]},"subject":{"reference":"Patient/80607890-0dbf-4113-b93e-e9a9a1c9813a"},"effectiveDateTime":"2022-11-15T00:00:00+00:00","dosage":[{"doseAndRate":[{"doseQuantity":{"value":4.8,"unit":"TAB","system":"http://terminology.hl7.org/CodeSystem/v3-orderableDrugForm","code":"TAB"}}]}]},"request":{"method":"POST","url":"MedicationStatement"}},{"fullUrl":"MedicationStatement/c180362d-2f3d-445b-8b9b-31be510d1d73","resource":{"resourceType":"MedicationStatement","id":"c180362d-2f3d-445b-8b9b-31be510d1d73","status":"completed","medicationCodeableConcept":{"coding":[{"system":"http://www.nlm.nih.gov/research/umls/rxnorm","code":"10395"}]},"subject":{"reference":"Patient/80607890-0dbf-4113-b93e-e9a9a1c9813a"},"effectiveDateTime":"2022-03-07T00:00:00+00:00","dosage":[{"doseAndRate":[{"doseQuantity":{"value":6.7,"unit":"TAB","system":"http://terminology.hl7.org/CodeSystem/v3-orderableDrugForm","code":"TAB"}}]}]},"request":{"method":"POST","url":"MedicationStatement"}},{"fullUrl":"MedicationStatement/bca85a98-061b-44b0-befa-a7a8563fb44d","resource":{"resourceType":"MedicationStatement","id":"bca85a98-061b-44b0-befa-a7a8563fb44d","status":"completed","medicationCodeableConcept":{"coding":[{"system":"http://www.nlm.nih.gov/research/umls/rxnorm","code":"10395"}]},"subject":{"reference":"Patient/80607890-0dbf-4113-b93e-e9a9a1c9813a"},"effectiveDateTime":"2022-04-26T00:00:00+00:00","dosage":[{"doseAndRate":[{"doseQuantity":{"value":3.7,"unit":"TAB","system":"http://terminology.hl7.org/CodeSystem/v3-orderableDrugForm","code":"TAB"}}]}]},"request":{"method":"POST","url":"MedicationStatement"}},{"fullUrl":"MedicationStatement/e043a63d-0fd0-40ae-99f8-71226013c3e4","resource":{"resourceType":"MedicationStatement","id":"e043a63d-0fd0-40ae-99f8-71226013c3e4","status":"completed","medicationCodeableConcept":{"coding":[{"system":"http://www.nlm.nih.gov/research/umls/rxnorm","code":"2193"}]},"subject":{"reference":"Patient/80607890-0dbf-4113-b93e-e9a9a1c9813a"},"effectiveDateTime":"2022-02-17T00:00:00+00:00","dosage":[{"doseAndRate":[{"doseQuantity":{"value":4.2,"unit":"TAB","system":"http://terminology.hl7.org/CodeSystem/v3-orderableDrugForm","code":"TAB"}}]}]},"request":{"method":"POST","url":"MedicationStatement"}},{"fullUrl":"Encounter/29634374-6151-4926-bd82-4b357859dc90","resource":{"resourceType":"Encounter","id":"29634374-6151-4926-bd82-4b357859dc90","status":"finished","class":{"system":"http://terminology.hl7.org/CodeSystem/v3-ActCode","code":"IMP","display":"inpatient encounter"},"type":[{"coding":[{"system":"http://terminology.hl7.org/CodeSystem/encounter-type","code":"CCS60"}]}],"subject":{"reference":"Patient/80607890-0dbf-4113-b93e-e9a9a1c9813a"},"period":{"start":"2022-08-08T00:00:00+00:00","end":"2022-08-08T00:00:00+00:00"}},"request":{"method":"POST","url":"Encounter"}},{"fullUrl":"Encounter/d1420908-b381-4e9f-8031-d9cae952a499","resource":{"resourceType":"Encounter","id":"d1420908-b381-4e9f-8031-d9cae952a499","status":"finished","class":{"system":"http://terminology.hl7.org/CodeSystem/v3-ActCode","code":"IMP","display":"inpatient encounter"},"type":[{"coding":[{"system":"http://terminology.hl7.org/CodeSystem/encounter-type","code":"ADMS"}]}],"subject":{"reference":"Patient/80607890-0dbf-4113-b93e-e9a9a1c9813a"},"period":{"start":"2022-12-15T00:00:00+00:00","end":"2022-12-18T00:00:00+00:00"}},"request":{"method":"POST","url":"Encounter"}},{"fullUrl":"Encounter/33b121d0-7044-406c-839d-4373253c3e75","resource":{"resourceType":"Encounter","id":"33b121d0-7044-406c-839d-4373253c3e75","status":"finished","class":{"system":"http://terminology.hl7.org/CodeSystem/v3-ActCode","code":"IMP","display":"inpatient encounter"},"type":[{"coding":[{"system":"http://terminology.hl7.org/CodeSystem/encounter-type","code":"ADMS"}]}],"subject":{"reference":"Patient/80607890-0dbf-4113-b93e-e9a9a1c9813a"},"period":{"start":"2022-03-19T00:00:00+00:00","end":"2022-03-23T00:00:00+00:00"}},"request":{"method":"POST","url":"Encounter"}},{"fullUrl":"Encounter/fe31b323-a7e7-4a2b-9b6d-5c1d4320d758","resource":{"resourceType":"Encounter","id":"fe31b323-a7e7-4a2b-9b6d-5c1d4320d758","status":"finished","class":{"system":"http://terminology.hl7.org/CodeSystem/v3-ActCode","code":"VR","display":"virtual"},"type":[{"coding":[{"system":"http://terminology.hl7.org/CodeSystem/encounter-type","code":"BD/BM-clin"}]}],"subject":{"reference":"Patient/80607890-0dbf-4113-b93e-e9a9a1c9813a"},"period":{"start":"2022-12-11T00:00:00+00:00","end":"2022-12-13T00:00:00+00:00"}},"request":{"method":"POST","url":"Encounter"}},{"fullUrl":"Encounter/08dbf742-c1c1-49aa-8f91-bfc89d1a86b8","resource":{"resourceType":"Encounter","id":"08dbf742-c1c1-49aa-8f91-bfc89d1a86b8","status":"finished","class":{"system":"http://terminology.hl7.org/CodeSystem/v3-ActCode","code":"VR","display":"virtual"},"type":[{"coding":[{"system":"http://terminology.hl7.org/CodeSystem/encounter-type","code":"OKI"}]}],"subject":{"reference":"Patient/80607890-0dbf-4113-b93e-e9a9a1c9813a"},"period":{"start":"2022-08-19T00:00:00+00:00","end":"2022-08-28T00:00:00+00:00"}},"request":{"method":"POST","url":"Encounter"}},{"fullUrl":"Encounter/75f46b51-e75b-44c1-b741-9a196bb931e4","resource":{"resourceType":"Encounter","id":"75f46b51-e75b-44c1-b741-9a196bb931e4","status":"finished","class":{"system":"http://terminology.hl7.org/CodeSystem/v3-ActCode","code":"EMER","display":"emergency"},"type":[{"coding":[{"system":"http://terminology.hl7.org/CodeSystem/encounter-type","code":"CCS60"}]}],"subject":{"reference":"Patient/80607890-0dbf-4113-b93e-e9a9a1c9813a"},"period":{"start":"2022-05-04T00:00:00+00:00","end":"2022-05-06T00:00:00+00:00"}},"request":{"method":"POST","url":"Encounter"}},{"fullUrl":"Location/4c37a2fb-fd49-4b47-8b0e-4c6aec9af5d8","resource":{"resourceType":"Location","id":"4c37a2fb-fd49-4b47-8b0e-4c6aec9af5d8","status":"active","name":"Thompson Group","telecom":[{"system":"phone","value":"738.123.9103x271","use":"work"}],"address":{"use":"work","line":["32848 Knight Extensions Apt. 656"],"city":"Jamesmouth","state":"PA","postalCode":"75809"}},"request":{"method":"POST","url":"Location"}},{"fullUrl":"Observation/8f26b9fa-94b4-4efb-901f-dc5e7b268051","resource":{"resourceType":"Observation","id":"8f26b9fa-94b4-4efb-901f-dc5e7b268051","status":"final","code":{"coding":[{"system":"http://loinc.org","code":"81956-5"}]},"subject":{"reference":"Patient/80607890-0dbf-4113-b93e-e9a9a1c9813a"},"effectiveDateTime":"2022-03-11T00:00:00+00:00","valueDateTime":"2021-12-30T00:00:00+00:00"},"request":{"method":"POST","url":"Observation"}},{"fullUrl":"Patient/eec4579b-7f60-41b3-8f94-dee816c520e7","resource":{"resourceType":"Patient","id":"eec4579b-7f60-41b3-8f94-dee816c520e7","identifier":[{"type":{"coding":[{"system":"http://terminology.hl7.org/CodeSystem/v2-0203","code":"MR"}]},"system":"urn:fhirgen:mrn","value":"642-95-9324"},{"system":"http://hl7.org/fhir/sid/us-ssn","value":"742-33-0173"}],"name":[{"use":"official","family":"Thomas","given":["Norman"]},{"use":"maiden","family":"Brown"}],"telecom":[{"system":"phone","value":"075-972-6613x2456","use":"home"},{"system":"email","value":"wilsondylan@gmail.com","use":"work"}],"gender":"male","birthDate":"1977-05-26","address":[{"use":"home","line":["81982 May Ramp"],"city":"Patriciafort","state":"IA","postalCode":"44357"},{"use":"old","line":["911 Dawn Ranch Apt. 856"],"city":"Tammyfort","state":"NY","postalCode":"21631"}],"maritalStatus":{"coding":[{"system":"http://terminology.hl7.org/CodeSystem/v3-MaritalStatus","code":"M","display":"Married"}]}},"request":{"method":"POST","url":"Patient"}},{"fullUrl":"Observation/1d55dc47-253c-4083-ae76-44ab8865edeb","resource":{"resourceType":"Observation","id":"1d55dc47-253c-4083-ae76-44ab8865edeb","status":"final","code":{"coding":[{"system":"http://loinc.org","code":"47235-7"}]},"subject":{"reference":"Patient/eec4579b-7f60-41b3-8f94-dee816c520e7"},"effectiveDateTime":"2022-09-23T00:00:00+00:00","valueRatio":{"numerator":{"value":1},"denominator":{"value":4}}},"request":{"method":"POST","url":"Observation"}},{"fullUrl":"Observation/ad3726ab-b2b1-42ad-a379-241498288751","resource":{"resourceType":"Observation","id":"ad3726ab-b2b1-42ad-a379-241498288751","status":"final","code":{"coding":[{"system":"http://loinc.org","code":"50690-7"}]},"subject":{"reference":"Patient/eec4579b-7f60-41b3-8f94-dee816c520e7"},"effectiveDateTime":"2022-10-25T00:00:00+00:00","valueRatio":{"numerator":{"value":1},"denominator":{"value":32}}},"request":{"method":"POST","url":"Observation"}},{"fullUrl":"Condition/383615bb-d6f8-45d5-81b4-563457cb4915","resource":{"resourceType":"Condition","id":"383615bb-d6f8-45d5-81b4-563457cb4915","code":{"coding":[{"system":"http://snomed.info/sct","code":"71315007"}]},"subject":{"reference":"Patient/eec4579b-7f60-41b3-8f94-dee816c520e7"},"onsetDateTime":"2022-01-28T00:00:00+00:00"},"request":{"method":"POST","url":"Condition"}},{"fullUrl":"Condition/eaaa67bc-3f98-42ea-9a02-ebdb611afa8c","resource":{"resourceType":"Condition","id":"eaaa67bc-3f98-42ea-9a02-ebdb611afa8c","code":{"coding":[{"system":"http://snomed.info/sct","code":"248980004"}]},"subject":{"reference":"Patient/eec4579b-7f60-41b3-8f94-dee816c520e7"},"onsetDateTime":"2022-01-07T00:00:00+00:00"},"request":{"method":"POST","url":"Condition"}},{"fullUrl":"Condition/7ebb3682-377b-4e1e-92c5-395cfb5bb259","resource":{"resourceType":"Condition","id":"7ebb3682-377b-4e1e-92c5-395cfb5bb259","code":{"coding":[{"system":"http://snomed.info/sct","code":"31070006"}]},"subject":{"reference":"Patient/eec4579b-7f60-41b3-8f94-dee816c520e7"},"onsetDateTime":"2022-06-08T00:00:00+00:00"},"request":{"method":"POST","url":"Condition"}},{"fullUrl":"Condition/33b0c579-1e5f-4108-8bbc-5621bb0f6df9","resource":{"resourceType":"Condition","id":"33b0c579-1e5f-4108-8bbc-5621bb0f6df9","code":{"coding":[{"system":"http://snomed.info/sct","code":"18165001"}]},"subject":{"reference":"Patient/eec4579b-7f60-41b3-8f94-dee816c520e7"},"onsetDateTime":"2022-02-11T00:00:00+00:00"},"request":{"method":"POST","url":"Condition"}},{"fullUrl":"Condition/5a677de6-57a6-4be1-a142-9d1494b4dfc2","resource":{"resourceType":"Condition","id":"5a677de6-57a6-4be1-a142-9d1494b4dfc2","code":{"coding":[{"system":"http://snomed.info/sct","code":"198199009"}]},"subject":{"reference":"Patient/eec4579b-7f60-41b3-8f94-dee816c520e7"},"onsetDateTime":"2022-10-25T00:00:00+00:00"},"request":{"method":"POST","url":"Condition"}},{"fullUrl":"Condition/01cf1bc5-cfe1-478c-a65a-47461586d14e","resource":{"resourceType":"Condition","id":"01cf1bc5-cfe1-478c-a65a-47461586d14e","code":{"coding":[{"system":"http://snomed.info/sct","code":"271939006"}]},"subject":{"reference":"Patient/eec4579b-7f60-41b3-8f94-dee816c520e7"},"onsetDateTime":"2022-01-02T00:00:00+00:00"},"request":{"method":"POST","url":"Condition"}},{"fullUrl":"Observation/b529d4a2-c74b-4fa8-a0b7-4d0718091b91","resource":{"resourceType":"Observation","id":"b529d4a2-c74b-4fa8-a0b7-4d0718091b91","status":"final","code":{"coding":[{"system":"http://loinc.org","code":"6690-2"}]},"subject":{"reference":"Patient/eec4579b-7f60-41b3-8f94-dee816c520e7"},"effectiveDateTime":"2022-07-02T00:00:00+00:00","valueQuantity":{"value":5.9}},"request":{"method":"POST","url":"Observation"}},{"fullUrl":"Observation/435f8b60-05a9-43dc-a333-bd315178b1ad","resource":{"resourceType":"Observation","id":"435f8b60-05a9-43dc-a333-bd315178b1ad","status":"final","code":{"coding":[{"system":"http://loinc.org","code":"26464-8"}]},"subject":{"reference":"Patient/eec4579b-7f60-41b3-8f94-dee816c520e7"},"effectiveDateTime":"2022-08-07T00:00:00+00:00","valueQuantity":{"value":8.9}},"request":{"method":"POST","url":"Observation"}},{"fullUrl":"Observation/1ee7273e-1594-4c04-aec8-2bcd5f409576","resource":{"resourceType":"Observation","id":"1ee7273e-1594-4c04-aec8-2bcd5f409576","status":"final","code":{"coding":[{"system":"http://loinc.org","code":"26464-8"}]},"subject":{"reference":"Patient/eec4579b-7f60-41b3-8f94-dee816c520e7"},"effectiveDateTime":"2022-11-19T00:00:00+00:00","valueQuantity":{"value":5}},"request":{"method":"POST","url":"Observation"}},{"fullUrl":"Observation/8636b485-f6ff-446d-a77d-1689a3adba32","resource":{"resourceType":"Observation","id":"8636b485-f6ff-446d-a77d-1689a3adba32","status":"final","code":{"coding":[{"system":"http://loinc.org","code":"804-5"}]},"subject":{"reference":"Patient/eec4579b-7f60-41b3-8f94-dee816c520e7"},"effectiveDateTime":"2022-03-26T00:00:00+00:00","valueCodeableConcept":{"coding":[{"system":"snomed","code":"123456","display":"fake snomed"}]}},"request":{"method":"POST","url":"Observation"}},{"fullUrl":"Observation/9c93345b-b41d-4ce4-b7e9-b46216918eef","resource":{"resourceType":"Observation","id":"9c93345b-b41d-4ce4-b7e9-b46216918eef","status":"final","code":{"coding":[{"system":"http://loinc.org","code":"804-5"}]},"subject":{"reference":"Patient/eec4579b-7f60-41b3-8f94-dee816c520e7"},"effectiveDateTime":"2022-03-22T00:00:00+00:00","valueCodeableConcept":{"coding":[{"system":"snomed","code":"123456","display":"fake snomed"}]}},"request":{"method":"POST","url":"Observation"}},{"fullUrl":"Observation/4693cd55-ccc0-4d69-ad63-d3aa863ef634","resource":{"resourceType":"Observation","id":"4693cd55-ccc0-4d69-ad63-d3aa863ef634","status":"final","code":{"coding":[{"system":"http://www.ama-assn.org/go/cpt","code":"85048"}]},"subject":{"reference":"Patient/eec4579b-7f60-41b3-8f94-dee816c520e7"},"effectiveDateTime":"2022-07-09T00:00:00+00:00","valueCodeableConcept":{"coding":[{"system":"snomed","code":"123456","display":"fake snomed"}]}},"request":{"method":"POST","url":"Observation"}},{"fullUrl":"Observation/65f9f655-01da-414f-9f95-5dd9eb0e37aa","resource":{"resourceType":"Observation","id":"65f9f655-01da-414f-9f95-5dd9eb0e37aa","status":"final","code":{"coding":[{"system":"http://loinc.org","code":"49498-9"}]},"subject":{"reference":"Patient/eec4579b-7f60-41b3-8f94-dee816c520e7"},"effectiveDateTime":"2022-09-16T00:00:00+00:00"},"request":{"method":"POST","url":"Observation"}},{"fullUrl":"Observation/3598df81-4689-4e74-a40d-0464e4ec3da9","resource":{"resourceType":"Observation","id":"3598df81-4689-4e74-a40d-0464e4ec3da9","status":"final","code":{"coding":[{"system":"http://loinc.org","code":"49498-9"}]},"subject":{"reference":"Patient/eec4579b-7f60-41b3-8f94-dee816c520e7"},"effectiveDateTime":"2022-12-12T00:00:00+00:00"},"request":{"method":"POST","url":"Observation"}},{"fullUrl":"Procedure/7555c2fd-0bd3-46ae-aa3e-afb41e5d26c0","resource":{"resourceType":"Procedure","id":"7555c2fd-0bd3-46ae-aa3e-afb41e5d26c0","status":"completed","code":{"coding":[{"system":"http://snomed.info/sct","code":"647000"}]},"subject":{"reference":"Patient/eec4579b-7f60-41b3-8f94-dee816c520e7"},"performedDateTime":"2022-10-08T00:00:00+00:00"},"request":{"method":"POST","url":"Procedure"}},{"fullUrl":"Procedure/f02f0d4a-4340-498e-8f7d-4d170cf1b180","resource":{"resourceType":"Procedure","id":"f02f0d4a-4340-498e-8f7d-4d170cf1b180","status":"completed","code":{"coding":[{"system":"http://snomed.info/sct","code":"115006"}]},"subject":{"reference":"Patient/eec4579b-7f60-41b3-8f94-dee816c520e7"},"performedDateTime":"2022-06-10T00:00:00+00:00"},"request":{"method":"POST","url":"Procedure"}},{"fullUrl":"Procedure/12a2f495-f3f3-48d0-8519-4705030e4753","resource":{"resourceType":"Procedure","id":"12a2f495-f3f3-48d0-8519-4705030e4753","status":"completed","code":{"coding":[{"system":"http://snomed.info/sct","code":"647000"}]},"subject":{"reference":"Patient/eec4579b-7f60-41b3-8f94-dee816c520e7"},"performedDateTime":"2022-09-01T00:00:00+00:00"},"request":{"method":"POST","url":"Procedure"}},{"fullUrl":"MedicationStatement/2e52cc2e-1927-4e90-a759-e8011b781c92","resource":{"resourceType":"MedicationStatement","id":"2e52cc2e-1927-4e90-a759-e8011b781c92","status":"completed","medicationCodeableConcept":{"coding":[{"system":"http://www.nlm.nih.gov/research/umls/rxnorm","code":"3640"}]},"subject":{"reference":"Patient/eec4579b-7f60-41b3-8f94-dee816c520e7"},"effectiveDateTime":"2022-06-06T00:00:00+00:00","dosage":[{"doseAndRate":[{"doseQuantity":{"value":1,"unit":"TAB","system":"http://terminology.hl7.org/CodeSystem/v3-orderableDrugForm","code":"TAB"}}]}]},"request":{"method":"POST","url":"MedicationStatement"}},{"fullUrl":"MedicationStatement/1ac7e017-c89c-4d15-aa91-616d7a33ee59","resource":{"resourceType":"MedicationStatement","id":"1ac7e017-c89c-4d15-aa91-616d7a33ee59","status":"completed","medicationCodeableConcept":{"coding":[{"system":"http://www.nlm.nih.gov/research/umls/rxnorm","code":"7980"}]},"subject":{"reference":"Patient/eec4579b-7f60-41b3-8f94-dee816c520e7"},"effectiveDateTime":"2022-09-12T00:00:00+00:00","dosage":[{"doseAndRate":[{"doseQuantity":{"value":2,"unit":"TAB","system":"http://terminology.hl7.org/CodeSystem/v3-orderableDrugForm","code":"TAB"}}]}]},"request":{"method":"POST","url":"MedicationStatement"}},{"fullUrl":"MedicationStatement/0f4a405b-bbd0-4632-a940-cb50fde5c20e","resource":{"resourceType":"MedicationStatement","id":"0f4a405b-bbd0-4632-a940-cb50fde5c20e","status":"completed","medicationCodeableConcept":{"coding":[{"system":"http://www.nlm.nih.gov/research/umls/rxnorm","code":"2193"}]},"subject":{"reference":"Patient/eec4579b-7f60-41b3-8f94-dee816c520e7"},"effectiveDateTime":"2022-11-26T00:00:00+00:00","dosage":[{"doseAndRate":[{"doseQuantity":{"value":1,"unit":"TAB","system":"http://terminology.hl7.org/CodeSystem/v3-orderableDrugForm","code":"TAB"}}]}]},"request":{"method":"POST","url":"MedicationStatement"}},{"fullUrl":"MedicationStatement/7fb14bd7-2415-4059-aaed-c98eb27b0f01","resource":{"resourceType":"MedicationStatement","id":"7fb14bd7-2415-4059-aaed-c98eb27b0f01","status":"completed","medicationCodeableConcept":{"coding":[{"system":"http://www.nlm.nih.gov/research/umls/rxnorm","code":"10395"}]},"subject":{"reference":"Patient/eec4579b-7f60-41b3-8f94-dee816c520e7"},"effectiveDateTime":"2022-05-16T00:00:00+00:00","dosage":[{"doseAndRate":[{"doseQuantity":{"value":2,"unit":"TAB","system":"http://terminology.hl7.org/CodeSystem/v3-orderableDrugForm","code":"TAB"}}]}]},"request":{"method":"POST","url":"MedicationStatement"}},{"fullUrl":"MedicationStatement/fa7d8a95-1354-4382-9666-9b518664bcea","resource":{"resourceType":"MedicationStatement","id":"fa7d8a95-1354-4382-9666-9b518664bcea","status":"completed","medicationCodeableConcept":{"coding":[{"system":"http://www.nlm.nih.gov/research/umls/rxnorm","code":"18631"}]},"subject":{"reference":"Patient/eec4579b-7f60-41b3-8f94-dee816c520e7"},"effectiveDateTime":"2022-12-11T00:00:00+00:00","dosage":[{"doseAndRate":[{"doseQuantity":{"value":2,"unit":"TAB","system":"http://terminology.hl7.org/CodeSystem/v3-orderableDrugForm","code":"TAB"}}]}]},"request":{"method":"POST","url":"MedicationStatement"}},{"fullUrl":"MedicationStatement/f2aac077-06d8-416d-9494-6937dc8b3965","resource":{"resourceType":"MedicationStatement","id":"f2aac077-06d8-416d-9494-6937dc8b3965","status":"completed","medicationCodeableConcept":{"coding":[{"system":"http://www.nlm.nih.gov/research/umls/rxnorm","code":"18631"}]},"subject":{"reference":"Patient/eec4579b-7f60-41b3-8f94-dee816c520e7"},"effectiveDateTime":"2022-04-20T00:00:00+00:00","dosage":[{"doseAndRate":[{"doseQuantity":{"value":2,"unit":"TAB","system":"http://terminology.hl7.org/CodeSystem/v3-orderableDrugForm","code":"TAB"}}]}]},"request":{"method":"POST","url":"MedicationStatement"}},{"fullUrl":"MedicationStatement/32ecb12f-ce98-4c27-9f06-9d9a6622f19c","resource":{"resourceType":"MedicationStatement","id":"32ecb12f-ce98-4c27-9f06-9d9a6622f19c","status":"completed","medicationCodeableConcept":{"coding":[{"system":"http://www.nlm.nih.gov/research/umls/rxnorm","code":"7984"}]},"subject":{"reference":"Patient/eec4579b-7f60-41b3-8f94-dee816c520e7"},"effectiveDateTime":"2022-05-15T00:00:00+00:00","dosage":[{"doseAndRate":[{"doseQuantity":{"value":1,"unit":"TAB","system":"http://terminology.hl7.org/CodeSystem/v3-orderableDrugForm","code":"TAB"}}]}]},"request":{"method":"POST","url":"MedicationStatement"}},{"fullUrl":"MedicationStatement/7b01828f-0ce6-4c59-a983-f109920ad36d","resource":{"resourceType":"MedicationStatement","id":"7b01828f-0ce6-4c59-a983-f109920ad36d","status":"completed","medicationCodeableConcept":{"coding":[{"system":"http://www.nlm.nih.gov/research/umls/rxnorm","code":"7980"}]},"subject":{"reference":"Patient/eec4579b-7f60-41b3-8f94-dee816c520e7"},"effectiveDateTime":"2022-03-23T00:00:00+00:00","dosage":[{"doseAndRate":[{"doseQuantity":{"value":1,"unit":"TAB","system":"http://terminology.hl7.org/CodeSystem/v3-orderableDrugForm","code":"TAB"}}]}]},"request":{"method":"POST","url":"MedicationStatement"}},{"fullUrl":"MedicationStatement/d9dbd106-322c-4919-9894-4736114f1580","resource":{"resourceType":"MedicationStatement","id":"d9dbd106-322c-4919-9894-4736114f1580","status":"completed","medicationCodeableConcept":{"coding":[{"system":"http://www.nlm.nih.gov/research/umls/rxnorm","code":"7984"}]},"subject":{"reference":"Patient/eec4579b-7f60-41b3-8f94-dee816c520e7"},"effectiveDateTime":"2022-07-10T00:00:00+00:00","dosage":[{"doseAndRate":[{"doseQuantity":{"value":3.1,"unit":"TAB","system":"http://terminology.hl7.org/CodeSystem/v3-orderableDrugForm","code":"TAB"}}]}]},"request":{"method":"POST","url":"MedicationStatement"}},{"fullUrl":"MedicationStatement/2287b185-362c-4dfa-b8a8-385d2aecef4d","resource":{"resourceType":"MedicationStatement","id":"2287b185-362c-4dfa-b8a8-385d2aecef4d","status":"completed","medicationCodeableConcept":{"coding":[{"system":"http://www.nlm.nih.gov/research/umls/rxnorm","code":"7980"}]},"subject":{"reference":"Patient/eec4579b-7f60-41b3-8f94-dee816c520e7"},"effectiveDateTime":"2022-12-29T00:00:00+00:00","dosage":[{"doseAndRate":[{"doseQuantity":{"value":6.8,"unit":"TAB","system":"http://terminology.hl7.org/CodeSystem/v3-orderableDrugForm","code":"TAB"}}]}]},"request":{"method":"POST","url":"MedicationStatement"}},{"fullUrl":"MedicationStatement/367a0dce-c954-4625-a9b5-951cbe4285d2","resource":{"resourceType":"MedicationStatement","id":"367a0dce-c954-4625-a9b5-951cbe4285d2","status":"completed","medicationCodeableConcept":{"coding":[{"system":"http://www.nlm.nih.gov/research/umls/rxnorm","code":"18631"}]},"subject":{"reference":"Patient/eec4579b-7f60-41b3-8f94-dee816c520e7"},"effectiveDateTime":"2022-10-26T00:00:00+00:00","dosage":[{"doseAndRate":[{"doseQuantity":{"value":5.9,"unit":"TAB","system":"http://terminology.hl7.org/CodeSystem/v3-orderableDrugForm","code":"TAB"}}]}]},"request":{"method":"POST","url":"MedicationStatement"}},{"fullUrl":"MedicationStatement/8e0328ab-8266-4393-90ae-f11a2b54f9a5","resource":{"resourceType":"MedicationStatement","id":"8e0328ab-8266-4393-90ae-f11a2b54f9a5","status":"completed","medicationCodeableConcept":{"coding":[{"system":"http://www.nlm.nih.gov/research/umls/rxnorm","code":"7984"}]},"subject":{"reference":"Patient/eec4579b-7f60-41b3-8f94-dee816c520e7"},"effectiveDateTime":"2022-04-26T00:00:00+00:00","dosage":[{"doseAndRate":[{"doseQuantity":{"value":3.2,"unit":"TAB","system":"http://terminology.hl7.org/CodeSystem/v3-orderableDrugForm","code":"TAB"}}]}]},"request":{"method":"POST","url":"MedicationStatement"}},{"fullUrl":"MedicationStatement/f2b3688f-d7d4-4150-9110-ccc489a9b114","resource":{"resourceType":"MedicationStatement","id":"f2b3688f-d7d4-4150-9110-ccc489a9b114","status":"completed","medicationCodeableConcept":{"coding":[{"system":"http://www.nlm.nih.gov/research/umls/rxnorm","code":"18631"}]},"subject":{"reference":"Patient/eec4579b-7f60-41b3-8f94-dee816c520e7"},"effectiveDateTime":"2022-01-13T00:00:00+00:00","dosage":[{"doseAndRate":[{"doseQuantity":{"value":3.5,"unit":"TAB","system":"http://terminology.hl7.org/CodeSystem/v3-orderableDrugForm","code":"TAB"}}]}]},"request":{"method":"POST","url":"MedicationStatement"}},{"fullUrl":"MedicationStatement/402ad0ff-f52f-467c-8007-1f279cd3b591","resource":{"resourceType":"MedicationStatement","id":"402ad0ff-f52f-467c-8007-1f279cd3b591","status":"completed","medicationCodeableConcept":{"coding":[{"system":"http://www.nlm.nih.gov/research/umls/rxnorm","code":"8698"}]},"subject":{"reference":"Patient/eec4579b-7f60-41b3-8f94-dee816c520e7"},"effectiveDateTime":"2022-09-13T00:00:00+00:00","dosage":[{"doseAndRate":[{"doseQuantity":{"value":4.4,"unit":"TAB","system":"http://terminology.hl7.org/CodeSystem/v3-orderableDrugForm","code":"TAB"}}]}]},"request":{"method":"POST","url":"MedicationStatement"}},{"fullUrl":"MedicationStatement/22cb18ae-630b-44b0-8927-634df9e4d9b4","resource":{"resourceType":"MedicationStatement","id":"22cb18ae-630b-44b0-8927-634df9e4d9b4","status":"completed","medicationCodeableConcept":{"coding":[{"system":"http://www.nlm.nih.gov/research/umls/rxnorm","code":"2193"}]},"subject":{"reference":"Patient/eec4579b-7f60-41b3-8f94-dee816c520e7"},"effectiveDateTime":"2022-12-26T00:00:00+00:00","dosage":[{"doseAndRate":[{"doseQuantity":{"value":4.3,"unit":"TAB","system":"http://terminology.hl7.org/CodeSystem/v3-orderableDrugForm","code":"TAB"}}]}]},"request":{"method":"POST","url":"MedicationStatement"}},{"fullUrl":"Encounter/b924c039-dbdb-4af9-9761-b8bdd0bebe1e","resource":{"resourceType":"Encounter","id":"b924c039-dbdb-4af9-9761-b8bdd0bebe1e","status":"finished","class":{"system":"http://terminology.hl7.org/CodeSystem/v3-ActCode","code":"IMP","display":"inpatient encounter"},"type":[{"coding":[{"system":"http://terminology.hl7.org/CodeSystem/encounter-type","code":"BD/BM-clin"}]}],"subject":{"reference":"Patient/eec4579b-7f60-41b3-8f94-dee816c520e7"},"period":{"start":"2022-09-26T00:00:00+00:00","end":"2022-10-05T00:00:00+00:00"}},"request":{"method":"POST","url":"Encounter"}},{"fullUrl":"Encounter/a8239e90-d8e0-4a55-90d4-4d2ad4ee8e31","resource":{"resourceType":"Encounter","id":"a8239e90-d8e0-4a55-90d4-4d2ad4ee8e31","status":"finished","class":{"system":"http://terminology.hl7.org/CodeSystem/v3-ActCode","code":"IMP","display":"inpatient encounter"},"type":[{"coding":[{"system":"http://terminology.hl7.org/CodeSystem/encounter-type","code":"BD/BM-clin"}]}],"subject":{"reference":"Patient/eec4579b-7f60-41b3-8f94-dee816c520e7"},"period":{"start":"2022-01-30T00:00:00+00:00","end":"2022-02-07T00:00:00+00:00"}},"request":{"method":"POST","url":"Encounter"}},{"fullUrl":"Encounter/a8226456-064a-4761-8bce-0f6aabe694c6","resource":{"resourceType":"Encounter","id":"a8226456-064a-4761-8bce-0f6aabe694c6","status":"finished","class":{"system":"http://terminology.hl7.org/CodeSystem/v3-ActCode","code":"IMP","display":"inpatient encounter"},"type":[{"coding":[{"system":"http://terminology.hl7.org/CodeSystem/encounter-type","code":"CCS60"}]}],"subject":{"reference":"Patient/eec4579b-7f60-41b3-8f94-dee816c520e7"},"period":{"start":"2022-12-04T00:00:00+00:00","end":"2022-12-08T00:00:00+00:00"}},"request":{"method":"POST","url":"Encounter"}},{"fullUrl":"Encounter/94bc8e4b-dce8-4a80-a640-c3e6063271e4","resource":{"resourceType":"Encounter","id":"94bc8e4b-dce8-4a80-a640-c3e6063271e4","status":"finished","class":{"system":"http://terminology.hl7.org/CodeSystem/v3-ActCode","code":"VR","display":"virtual"},"type":[{"coding":[{"system":"http://terminology.hl7.org/CodeSystem/encounter-type","code":"OKI"}]}],"subject":{"reference":"Patient/eec4579b-7f60-41b3-8f94-dee816c520e7"},"period":{"start":"2022-12-16T00:00:00+00:00","end":"2022-12-18T00:00:00+00:00"}},"request":{"method":"POST","url":"Encounter"}},{"fullUrl":"Encounter/0a7b03a8-92d8-4d90-aebb-045744f02142","resource":{"resourceType":"Encounter","id":"0a7b03a8-92d8-4d90-aebb-045744f02142","status":"finished","class":{"system":"http://terminology.hl7.org/CodeSystem/v3-ActCode","code":"OBSENC","display":"observation encounter"},"type":[{"coding":[{"system":"http://terminology.hl7.org/CodeSystem/encounter-type","code":"OKI"}]}],"subject":{"reference":"Patient/eec4579b-7f60-41b3-8f94-dee816c520e7"},"period":{"start":"2022-03-05T00:00:00+00:00","end":"2022-03-09T00:00:00+00:00"}},"request":{"method":"POST","url":"Encounter"}},{"fullUrl":"Encounter/52c2a178-a69c-40fa-92ac-230cb133dff1","resource":{"resourceType":"Encounter","id":"52c2a178-a69c-40fa-92ac-230cb133dff1","status":"finished","class":{"system":"http://terminology.hl7.org/CodeSystem/v3-ActCode","code":"HH","display":"home health"},"type":[{"coding":[{"system":"http://terminology.hl7.org/CodeSystem/encounter-type","code":"BD/BM-clin"}]}],"subject":{"reference":"Patient/eec4579b-7f60-41b3-8f94-dee816c520e7"},"period":{"start":"2022-10-05T00:00:00+00:00","end":"2022-10-12T00:00:00+00:00"}},"request":{"method":"POST","url":"Encounter"}},{"fullUrl":"Location/4aae437f-d169-4c5d-a8ad-6107a82db476","resource":{"resourceType":"Location","id":"4aae437f-d169-4c5d-a8ad-6107a82db476","status":"active","name":"Barnett, Ruiz and Hall","telecom":[{"system":"phone","value":"(136)303-6466x47477","use":"home"}],"address":{"use":"work","line":["6831 Gregory Street"],"city":"New Christopher","state":"NY","postalCode":"86625"}},"request":{"method":"POST","url":"Location"}},{"fullUrl":"Observation/0e1b4de6-a3b1-4e80-ac68-a0847cff94d1","resource":{"resourceType":"Observation","id":"0e1b4de6-a3b1-4e80-ac68-a0847cff94d1","status":"final","code":{"coding":[{"system":"http://loinc.org","code":"81956-5"}]},"subject":{"reference":"Patient/eec4579b-7f60-41b3-8f94-dee816c520e7"},"effectiveDateTime":"2022-10-16T00:00:00+00:00","valueDateTime":"2022-10-12T00:00:00+00:00"},"request":{"method":"POST","url":"Observation"}},{"fullUrl":"Patient/0a2527a1-6cf9-40f8-b61b-d9f633215b91","resource":{"resourceType":"Patient","id":"0a2527a1-6cf9-40f8-b61b-d9f633215b91","identifier":[{"type":{"coding":[{"system":"http://terminology.hl7.org/CodeSystem/v2-0203","code":"MR"}]},"system":"urn:fhirgen:mrn","value":"458-23-0813"},{"system":"http://hl7.org/fhir/sid/us-ssn","value":"025-22-8570"}],"name":[{"use":"official","family":"Lopez","given":["Tiffany"]},{"use":"maiden","family":"Garcia"}],"telecom":[{"system":"phone","value":"001-075-417-0235x21363","use":"mobile"},{"system":"email","value":"wrios@yahoo.com","use":"mobile"}],"gender":"female","birthDate":"1994-03-14","address":[{"use":"home","line":["45552 Cordova Trafficway"],"city":"Billyberg","state":"AK","postalCode":"00390"},{"use":"old","line":["923 Cooper Alley Apt. 562"],"city":"East Katherineton","state":"ME","postalCode":"01419"}],"maritalStatus":{"coding":[{"system":"http://terminology.hl7.org/CodeSystem/v3-MaritalStatus","code":"U","display":"unmarried"}]}},"request":{"method":"POST","url":"Patient"}},{"fullUrl":"Observation/55d48310-a12e-414f-83eb-13f1a7c351c6","resource":{"resourceType":"Observation","id":"55d48310-a12e-414f-83eb-13f1a7c351c6","status":"final","code":{"coding":[{"system":"http://loinc.org","code":"5394-2"}]},"subject":{"reference":"Patient/0a2527a1-6cf9-40f8-b61b-d9f633215b91"},"effectiveDateTime":"2022-10-19T00:00:00+00:00","valueRatio":{"numerator":{"value":1},"denominator":{"value":64}}},"request":{"method":"POST","url":"Observation"}},{"fullUrl":"Observation/f0df85f3-fe18-4638-af4b-0eaffa90e61a","resource":{"resourceType":"Observation","id":"f0df85f3-fe18-4638-af4b-0eaffa90e61a","status":"final","code":{"coding":[{"system":"http://loinc.org","code":"71793-4"}]},"subject":{"reference":"Patient/0a2527a1-6cf9-40f8-b61b-d9f633215b91"},"effectiveDateTime":"2022-12-08T00:00:00+00:00","valueRatio":{"numerator":{"value":1},"denominator":{"value":4}}},"request":{"method":"POST","url":"Observation"}},{"fullUrl":"Observation/6c67d0a4-5713-409e-b651-6ca7ff457e00","resource":{"resourceType":"Observation","id":"6c67d0a4-5713-409e-b651-6ca7ff457e00","status":"final","code":{"coding":[{"system":"http://loinc.org","code":"5394-2"}]},"subject":{"reference":"Patient/0a2527a1-6cf9-40f8-b61b-d9f633215b91"},"effectiveDateTime":"2022-05-22T00:00:00+00:00","valueRatio":{"numerator":{"value":1},"denominator":{"value":32}}},"request":{"method":"POST","url":"Observation"}},{"fullUrl":"Condition/24521c2f-eb4e-4c70-833e-b1245698f9fb","resource":{"resourceType":"Condition","id":"24521c2f-eb4e-4c70-833e-b1245698f9fb","code":{"coding":[{"system":"http://snomed.info/sct","code":"79342006"}]},"subject":{"reference":"Patient/0a2527a1-6cf9-40f8-b61b-d9f633215b91"},"onsetDateTime":"2022-06-11T00:00:00+00:00"},"request":{"method":"POST","url":"Condition"}},{"fullUrl":"Condition/ecdeb106-8cfd-4d78-9789-57e11a28c73d","resource":{"resourceType":"Condition","id":"ecdeb106-8cfd-4d78-9789-57e11a28c73d","code":{"coding":[{"system":"http://snomed.info/sct","code":"709977002"}]},"subject":{"reference":"Patient/0a2527a1-6cf9-40f8-b61b-d9f633215b91"},"onsetDateTime":"2022-10-17T00:00:00+00:00"},"request":{"method":"POST","url":"Condition"}},{"fullUrl":"Condition/ae2b1580-4cbb-4581-b3ba-ab022d210290","resource":{"resourceType":"Condition","id":"ae2b1580-4cbb-4581-b3ba-ab022d210290","code":{"coding":[{"system":"http://snomed.info/sct","code":"30746006"}]},"subject":{"reference":"Patient/0a2527a1-6cf9-40f8-b61b-d9f633215b91"},"onsetDateTime":"2022-05-22T00:00:00+00:00"},"request":{"method":"POST","url":"Condition"}},{"fullUrl":"Condition/debca349-2c1d-43e2-b4d4-941a0f24440a","resource":{"resourceType":"Condition","id":"debca349-2c1d-43e2-b4d4-941a0f24440a","code":{"coding":[{"system":"http://snomed.info/sct","code":"271807003"}]},"subject":{"reference":"Patient/0a2527a1-6cf9-40f8-b61b-d9f633215b91"},"onsetDateTime":"2022-07-17T00:00:00+00:00"},"request":{"method":"POST","url":"Condition"}},{"fullUrl":"Condition/068bc8dc-887b-490f-839b-8cdd40b9a305","resource":{"resourceType":"Condition","id":"068bc8dc-887b-490f-839b-8cdd40b9a305","code":{"coding":[{"system":"http://snomed.info/sct","code":"56317004"}]},"subject":{"reference":"Patient/0a2527a1-6cf9-40f8-b61b-d9f633215b91"},"onsetDateTime":"2022-10-02T00:00:00+00:00"},"request":{"method":"POST","url":"Condition"}},{"fullUrl":"Condition/4555049a-f08f-4850-9228-1011b1d34862","resource":{"resourceType":"Condition","id":"4555049a-f08f-4850-9228-1011b1d34862","code":{"coding":[{"system":"http://snomed.info/sct","code":"271807003"}]},"subject":{"reference":"Patient/0a2527a1-6cf9-40f8-b61b-d9f633215b91"},"onsetDateTime":"2022-08-29T00:00:00+00:00"},"request":{"method":"POST","url":"Condition"}},{"fullUrl":"Observation/336aee09-7d65-438d-9f15-83267d365273","resource":{"resourceType":"Observation","id":"336aee09-7d65-438d-9f15-83267d365273","status":"final","code":{"coding":[{"system":"http://loinc.org","code":"6690-2"}]},"subject":{"reference":"Patient/0a2527a1-6cf9-40f8-b61b-d9f633215b91"},"effectiveDateTime":"2022-08-23T00:00:00+00:00","valueQuantity":{"value":4.1}},"request":{"method":"POST","url":"Observation"}},{"fullUrl":"Observation/28860bd9-9382-4024-9eba-fa5c0617de30","resource":{"resourceType":"Observation","id":"28860bd9-9382-4024-9eba-fa5c0617de30","status":"final","code":{"coding":[{"system":"http://loinc.org","code":"804-5"}]},"subject":{"reference":"Patient/0a2527a1-6cf9-40f8-b61b-d9f633215b91"},"effectiveDateTime":"2022-01-02T00:00:00+00:00","valueQuantity":{"value":7.4}},"request":{"method":"POST","url":"Observation"}},{"fullUrl":"Observation/b80c9359-f808-4511-a086-a7df69547315","resource":{"resourceType":"Observation","id":"b80c9359-f808-4511-a086-a7df69547315","status":"final","code":{"coding":[{"system":"http://www.ama-assn.org/go/cpt","code":"85048"}]},"subject":{"reference":"Patient/0a2527a1-6cf9-40f8-b61b-d9f633215b91"},"effectiveDateTime":"2022-07-15T00:00:00+00:00","valueCodeableConcept":{"coding":[{"system":"snomed","code":"123456","display":"fake snomed"}]}},"request":{"method":"POST","url":"Observation"}},{"fullUrl":"Observation/5308ea9e-ae0e-4e34-9308-6e0611dbc78c","resource":{"resourceType":"Observation","id":"5308ea9e-ae0e-4e34-9308-6e0611dbc78c","status":"final","code":{"coding":[{"system":"http://loinc.org","code":"6690-2"}]},"subject":{"reference":"Patient/0a2527a1-6cf9-40f8-b61b-d9f633215b91"},"effectiveDateTime":"2022-04-25T00:00:00+00:00","valueCodeableConcept":{"coding":[{"system":"snomed","code":"123456","display":"fake snomed"}]}},"request":{"method":"POST","url":"Observation"}},{"fullUrl":"Observation/a762132c-31d1-49e8-897f-376954b0c3c6","resource":{"resourceType":"Observation","id":"a762132c-31d1-49e8-897f-376954b0c3c6","status":"final","code":{"coding":[{"system":"http://loinc.org","code":"49498-9"}]},"subject":{"reference":"Patient/0a2527a1-6cf9-40f8-b61b-d9f633215b91"},"effectiveDateTime":"2022-02-06T00:00:00+00:00"},"request":{"method":"POST","url":"Observation"}},{"fullUrl":"Observation/ab63fa05-7736-4afb-986e-228da5e1476f","resource":{"resourceType":"Observation","id":"ab63fa05-7736-4afb-986e-228da5e1476f","status":"final","code":{"coding":[{"system":"http://loinc.org","code":"49498-9"}]},"subject":{"reference":"Patient/0a2527a1-6cf9-40f8-b61b-d9f633215b91"},"effectiveDateTime":"2022-10-25T00:00:00+00:00"},"request":{"method":"POST","url":"Observation"}},{"fullUrl":"Observation/e079026d-7a36-4bbd-85b3-d0ac856d8b2e","resource":{"resourceType":"Observation","id":"e079026d-7a36-4bbd-85b3-d0ac856d8b2e","status":"final","code":{"coding":[{"system":"http://loinc.org","code":"49498-9"}]},"subject":{"reference":"Patient/0a2527a1-6cf9-40f8-b61b-d9f633215b91"},"effectiveDateTime":"2022-04-07T00:00:00+00:00"},"request":{"method":"POST","url":"Observation"}},{"fullUrl":"Procedure/ee984af5-236f-4ed0-ae2d-cd82a9cafbe6","resource":{"resourceType":"Procedure","id":"ee984af5-236f-4ed0-ae2d-cd82a9cafbe6","status":"completed","code":{"coding":[{"system":"http://snomed.info/sct","code":"115006"}]},"subject":{"reference":"Patient/0a2527a1-6cf9-40f8-b61b-d9f633215b91"},"performedDateTime":"2022-04-15T00:00:00+00:00"},"request":{"method":"POST","url":"Procedure"}},{"fullUrl":"Procedure/a70f1a93-ae80-4cbf-98d0-fb5113b44eac","resource":{"resourceType":"Procedure","id":"a70f1a93-ae80-4cbf-98d0-fb5113b44eac","status":"completed","code":{"coding":[{"system":"http://snomed.info/sct","code":"647000"}]},"subject":{"reference":"Patient/0a2527a1-6cf9-40f8-b61b-d9f633215b91"},"performedDateTime":"2022-04-04T00:00:00+00:00"},"request":{"method":"POST","url":"Procedure"}},{"fullUrl":"Procedure/803736d7-06e9-4a66-b939-3c355584ceb4","resource":{"resourceType":"Procedure","id":"803736d7-06e9-4a66-b939-3c355584ceb4","status":"completed","code":{"coding":[{"system":"http://snomed.info/sct","code":"647000"}]},"subject":{"reference":"Patient/0a2527a1-6cf9-40f8-b61b-d9f633215b91"},"performedDateTime":"2022-08-03T00:00:00+00:00"},"request":{"method":"POST","url":"Procedure"}},{"fullUrl":"MedicationStatement/0fc13b95-22c0-4195-afef-c5baf82519aa","resource":{"resourceType":"MedicationStatement","id":"0fc13b95-22c0-4195-afef-c5baf82519aa","status":"completed","medicationCodeableConcept":{"coding":[{"system":"http://www.nlm.nih.gov/research/umls/rxnorm","code":"8698"}]},"subject":{"reference":"Patient/0a2527a1-6cf9-40f8-b61b-d9f633215b91"},"effectiveDateTime":"2022-11-11T00:00:00+00:00","dosage":[{"doseAndRate":[{"doseQuantity":{"value":2,"unit":"TAB","system":"http://terminology.hl7.org/CodeSystem/v3-orderableDrugForm","code":"TAB"}}]}]},"request":{"method":"POST","url":"MedicationStatement"}},{"fullUrl":"MedicationStatement/bf084a4d-6835-464b-bae3-ccb44b4867fd","resource":{"resourceType":"MedicationStatement","id":"bf084a4d-6835-464b-bae3-ccb44b4867fd","status":"completed","medicationCodeableConcept":{"coding":[{"system":"http://www.nlm.nih.gov/research/umls/rxnorm","code":"8698"}]},"subject":{"reference":"Patient/0a2527a1-6cf9-40f8-b61b-d9f633215b91"},"effectiveDateTime":"2022-09-28T00:00:00+00:00","dosage":[{"doseAndRate":[{"doseQuantity":{"value":2,"unit":"TAB","system":"http://terminology.hl7.org/CodeSystem/v3-orderableDrugForm","code":"TAB"}}]}]},"request":{"method":"POST","url":"MedicationStatement"}},{"fullUrl":"MedicationStatement/776d716b-0083-4d1e-bd13-0c0ab78b4405","resource":{"resourceType":"MedicationStatement","id":"776d716b-0083-4d1e-bd13-0c0ab78b4405","status":"completed","medicationCodeableConcept":{"coding":[{"system":"http://www.nlm.nih.gov/research/umls/rxnorm","code":"18631"}]},"subject":{"reference":"Patient/0a2527a1-6cf9-40f8-b61b-d9f633215b91"},"effectiveDateTime":"2022-01-11T00:00:00+00:00","dosage":[{"doseAndRate":[{"doseQuantity":{"value":1,"unit":"TAB","system":"http://terminology.hl7.org/CodeSystem/v3-orderableDrugForm","code":"TAB"}}]}]},"request":{"method":"POST","url":"MedicationStatement"}},{"fullUrl":"MedicationStatement/14b31fc0-8cf1-4de3-9def-f9faeff5ed5a","resource":{"resourceType":"MedicationStatement","id":"14b31fc0-8cf1-4de3-9def-f9faeff5ed5a","status":"completed","medicationCodeableConcept":{"coding":[{"system":"http://www.nlm.nih.gov/research/umls/rxnorm","code":"2193"}]},"subject":{"reference":"Patient/0a2527a1-6cf9-40f8-b61b-d9f633215b91"},"effectiveDateTime":"2022-02-10T00:00:00+00:00","dosage":[{"doseAndRate":[{"doseQuantity":{"value":1,"unit":"TAB","system":"http://terminology.hl7.org/CodeSystem/v3-orderableDrugForm","code":"TAB"}}]}]},"request":{"method":"POST","url":"MedicationStatement"}},{"fullUrl":"MedicationStatement/43e55940-8df4-41f1-b1de-232970411f42","resource":{"resourceType":"MedicationStatement","id":"43e55940-8df4-41f1-b1de-232970411f42","status":"completed","medicationCodeableConcept":{"coding":[{"system":"http://www.nlm.nih.gov/research/umls/rxnorm","code":"8698"}]},"subject":{"reference":"Patient/0a2527a1-6cf9-40f8-b61b-d9f633215b91"},"effectiveDateTime":"2022-10-23T00:00:00+00:00","dosage":[{"doseAndRate":[{"doseQuantity":{"value":2,"unit":"TAB","system":"http://terminology.hl7.org/CodeSystem/v3-orderableDrugForm","code":"TAB"}}]}]},"request":{"method":"POST","url":"MedicationStatement"}},{"fullUrl":"MedicationStatement/e3d4ac4e-87b0-43f5-ade7-d957fc4bc0e0","resource":{"resourceType":"MedicationStatement","id":"e3d4ac4e-87b0-43f5-ade7-d957fc4bc0e0","status":"completed","medicationCodeableConcept":{"coding":[{"system":"http://www.nlm.nih.gov/research/umls/rxnorm","code":"7984"}]},"subject":{"reference":"Patient/0a2527a1-6cf9-40f8-b61b-d9f633215b91"},"effectiveDateTime":"2022-06-08T00:00:00+00:00","dosage":[{"doseAndRate":[{"doseQuantity":{"value":2,"unit":"TAB","system":"http://terminology.hl7.org/CodeSystem/v3-orderableDrugForm","code":"TAB"}}]}]},"request":{"method":"POST","url":"MedicationStatement"}},{"fullUrl":"MedicationStatement/e06a8320-dd4f-419e-987b-70cba28d4df5","resource":{"resourceType":"MedicationStatement","id":"e06a8320-dd4f-419e-987b-70cba28d4df5","status":"completed","medicationCodeableConcept":{"coding":[{"system":"http://www.nlm.nih.gov/research/umls/rxnorm","code":"8698"}]},"subject":{"reference":"Patient/0a2527a1-6cf9-40f8-b61b-d9f633215b91"},"effectiveDateTime":"2022-10-07T00:00:00+00:00","dosage":[{"doseAndRate":[{"doseQuantity":{"value":2,"unit":"TAB","system":"http://terminology.hl7.org/CodeSystem/v3-orderableDrugForm","code":"TAB"}}]}]},"request":{"method":"POST","url":"MedicationStatement"}},{"fullUrl":"MedicationStatement/fa4e3b9c-1074-4d7b-85c4-fa736deebef0","resource":{"resourceType":"MedicationStatement","id":"fa4e3b9c-1074-4d7b-85c4-fa736deebef0","status":"completed","medicationCodeableConcept":{"coding":[{"system":"http://www.nlm.nih.gov/research/umls/rxnorm","code":"2193"}]},"subject":{"reference":"Patient/0a2527a1-6cf9-40f8-b61b-d9f633215b91"},"effectiveDateTime":"2022-04-11T00:00:00+00:00","dosage":[{"doseAndRate":[{"doseQuantity":{"value":2,"unit":"TAB","system":"http://terminology.hl7.org/CodeSystem/v3-orderableDrugForm","code":"TAB"}}]}]},"request":{"method":"POST","url":"MedicationStatement"}},{"fullUrl":"MedicationStatement/50ece6de-c2bd-4c2c-9737-bbc0153febdc","resource":{"resourceType":"MedicationStatement","id":"50ece6de-c2bd-4c2c-9737-bbc0153febdc","status":"completed","medicationCodeableConcept":{"coding":[{"system":"http://www.nlm.nih.gov/research/umls/rxnorm","code":"3640"}]},"subject":{"reference":"Patient/0a2527a1-6cf9-40f8-b61b-d9f633215b91"},"effectiveDateTime":"2022-09-13T00:00:00+00:00","dosage":[{"doseAndRate":[{"doseQuantity":{"value":6.2,"unit":"TAB","system":"http://terminology.hl7.org/CodeSystem/v3-orderableDrugForm","code":"TAB"}}]}]},"request":{"method":"POST","url":"MedicationStatement"}},{"fullUrl":"MedicationStatement/d7683299-55eb-4228-8c29-17dcb83dbf4a","resource":{"resourceType":"MedicationStatement","id":"d7683299-55eb-4228-8c29-17dcb83dbf4a","status":"completed","medicationCodeableConcept":{"coding":[{"system":"http://www.nlm.nih.gov/research/umls/rxnorm","code":"7980"}]},"subject":{"reference":"Patient/0a2527a1-6cf9-40f8-b61b-d9f633215b91"},"effectiveDateTime":"2022-09-24T00:00:00+00:00","dosage":[{"doseAndRate":[{"doseQuantity":{"value":3.9,"unit":"TAB","system":"http://terminology.hl7.org/CodeSystem/v3-orderableDrugForm","code":"TAB"}}]}]},"request":{"method":"POST","url":"MedicationStatement"}},{"fullUrl":"MedicationStatement/682fc4d3-f4bf-4721-a493-d4c5726a6b75","resource":{"resourceType":"MedicationStatement","id":"682fc4d3-f4bf-4721-a493-d4c5726a6b75","status":"completed","medicationCodeableConcept":{"coding":[{"system":"http://www.nlm.nih.gov/research/umls/rxnorm","code":"18631"}]},"subject":{"reference":"Patient/0a2527a1-6cf9-40f8-b61b-d9f633215b91"},"effectiveDateTime":"2022-12-06T00:00:00+00:00","dosage":[{"doseAndRate":[{"doseQuantity":{"value":3.2,"unit":"TAB","system":"http://terminology.hl7.org/CodeSystem/v3-orderableDrugForm","code":"TAB"}}]}]},"request":{"method":"POST","url":"MedicationStatement"}},{"fullUrl":"MedicationStatement/aeabcf58-8f1d-4cc7-b028-8d8a4a7c8d48","resource":{"resourceType":"MedicationStatement","id":"aeabcf58-8f1d-4cc7-b028-8d8a4a7c8d48","status":"completed","medicationCodeableConcept":{"coding":[{"system":"http://www.nlm.nih.gov/research/umls/rxnorm","code":"10395"}]},"subject":{"reference":"Patient/0a2527a1-6cf9-40f8-b61b-d9f633215b91"},"effectiveDateTime":"2022-07-12T00:00:00+00:00","dosage":[{"doseAndRate":[{"doseQuantity":{"value":3.6,"unit":"TAB","system":"http://terminology.hl7.org/CodeSystem/v3-orderableDrugForm","code":"TAB"}}]}]},"request":{"method":"POST","url":"MedicationStatement"}},{"fullUrl":"Encounter/7eb2f5c8-25c5-42ed-bf0c-51b21f0eca5f","resource":{"resourceType":"Encounter","id":"7eb2f5c8-25c5-42ed-bf0c-51b21f0eca5f","status":"finished","class":{"system":"http://terminology.hl7.org/CodeSystem/v3-ActCode","code":"IMP","display":"inpatient encounter"},"type":[{"coding":[{"system":"http://terminology.hl7.org/CodeSystem/encounter-type","code":"OKI"}]}],"subject":{"reference":"Patient/0a2527a1-6cf9-40f8-b61b-d9f633215b91"},"period":{"start":"2022-04-13T00:00:00+00:00","end":"2022-04-15T00:00:00+00:00"}},"request":{"method":"POST","url":"Encounter"}},{"fullUrl":"Encounter/35f51281-0fc6-4440-a3da-4199f040dedb","resource":{"resourceType":"Encounter","id":"35f51281-0fc6-4440-a3da-4199f040dedb","status":"finished","class":{"system":"http://terminology.hl7.org/CodeSystem/v3-ActCode","code":"IMP","display":"inpatient encounter"},"type":[{"coding":[{"system":"http://terminology.hl7.org/CodeSystem/encounter-type","code":"OKI"}]}],"subject":{"reference":"Patient/0a2527a1-6cf9-40f8-b61b-d9f633215b91"},"period":{"start":"2022-04-24T00:00:00+00:00","end":"2022-05-02T00:00:00+00:00"}},"request":{"method":"POST","url":"Encounter"}},{"fullUrl":"Encounter/28ffafa1-e5a3-4d79-a9e1-abc390dcc238","resource":{"resourceType":"Encounter","id":"28ffafa1-e5a3-4d79-a9e1-abc390dcc238","status":"finished","class":{"system":"http://terminology.hl7.org/CodeSystem/v3-ActCode","code":"HH","display":"home health"},"type":[{"coding":[{"system":"http://terminology.hl7.org/CodeSystem/encounter-type","code":"CCS60"}]}],"subject":{"reference":"Patient/0a2527a1-6cf9-40f8-b61b-d9f633215b91"},"period":{"start":"2022-04-29T00:00:00+00:00","end":"2022-05-01T00:00:00+00:00"}},"request":{"method":"POST","url":"Encounter"}},{"fullUrl":"Encounter/0d768faf-c2a2-4cb7-b7e8-0ae0c418daf2","resource":{"resourceType":"Encounter","id":"0d768faf-c2a2-4cb7-b7e8-0ae0c418daf2","status":"finished","class":{"system":"http://terminology.hl7.org/CodeSystem/v3-ActCode","code":"AMB","display":"ambulatory"},"type":[{"coding":[{"system":"http://terminology.hl7.org/CodeSystem/encounter-type","code":"ADMS"}]}],"subject":{"reference":"Patient/0a2527a1-6cf9-40f8-b61b-d9f633215b91"},"period":{"start":"2022-04-26T00:00:00+00:00","end":"2022-05-05T00:00:00+00:00"}},"request":{"method":"POST","url":"Encounter"}},{"fullUrl":"Encounter/3eb04ffe-93d1-4a0d-94e1-0b77c7976f81","resource":{"resourceType":"Encounter","id":"3eb04ffe-93d1-4a0d-94e1-0b77c7976f81","status":"finished","class":{"system":"http://terminology.hl7.org/CodeSystem/v3-ActCode","code":"FLD","display":"field"},"type":[{"coding":[{"system":"http://terminology.hl7.org/CodeSystem/encounter-type","code":"OKI"}]}],"subject":{"reference":"Patient/0a2527a1-6cf9-40f8-b61b-d9f633215b91"},"period":{"start":"2022-08-28T00:00:00+00:00","end":"2022-09-06T00:00:00+00:00"}},"request":{"method":"POST","url":"Encounter"}},{"fullUrl":"Location/8b589d59-538d-426a-af8c-7a45615aeb55","resource":{"resourceType":"Location","id":"8b589d59-538d-426a-af8c-7a45615aeb55","status":"active","name":"Wilson-Taylor","telecom":[{"system":"phone","value":"(168)614-0391","use":"home"}],"address":{"use":"work","line":["481 Cynthia Curve"],"city":"Morrismouth","state":"CA","postalCode":"55673"}},"request":{"method":"POST","url":"Location"}},{"fullUrl":"Observation/45cea417-c0a8-4e34-9632-920d7e041200","resource":{"resourceType":"Observation","id":"45cea417-c0a8-4e34-9632-920d7e041200","status":"final","code":{"coding":[{"system":"http://loinc.org","code":"81956-5"}]},"subject":{"reference":"Patient/0a2527a1-6cf9-40f8-b61b-d9f633215b91"},"effectiveDateTime":"2022-10-19T00:00:00+00:00","valueDateTime":"2022-09-21T00:00:00+00:00"},"request":{"method":"POST","url":"Observation"}},{"fullUrl":"Patient/cdba475a-5843-4159-94f4-70d5db5f0e9b","resource":{"resourceType":"Patient","id":"cdba475a-5843-4159-94f4-70d5db5f0e9b","identifier":[{"type":{"coding":[{"system":"http://terminology.hl7.org/CodeSystem/v2-0203","code":"MR"}]},"system":"urn:fhirgen:mrn","value":"867-95-8219"},{"system":"http://hl7.org/fhir/sid/us-ssn","value":"223-96-4399"}],"name":[{"use":"official","family":"Rodriguez","given":["Madison"]},{"use":"maiden","family":"Ramos"}],"telecom":[{"system":"phone","value":"6076624516","use":"mobile"},{"system":"email","value":"bradyteresa@yahoo.com","use":"home"}],"gender":"female","birthDate":"1993-07-21","address":[{"use":"home","line":["82310 Grace Estate Apt. 115"],"city":"Michaelburgh","state":"ID","postalCode":"62651"},{"use":"old","line":["9014 Faith Oval"],"city":"Port Robert","state":"AR","postalCode":"22955"}],"maritalStatus":{"coding":[{"system":"http://terminology.hl7.org/CodeSystem/v3-MaritalStatus","code":"I","display":"Interlocutory"}]}},"request":{"method":"POST","url":"Patient"}},{"fullUrl":"Observation/6cbac574-4680-4c16-bcdf-a94ac2a3a6f5","resource":{"resourceType":"Observation","id":"6cbac574-4680-4c16-bcdf-a94ac2a3a6f5","status":"final","code":{"coding":[{"system":"http://loinc.org","code":"5394-2"}]},"subject":{"reference":"Patient/cdba475a-5843-4159-94f4-70d5db5f0e9b"},"effectiveDateTime":"2022-01-24T00:00:00+00:00","valueRatio":{"numerator":{"value":1},"denominator":{"value":64}}},"request":{"method":"POST","url":"Observation"}},{"fullUrl":"Observation/c8e20667-464a-4887-942f-cb54243ac632","resource":{"resourceType":"Observation","id":"c8e20667-464a-4887-942f-cb54243ac632","status":"final","code":{"coding":[{"system":"http://loinc.org","code":"50690-7"}]},"subject":{"reference":"Patient/cdba475a-5843-4159-94f4-70d5db5f0e9b"},"effectiveDateTime":"2022-09-24T00:00:00+00:00","valueRatio":{"numerator":{"value":1},"denominator":{"value":32}}},"request":{"method":"POST","url":"Observation"}},{"fullUrl":"Condition/7a700612-25f2-4632-9c77-9f9102960c53","resource":{"resourceType":"Condition","id":"7a700612-25f2-4632-9c77-9f9102960c53","code":{"coding":[{"system":"http://snomed.info/sct","code":"198199009"}]},"subject":{"reference":"Patient/cdba475a-5843-4159-94f4-70d5db5f0e9b"},"onsetDateTime":"2022-03-31T00:00:00+00:00"},"request":{"method":"POST","url":"Condition"}},{"fullUrl":"Condition/3952620d-50e4-4640-9981-a76b653dd7de","resource":{"resourceType":"Condition","id":"3952620d-50e4-4640-9981-a76b653dd7de","code":{"coding":[{"system":"http://snomed.info/sct","code":"297123002"}]},"subject":{"reference":"Patient/cdba475a-5843-4159-94f4-70d5db5f0e9b"},"onsetDateTime":"2022-07-07T00:00:00+00:00"},"request":{"method":"POST","url":"Condition"}},{"fullUrl":"Condition/1537b737-34f4-4c2f-9b89-2b3111c84310","resource":{"resourceType":"Condition","id":"1537b737-34f4-4c2f-9b89-2b3111c84310","code":{"coding":[{"system":"http://snomed.info/sct","code":"418290006"}]},"subject":{"reference":"Patient/cdba475a-5843-4159-94f4-70d5db5f0e9b"},"onsetDateTime":"2022-03-17T00:00:00+00:00"},"request":{"method":"POST","url":"Condition"}},{"fullUrl":"Condition/ceea7cb4-5e58-4d26-9f00-ef511418e692","resource":{"resourceType":"Condition","id":"ceea7cb4-5e58-4d26-9f00-ef511418e692","code":{"coding":[{"system":"http://snomed.info/sct","code":"21522001"}]},"subject":{"reference":"Patient/cdba475a-5843-4159-94f4-70d5db5f0e9b"},"onsetDateTime":"2022-07-27T00:00:00+00:00"},"request":{"method":"POST","url":"Condition"}},{"fullUrl":"Condition/3fac1f59-7848-4774-96ae-5e2131b36a16","resource":{"resourceType":"Condition","id":"3fac1f59-7848-4774-96ae-5e2131b36a16","code":{"coding":[{"system":"http://snomed.info/sct","code":"248980004"}]},"subject":{"reference":"Patient/cdba475a-5843-4159-94f4-70d5db5f0e9b"},"onsetDateTime":"2022-01-30T00:00:00+00:00"},"request":{"method":"POST","url":"Condition"}},{"fullUrl":"Condition/6fca9afc-c792-46f9-9869-a8705385271a","resource":{"resourceType":"Condition","id":"6fca9afc-c792-46f9-9869-a8705385271a","code":{"coding":[{"system":"http://snomed.info/sct","code":"271939006"}]},"subject":{"reference":"Patient/cdba475a-5843-4159-94f4-70d5db5f0e9b"},"onsetDateTime":"2022-09-17T00:00:00+00:00"},"request":{"method":"POST","url":"Condition"}},{"fullUrl":"Condition/9ee57dde-365a-405c-9748-1da3b7016053","resource":{"resourceType":"Condition","id":"9ee57dde-365a-405c-9748-1da3b7016053","code":{"coding":[{"system":"http://snomed.info/sct","code":"44882003"}]},"subject":{"reference":"Patient/cdba475a-5843-4159-94f4-70d5db5f0e9b"},"onsetDateTime":"2022-02-06T00:00:00+00:00"},"request":{"method":"POST","url":"Condition"}},{"fullUrl":"Observation/fa678095-912a-4dab-9d55-46d5d63113f2","resource":{"resourceType":"Observation","id":"fa678095-912a-4dab-9d55-46d5d63113f2","status":"final","code":{"coding":[{"system":"http://loinc.org","code":"26464-8"}]},"subject":{"reference":"Patient/cdba475a-5843-4159-94f4-70d5db5f0e9b"},"effectiveDateTime":"2022-03-04T00:00:00+00:00","valueQuantity":{"value":9.8}},"request":{"method":"POST","url":"Observation"}},{"fullUrl":"Observation/32b4c1da-cf02-4eb7-aee8-0170eb53bed8","resource":{"resourceType":"Observation","id":"32b4c1da-cf02-4eb7-aee8-0170eb53bed8","status":"final","code":{"coding":[{"system":"http://www.ama-assn.org/go/cpt","code":"85048"}]},"subject":{"reference":"Patient/cdba475a-5843-4159-94f4-70d5db5f0e9b"},"effectiveDateTime":"2022-11-15T00:00:00+00:00","valueQuantity":{"value":10.1}},"request":{"method":"POST","url":"Observation"}},{"fullUrl":"Observation/8941cfea-f5c7-4057-9c77-b1779a2392a0","resource":{"resourceType":"Observation","id":"8941cfea-f5c7-4057-9c77-b1779a2392a0","status":"final","code":{"coding":[{"system":"http://www.ama-assn.org/go/cpt","code":"85048"}]},"subject":{"reference":"Patient/cdba475a-5843-4159-94f4-70d5db5f0e9b"},"effectiveDateTime":"2022-04-15T00:00:00+00:00","valueQuantity":{"value":6.5}},"request":{"method":"POST","url":"Observation"}},{"fullUrl":"Observation/47251dba-bb0d-458d-984f-00159dd3ed6a","resource":{"resourceType":"Observation","id":"47251dba-bb0d-458d-984f-00159dd3ed6a","status":"final","code":{"coding":[{"system":"http://www.ama-assn.org/go/cpt","code":"85048"}]},"subject":{"reference":"Patient/cdba475a-5843-4159-94f4-70d5db5f0e9b"},"effectiveDateTime":"2022-07-13T00:00:00+00:00","valueCodeableConcept":{"coding":[{"system":"snomed","code":"123456","display":"fake snomed"}]}},"request":{"method":"POST","url":"Observation"}},{"fullUrl":"Observation/b1ebe92c-2310-47ae-a9f7-ccef0af81ce5","resource":{"resourceType":"Observation","id":"b1ebe92c-2310-47ae-a9f7-ccef0af81ce5","status":"final","code":{"coding":[{"system":"http://loinc.org","code":"49498-9"}]},"subject":{"reference":"Patient/cdba475a-5843-4159-94f4-70d5db5f0e9b"},"effectiveDateTime":"2022-04-15T00:00:00+00:00","valueCodeableConcept":{"coding":[{"system":"snomed","code":"123456","display":"fake snomed"}]}},"request":{"method":"POST","url":"Observation"}},{"fullUrl":"Observation/8f01238e-896c-499c-8a8d-e4b0191d089e","resource":{"resourceType":"Observation","id":"8f01238e-896c-499c-8a8d-e4b0191d089e","status":"final","code":{"coding":[{"system":"http://loinc.org","code":"6690-2"}]},"subject":{"reference":"Patient/cdba475a-5843-4159-94f4-70d5db5f0e9b"},"effectiveDateTime":"2022-01-04T00:00:00+00:00","valueCodeableConcept":{"coding":[{"system":"snomed","code":"123456","display":"fake snomed"}]}},"request":{"method":"POST","url":"Observation"}},{"fullUrl":"Observation/d570789a-118e-4ae6-b180-d8269313701b","resource":{"resourceType":"Observation","id":"d570789a-118e-4ae6-b180-d8269313701b","status":"final","code":{"coding":[{"system":"http://loinc.org","code":"49498-9"}]},"subject":{"reference":"Patient/cdba475a-5843-4159-94f4-70d5db5f0e9b"},"effectiveDateTime":"2022-11-29T00:00:00+00:00"},"request":{"method":"POST","url":"Observation"}},{"fullUrl":"Observation/ab08984c-7eb3-4a21-ba6e-a8e486a7a2c0","resource":{"resourceType":"Observation","id":"ab08984c-7eb3-4a21-ba6e-a8e486a7a2c0","status":"final","code":{"coding":[{"system":"http://loinc.org","code":"49498-9"}]},"subject":{"reference":"Patient/cdba475a-5843-4159-94f4-70d5db5f0e9b"},"effectiveDateTime":"2022-11-21T00:00:00+00:00"},"request":{"method":"POST","url":"Observation"}},{"fullUrl":"Observation/afe92265-59e7-4f47-8ff1-064d732a2dbb","resource":{"resourceType":"Observation","id":"afe92265-59e7-4f47-8ff1-064d732a2dbb","status":"final","code":{"coding":[{"system":"http://loinc.org","code":"49498-9"}]},"subject":{"reference":"Patient/cdba475a-5843-4159-94f4-70d5db5f0e9b"},"effectiveDateTime":"2022-05-03T00:00:00+00:00"},"request":{"method":"POST","url":"Observation"}},{"fullUrl":"Procedure/d56bfbd7-c286-4c79-9bc3-c17991d22394","resource":{"resourceType":"Procedure","id":"d56bfbd7-c286-4c79-9bc3-c17991d22394","status":"completed","code":{"coding":[{"system":"http://snomed.info/sct","code":"104001"}]},"subject":{"reference":"Patient/cdba475a-5843-4159-94f4-70d5db5f0e9b"},"performedDateTime":"2022-10-07T00:00:00+00:00"},"request":{"method":"POST","url":"Procedure"}},{"fullUrl":"Procedure/2f4b39f7-2e81-4eed-ae2a-ae0701ccb406","resource":{"resourceType":"Procedure","id":"2f4b39f7-2e81-4eed-ae2a-ae0701ccb406","status":"completed","code":{"coding":[{"system":"http://snomed.info/sct","code":"647000"}]},"subject":{"reference":"Patient/cdba475a-5843-4159-94f4-70d5db5f0e9b"},"performedDateTime":"2022-07-24T00:00:00+00:00"},"request":{"method":"POST","url":"Procedure"}},{"fullUrl":"Procedure/d21fea10-950c-4469-89c0-06bde7a9a6fc","resource":{"resourceType":"Procedure","id":"d21fea10-950c-4469-89c0-06bde7a9a6fc","status":"completed","code":{"coding":[{"system":"http://snomed.info/sct","code":"189009"}]},"subject":{"reference":"Patient/cdba475a-5843-4159-94f4-70d5db5f0e9b"},"performedDateTime":"2022-08-25T00:00:00+00:00"},"request":{"method":"POST","url":"Procedure"}},{"fullUrl":"MedicationStatement/c39d67b0-bd96-44b1-aa4e-ff36514a7863","resource":{"resourceType":"MedicationStatement","id":"c39d67b0-bd96-44b1-aa4e-ff36514a7863","status":"completed","medicationCodeableConcept":{"coding":[{"system":"http://www.nlm.nih.gov/research/umls/rxnorm","code":"2193"}]},"subject":{"reference":"Patient/cdba475a-5843-4159-94f4-70d5db5f0e9b"},"effectiveDateTime":"2022-12-18T00:00:00+00:00","dosage":[{"doseAndRate":[{"doseQuantity":{"value":1,"unit":"TAB","system":"http://terminology.hl7.org/CodeSystem/v3-orderableDrugForm","code":"TAB"}}]}]},"request":{"method":"POST","url":"MedicationStatement"}},{"fullUrl":"MedicationStatement/d1aaa47d-5207-47d8-9eda-1667f6fdf2bd","resource":{"resourceType":"MedicationStatement","id":"d1aaa47d-5207-47d8-9eda-1667f6fdf2bd","status":"completed","medicationCodeableConcept":{"coding":[{"system":"http://www.nlm.nih.gov/research/umls/rxnorm","code":"8698"}]},"subject":{"reference":"Patient/cdba475a-5843-4159-94f4-70d5db5f0e9b"},"effectiveDateTime":"2022-07-02T00:00:00+00:00","dosage":[{"doseAndRate":[{"doseQuantity":{"value":2,"unit":"TAB","system":"http://terminology.hl7.org/CodeSystem/v3-orderableDrugForm","code":"TAB"}}]}]},"request":{"method":"POST","url":"MedicationStatement"}},{"fullUrl":"MedicationStatement/17c0f00d-0b4a-47ca-bc24-43b46b179c55","resource":{"resourceType":"MedicationStatement","id":"17c0f00d-0b4a-47ca-bc24-43b46b179c55","status":"completed","medicationCodeableConcept":{"coding":[{"system":"http://www.nlm.nih.gov/research/umls/rxnorm","code":"2193"}]},"subject":{"reference":"Patient/cdba475a-5843-4159-94f4-70d5db5f0e9b"},"effectiveDateTime":"2022-10-24T00:00:00+00:00","dosage":[{"doseAndRate":[{"doseQuantity":{"value":2,"unit":"TAB","system":"http://terminology.hl7.org/CodeSystem/v3-orderableDrugForm","code":"TAB"}}]}]},"request":{"method":"POST","url":"MedicationStatement"}},{"fullUrl":"MedicationStatement/4bbd8cc1-b3ad-4234-9916-37b9640e2195","resource":{"resourceType":"MedicationStatement","id":"4bbd8cc1-b3ad-4234-9916-37b9640e2195","status":"completed","medicationCodeableConcept":{"coding":[{"system":"http://www.nlm.nih.gov/research/umls/rxnorm","code":"10395"}]},"subject":{"reference":"Patient/cdba475a-5843-4159-94f4-70d5db5f0e9b"},"effectiveDateTime":"2022-12-16T00:00:00+00:00","dosage":[{"doseAndRate":[{"doseQuantity":{"value":3.7,"unit":"TAB","system":"http://terminology.hl7.org/CodeSystem/v3-orderableDrugForm","code":"TAB"}}]}]},"request":{"method":"POST","url":"MedicationStatement"}},{"fullUrl":"MedicationStatement/f5527313-49d5-41b5-8a5c-fc89aab6b8cb","resource":{"resourceType":"MedicationStatement","id":"f5527313-49d5-41b5-8a5c-fc89aab6b8cb","status":"completed","medicationCodeableConcept":{"coding":[{"system":"http://www.nlm.nih.gov/research/umls/rxnorm","code":"8698"}]},"subject":{"reference":"Patient/cdba475a-5843-4159-94f4-70d5db5f0e9b"},"effectiveDateTime":"2022-10-04T00:00:00+00:00","dosage":[{"doseAndRate":[{"doseQuantity":{"value":4.5,"unit":"TAB","system":"http://terminology.hl7.org/CodeSystem/v3-orderableDrugForm","code":"TAB"}}]}]},"request":{"method":"POST","url":"MedicationStatement"}},{"fullUrl":"Encounter/ceca4537-a62e-4ca5-801c-1fe4b164fcbc","resource":{"resourceType":"Encounter","id":"ceca4537-a62e-4ca5-801c-1fe4b164fcbc","status":"finished","class":{"system":"http://terminology.hl7.org/CodeSystem/v3-ActCode","code":"IMP","display":"inpatient encounter"},"type":[{"coding":[{"system":"http://terminology.hl7.org/CodeSystem/encounter-type","code":"ADMS"}]}],"subject":{"reference":"Patient/cdba475a-5843-4159-94f4-70d5db5f0e9b"},"period":{"start":"2022-08-13T00:00:00+00:00","end":"2022-08-13T00:00:00+00:00"}},"request":{"method":"POST","url":"Encounter"}},{"fullUrl":"Encounter/b33741a3-1c6e-4b2e-95f3-f9e72b918526","resource":{"resourceType":"Encounter","id":"b33741a3-1c6e-4b2e-95f3-f9e72b918526","status":"finished","class":{"system":"http://terminology.hl7.org/CodeSystem/v3-ActCode","code":"IMP","display":"inpatient encounter"},"type":[{"coding":[{"system":"http://terminology.hl7.org/CodeSystem/encounter-type","code":"CCS60"}]}],"subject":{"reference":"Patient/cdba475a-5843-4159-94f4-70d5db5f0e9b"},"period":{"start":"2022-03-13T00:00:00+00:00","end":"2022-03-18T00:00:00+00:00"}},"request":{"method":"POST","url":"Encounter"}},{"fullUrl":"Encounter/72e18a3a-6196-4266-8e72-eae61ec1b544","resource":{"resourceType":"Encounter","id":"72e18a3a-6196-4266-8e72-eae61ec1b544","status":"finished","class":{"system":"http://terminology.hl7.org/CodeSystem/v3-ActCode","code":"HH","display":"home health"},"type":[{"coding":[{"system":"http://terminology.hl7.org/CodeSystem/encounter-type","code":"BD/BM-clin"}]}],"subject":{"reference":"Patient/cdba475a-5843-4159-94f4-70d5db5f0e9b"},"period":{"start":"2022-09-27T00:00:00+00:00","end":"2022-09-28T00:00:00+00:00"}},"request":{"method":"POST","url":"Encounter"}},{"fullUrl":"Encounter/3b2bc5e9-790d-4fa0-87f6-72ef1e667c2a","resource":{"resourceType":"Encounter","id":"3b2bc5e9-790d-4fa0-87f6-72ef1e667c2a","status":"finished","class":{"system":"http://terminology.hl7.org/CodeSystem/v3-ActCode","code":"ACUTE","display":"inpatient acute"},"type":[{"coding":[{"system":"http://terminology.hl7.org/CodeSystem/encounter-type","code":"ADMS"}]}],"subject":{"reference":"Patient/cdba475a-5843-4159-94f4-70d5db5f0e9b"},"period":{"start":"2022-08-28T00:00:00+00:00","end":"2022-09-05T00:00:00+00:00"}},"request":{"method":"POST","url":"Encounter"}},{"fullUrl":"Encounter/1c021210-1002-45e9-b187-5b7808bd1c30","resource":{"resourceType":"Encounter","id":"1c021210-1002-45e9-b187-5b7808bd1c30","status":"finished","class":{"system":"http://terminology.hl7.org/CodeSystem/v3-ActCode","code":"EMER","display":"emergency"},"type":[{"coding":[{"system":"http://terminology.hl7.org/CodeSystem/encounter-type","code":"OKI"}]}],"subject":{"reference":"Patient/cdba475a-5843-4159-94f4-70d5db5f0e9b"},"period":{"start":"2022-04-23T00:00:00+00:00","end":"2022-05-02T00:00:00+00:00"}},"request":{"method":"POST","url":"Encounter"}},{"fullUrl":"Location/5aa0f9e5-0a53-47ee-bbba-e6a5795f959a","resource":{"resourceType":"Location","id":"5aa0f9e5-0a53-47ee-bbba-e6a5795f959a","status":"active","name":"Williams-Anderson","telecom":[{"system":"phone","value":"211.852.1166","use":"work"}],"address":{"use":"work","line":["1034 Vickie Burgs"],"city":"East Anneville","state":"SD","postalCode":"42641"}},"request":{"method":"POST","url":"Location"}},{"fullUrl":"Observation/ecc26d6b-3db9-4240-8ab0-c186f3ccf5af","resource":{"resourceType":"Observation","id":"ecc26d6b-3db9-4240-8ab0-c186f3ccf5af","status":"final","code":{"coding":[{"system":"http://loinc.org","code":"81956-5"}]},"subject":{"reference":"Patient/cdba475a-5843-4159-94f4-70d5db5f0e9b"},"effectiveDateTime":"2022-07-05T00:00:00+00:00","valueDateTime":"2022-05-27T00:00:00+00:00"},"request":{"method":"POST","url":"Observation"}},{"fullUrl":"Patient/8bc522dc-43d6-4162-a8dd-1b044b2a23eb","resource":{"resourceType":"Patient","id":"8bc522dc-43d6-4162-a8dd-1b044b2a23eb","identifier":[{"type":{"coding":[{"system":"http://terminology.hl7.org/CodeSystem/v2-0203","code":"MR"}]},"system":"urn:fhirgen:mrn","value":"025-17-5777"},{"system":"http://hl7.org/fhir/sid/us-ssn","value":"712-11-8593"}],"name":[{"use":"official","family":"Barton","given":["Robert"]},{"use":"maiden","family":"Chaney"}],"telecom":[{"system":"phone","value":"(236)483-5906x34867","use":"work"},{"system":"email","value":"xfigueroa@hotmail.com","use":"mobile"}],"gender":"other","birthDate":"1963-09-23","address":[{"use":"home","line":["4626 Michael Manor"],"city":"Kelliborough","state":"VT","postalCode":"48402"},{"use":"old","line":["2279 Robert Drive"],"city":"South Justinburgh","state":"WV","postalCode":"25000"}],"maritalStatus":{"coding":[{"system":"http://terminology.hl7.org/CodeSystem/v3-MaritalStatus","code":"W","display":"Widowed"}]}},"request":{"method":"POST","url":"Patient"}},{"fullUrl":"Observation/08c0d808-8cd0-4a7e-b66c-8a39953ec46b","resource":{"resourceType":"Observation","id":"08c0d808-8cd0-4a7e-b66c-8a39953ec46b","status":"final","code":{"coding":[{"system":"http://loinc.org","code":"71793-4"}]},"subject":{"reference":"Patient/8bc522dc-43d6-4162-a8dd-1b044b2a23eb"},"effectiveDateTime":"2022-04-08T00:00:00+00:00","valueRatio":{"numerator":{"value":1},"denominator":{"value":4}}},"request":{"method":"POST","url":"Observation"}},{"fullUrl":"Observation/fe1e3cdd-66a5-474e-a689-bbf13163170a","resource":{"resourceType":"Observation","id":"fe1e3cdd-66a5-474e-a689-bbf13163170a","status":"final","code":{"coding":[{"system":"http://loinc.org","code":"47235-7"}]},"subject":{"reference":"Patient/8bc522dc-43d6-4162-a8dd-1b044b2a23eb"},"effectiveDateTime":"2022-01-29T00:00:00+00:00","valueRatio":{"numerator":{"value":1},"denominator":{"value":4}}},"request":{"method":"POST","url":"Observation"}},{"fullUrl":"Condition/825318ed-8b77-4d0d-a9fe-9399d348da4d","resource":{"resourceType":"Condition","id":"825318ed-8b77-4d0d-a9fe-9399d348da4d","code":{"coding":[{"system":"http://snomed.info/sct","code":"198199009"}]},"subject":{"reference":"Patient/8bc522dc-43d6-4162-a8dd-1b044b2a23eb"},"onsetDateTime":"2022-09-14T00:00:00+00:00"},"request":{"method":"POST","url":"Condition"}},{"fullUrl":"Condition/107f3180-2bf4-46be-94e3-298c6fba2fa3","resource":{"resourceType":"Condition","id":"107f3180-2bf4-46be-94e3-298c6fba2fa3","code":{"coding":[{"system":"http://snomed.info/sct","code":"405737000"}]},"subject":{"reference":"Patient/8bc522dc-43d6-4162-a8dd-1b044b2a23eb"},"onsetDateTime":"2022-09-10T00:00:00+00:00"},"request":{"method":"POST","url":"Condition"}},{"fullUrl":"Condition/5949aa0a-8d50-4c93-9944-6a15c52961a9","resource":{"resourceType":"Condition","id":"5949aa0a-8d50-4c93-9944-6a15c52961a9","code":{"coding":[{"system":"http://snomed.info/sct","code":"21522001"}]},"subject":{"reference":"Patient/8bc522dc-43d6-4162-a8dd-1b044b2a23eb"},"onsetDateTime":"2022-07-24T00:00:00+00:00"},"request":{"method":"POST","url":"Condition"}},{"fullUrl":"Condition/29e8ae7d-9ddc-48aa-9289-34060bec19ac","resource":{"resourceType":"Condition","id":"29e8ae7d-9ddc-48aa-9289-34060bec19ac","code":{"coding":[{"system":"http://snomed.info/sct","code":"271807003"}]},"subject":{"reference":"Patient/8bc522dc-43d6-4162-a8dd-1b044b2a23eb"},"onsetDateTime":"2022-02-04T00:00:00+00:00"},"request":{"method":"POST","url":"Condition"}},{"fullUrl":"Condition/16b10bbb-45a0-4365-b542-6f025009c12e","resource":{"resourceType":"Condition","id":"16b10bbb-45a0-4365-b542-6f025009c12e","code":{"coding":[{"system":"http://snomed.info/sct","code":"79342006"}]},"subject":{"reference":"Patient/8bc522dc-43d6-4162-a8dd-1b044b2a23eb"},"onsetDateTime":"2022-01-08T00:00:00+00:00"},"request":{"method":"POST","url":"Condition"}},{"fullUrl":"Condition/a35eff44-2e86-4074-8138-69d3ace11a38","resource":{"resourceType":"Condition","id":"a35eff44-2e86-4074-8138-69d3ace11a38","code":{"coding":[{"system":"http://snomed.info/sct","code":"21522001"}]},"subject":{"reference":"Patient/8bc522dc-43d6-4162-a8dd-1b044b2a23eb"},"onsetDateTime":"2022-08-29T00:00:00+00:00"},"request":{"method":"POST","url":"Condition"}},{"fullUrl":"Observation/f5ca0aee-24d6-4583-a90c-372dbcf6f691","resource":{"resourceType":"Observation","id":"f5ca0aee-24d6-4583-a90c-372dbcf6f691","status":"final","code":{"coding":[{"system":"http://www.ama-assn.org/go/cpt","code":"85048"}]},"subject":{"reference":"Patient/8bc522dc-43d6-4162-a8dd-1b044b2a23eb"},"effectiveDateTime":"2022-03-27T00:00:00+00:00","valueQuantity":{"value":7.6}},"request":{"method":"POST","url":"Observation"}},{"fullUrl":"Observation/92b8dfde-44a7-44b4-b0fe-1c7e3a2d1bc2","resource":{"resourceType":"Observation","id":"92b8dfde-44a7-44b4-b0fe-1c7e3a2d1bc2","status":"final","code":{"coding":[{"system":"http://loinc.org","code":"26464-8"}]},"subject":{"reference":"Patient/8bc522dc-43d6-4162-a8dd-1b044b2a23eb"},"effectiveDateTime":"2022-04-24T00:00:00+00:00","valueQuantity":{"value":7.2}},"request":{"method":"POST","url":"Observation"}},{"fullUrl":"Observation/6c8801db-ad67-45e2-8564-74d435d22cec","resource":{"resourceType":"Observation","id":"6c8801db-ad67-45e2-8564-74d435d22cec","status":"final","code":{"coding":[{"system":"http://loinc.org","code":"804-5"}]},"subject":{"reference":"Patient/8bc522dc-43d6-4162-a8dd-1b044b2a23eb"},"effectiveDateTime":"2022-01-15T00:00:00+00:00","valueQuantity":{"value":9.9}},"request":{"method":"POST","url":"Observation"}},{"fullUrl":"Observation/0ce812b8-7d21-41f7-835a-163a8b418fee","resource":{"resourceType":"Observation","id":"0ce812b8-7d21-41f7-835a-163a8b418fee","status":"final","code":{"coding":[{"system":"http://loinc.org","code":"804-5"}]},"subject":{"reference":"Patient/8bc522dc-43d6-4162-a8dd-1b044b2a23eb"},"effectiveDateTime":"2022-01-23T00:00:00+00:00","valueCodeableConcept":{"coding":[{"system":"snomed","code":"123456","display":"fake snomed"}]}},"request":{"method":"POST","url":"Observation"}},{"fullUrl":"Observation/94479648-0fae-4ff4-9c16-9b99be76055d","resource":{"resourceType":"Observation","id":"94479648-0fae-4ff4-9c16-9b99be76055d","status":"final","code":{"coding":[{"system":"http://www.ama-assn.org/go/cpt","code":"85048"}]},"subject":{"reference":"Patient/8bc522dc-43d6-4162-a8dd-1b044b2a23eb"},"effectiveDateTime":"2022-09-05T00:00:00+00:00","valueCodeableConcept":{"coding":[{"system":"snomed","code":"123456","display":"fake snomed"}]}},"request":{"method":"POST","url":"Observation"}},{"fullUrl":"Observation/1ef6af6a-cdf8-47ea-b6b2-470176a2aa67","resource":{"resourceType":"Observation","id":"1ef6af6a-cdf8-47ea-b6b2-470176a2aa67","status":"final","code":{"coding":[{"system":"http://loinc.org","code":"49498-9"}]},"subject":{"reference":"Patient/8bc522dc-43d6-4162-a8dd-1b044b2a23eb"},"effectiveDateTime":"2022-08-04T00:00:00+00:00"},"request":{"method":"POST","url":"Observation"}},{"fullUrl":"Observation/74c3bf63-3d5a-4b97-911f-23a874abcc0e","resource":{"resourceType":"Observation","id":"74c3bf63-3d5a-4b97-911f-23a874abcc0e","status":"final","code":{"coding":[{"system":"http://loinc.org","code":"49498-9"}]},"subject":{"reference":"Patient/8bc522dc-43d6-4162-a8dd-1b044b2a23eb"},"effectiveDateTime":"2022-05-14T00:00:00+00:00"},"request":{"method":"POST","url":"Observation"}},{"fullUrl":"Observation/fe2863e6-a3d3-49fc-9dfc-1412378f2a32","resource":{"resourceType":"Observation","id":"fe2863e6-a3d3-49fc-9dfc-1412378f2a32","status":"final","code":{"coding":[{"system":"http://loinc.org","code":"49498-9"}]},"subject":{"reference":"Patient/8bc522dc-43d6-4162-a8dd-1b044b2a23eb"},"effectiveDateTime":"2022-02-04T00:00:00+00:00"},"request":{"method":"POST","url":"Observation"}},{"fullUrl":"Procedure/34591cad-f586-4a04-89c8-de1d963ae225","resource":{"resourceType":"Procedure","id":"34591cad-f586-4a04-89c8-de1d963ae225","status":"completed","code":{"coding":[{"system":"http://snomed.info/sct","code":"115006"}]},"subject":{"reference":"Patient/8bc522dc-43d6-4162-a8dd-1b044b2a23eb"},"performedDateTime":"2022-11-23T00:00:00+00:00"},"request":{"method":"POST","url":"Procedure"}},{"fullUrl":"Procedure/1f0f26e7-9720-4f57-a5a7-93384d706f96","resource":{"resourceType":"Procedure","id":"1f0f26e7-9720-4f57-a5a7-93384d706f96","status":"completed","code":{"coding":[{"system":"http://snomed.info/sct","code":"189009"}]},"subject":{"reference":"Patient/8bc522dc-43d6-4162-a8dd-1b044b2a23eb"},"performedDateTime":"2022-10-03T00:00:00+00:00"},"request":{"method":"POST","url":"Procedure"}},{"fullUrl":"Procedure/c422d352-ad03-4818-ad45-31d340c853d7","resource":{"resourceType":"Procedure","id":"c422d352-ad03-4818-ad45-31d340c853d7","status":"completed","code":{"coding":[{"system":"http://snomed.info/sct","code":"647000"}]},"subject":{"reference":"Patient/8bc522dc-43d6-4162-a8dd-1b044b2a23eb"},"performedDateTime":"2022-04-11T00:00:00+00:00"},"request":{"method":"POST","url":"Procedure"}},{"fullUrl":"MedicationStatement/79d1429e-454c-4e44-87f0-a6b0788cfe86","resource":{"resourceType":"MedicationStatement","id":"79d1429e-454c-4e44-87f0-a6b0788cfe86","status":"completed","medicationCodeableConcept":{"coding":[{"system":"http://www.nlm.nih.gov/research/umls/rxnorm","code":"3640"}]},"subject":{"reference":"Patient/8bc522dc-43d6-4162-a8dd-1b044b2a23eb"},"effectiveDateTime":"2022-10-23T00:00:00+00:00","dosage":[{"doseAndRate":[{"doseQuantity":{"value":2,"unit":"TAB","system":"http://terminology.hl7.org/CodeSystem/v3-orderableDrugForm","code":"TAB"}}]}]},"request":{"method":"POST","url":"MedicationStatement"}},{"fullUrl":"MedicationStatement/7bfc672f-41cc-4f52-8a56-5a96fd16776b","resource":{"resourceType":"MedicationStatement","id":"7bfc672f-41cc-4f52-8a56-5a96fd16776b","status":"completed","medicationCodeableConcept":{"coding":[{"system":"http://www.nlm.nih.gov/research/umls/rxnorm","code":"18631"}]},"subject":{"reference":"Patient/8bc522dc-43d6-4162-a8dd-1b044b2a23eb"},"effectiveDateTime":"2022-11-14T00:00:00+00:00","dosage":[{"doseAndRate":[{"doseQuantity":{"value":1,"unit":"TAB","system":"http://terminology.hl7.org/CodeSystem/v3-orderableDrugForm","code":"TAB"}}]}]},"request":{"method":"POST","url":"MedicationStatement"}},{"fullUrl":"MedicationStatement/d98c964e-7edf-40d4-acce-f5ea98f7b882","resource":{"resourceType":"MedicationStatement","id":"d98c964e-7edf-40d4-acce-f5ea98f7b882","status":"completed","medicationCodeableConcept":{"coding":[{"system":"http://www.nlm.nih.gov/research/umls/rxnorm","code":"7984"}]},"subject":{"reference":"Patient/8bc522dc-43d6-4162-a8dd-1b044b2a23eb"},"effectiveDateTime":"2022-01-05T00:00:00+00:00","dosage":[{"doseAndRate":[{"doseQuantity":{"value":2,"unit":"TAB","system":"http://terminology.hl7.org/CodeSystem/v3-orderableDrugForm","code":"TAB"}}]}]},"request":{"method":"POST","url":"MedicationStatement"}},{"fullUrl":"MedicationStatement/f016b9d0-2531-4f06-838e-72dd57836ba5","resource":{"resourceType":"MedicationStatement","id":"f016b9d0-2531-4f06-838e-72dd57836ba5","status":"completed","medicationCodeableConcept":{"coding":[{"system":"http://www.nlm.nih.gov/research/umls/rxnorm","code":"7980"}]},"subject":{"reference":"Patient/8bc522dc-43d6-4162-a8dd-1b044b2a23eb"},"effectiveDateTime":"2022-04-03T00:00:00+00:00","dosage":[{"doseAndRate":[{"doseQuantity":{"value":1,"unit":"TAB","system":"http://terminology.hl7.org/CodeSystem/v3-orderableDrugForm","code":"TAB"}}]}]},"request":{"method":"POST","url":"MedicationStatement"}},{"fullUrl":"MedicationStatement/c192fcec-2abb-47a8-985c-a6349f78e78b","resource":{"resourceType":"MedicationStatement","id":"c192fcec-2abb-47a8-985c-a6349f78e78b","status":"completed","medicationCodeableConcept":{"coding":[{"system":"http://www.nlm.nih.gov/research/umls/rxnorm","code":"7980"}]},"subject":{"reference":"Patient/8bc522dc-43d6-4162-a8dd-1b044b2a23eb"},"effectiveDateTime":"2022-10-09T00:00:00+00:00","dosage":[{"doseAndRate":[{"doseQuantity":{"value":5.5,"unit":"TAB","system":"http://terminology.hl7.org/CodeSystem/v3-orderableDrugForm","code":"TAB"}}]}]},"request":{"method":"POST","url":"MedicationStatement"}},{"fullUrl":"MedicationStatement/418d7e4b-e4de-410e-b6ca-c83ad2f3b48b","resource":{"resourceType":"MedicationStatement","id":"418d7e4b-e4de-410e-b6ca-c83ad2f3b48b","status":"completed","medicationCodeableConcept":{"coding":[{"system":"http://www.nlm.nih.gov/research/umls/rxnorm","code":"7980"}]},"subject":{"reference":"Patient/8bc522dc-43d6-4162-a8dd-1b044b2a23eb"},"effectiveDateTime":"2022-09-08T00:00:00+00:00","dosage":[{"doseAndRate":[{"doseQuantity":{"value":3.4,"unit":"TAB","system":"http://terminology.hl7.org/CodeSystem/v3-orderableDrugForm","code":"TAB"}}]}]},"request":{"method":"POST","url":"MedicationStatement"}},{"fullUrl":"MedicationStatement/99714df2-02e5-41e4-b01f-7477a8474a27","resource":{"resourceType":"MedicationStatement","id":"99714df2-02e5-41e4-b01f-7477a8474a27","status":"completed","medicationCodeableConcept":{"coding":[{"system":"http://www.nlm.nih.gov/research/umls/rxnorm","code":"18631"}]},"subject":{"reference":"Patient/8bc522dc-43d6-4162-a8dd-1b044b2a23eb"},"effectiveDateTime":"2022-06-10T00:00:00+00:00","dosage":[{"doseAndRate":[{"doseQuantity":{"value":3.8,"unit":"TAB","system":"http://terminology.hl7.org/CodeSystem/v3-orderableDrugForm","code":"TAB"}}]}]},"request":{"method":"POST","url":"MedicationStatement"}},{"fullUrl":"Encounter/0b8cba6e-2c32-469a-9882-53f6c8cf8668","resource":{"resourceType":"Encounter","id":"0b8cba6e-2c32-469a-9882-53f6c8cf8668","status":"finished","class":{"system":"http://terminology.hl7.org/CodeSystem/v3-ActCode","code":"IMP","display":"inpatient encounter"},"type":[{"coding":[{"system":"http://terminology.hl7.org/CodeSystem/encounter-type","code":"BD/BM-clin"}]}],"subject":{"reference":"Patient/8bc522dc-43d6-4162-a8dd-1b044b2a23eb"},"period":{"start":"2022-08-19T00:00:00+00:00","end":"2022-08-24T00:00:00+00:00"}},"request":{"method":"POST","url":"Encounter"}},{"fullUrl":"Encounter/789607e8-b96d-48c8-aecc-22672c09e298","resource":{"resourceType":"Encounter","id":"789607e8-b96d-48c8-aecc-22672c09e298","status":"finished","class":{"system":"http://terminology.hl7.org/CodeSystem/v3-ActCode","code":"IMP","display":"inpatient encounter"},"type":[{"coding":[{"system":"http://terminology.hl7.org/CodeSystem/encounter-type","code":"CCS60"}]}],"subject":{"reference":"Patient/8bc522dc-43d6-4162-a8dd-1b044b2a23eb"},"period":{"start":"2022-01-20T00:00:00+00:00","end":"2022-01-23T00:00:00+00:00"}},"request":{"method":"POST","url":"Encounter"}},{"fullUrl":"Encounter/8eda6a6a-f7e7-4bd9-8f7f-bc54eb0659a6","resource":{"resourceType":"Encounter","id":"8eda6a6a-f7e7-4bd9-8f7f-bc54eb0659a6","status":"finished","class":{"system":"http://terminology.hl7.org/CodeSystem/v3-ActCode","code":"IMP","display":"inpatient encounter"},"type":[{"coding":[{"system":"http://terminology.hl7.org/CodeSystem/encounter-type","code":"BD/BM-clin"}]}],"subject":{"reference":"Patient/8bc522dc-43d6-4162-a8dd-1b044b2a23eb"},"period":{"start":"2022-05-20T00:00:00+00:00","end":"2022-05-20T00:00:00+00:00"}},"request":{"method":"POST","url":"Encounter"}},{"fullUrl":"Encounter/4c5e207d-27ff-4458-b0ef-331ecf3aef53","resource":{"resourceType":"Encounter","id":"4c5e207d-27ff-4458-b0ef-331ecf3aef53","status":"finished","class":{"system":"http://terminology.hl7.org/CodeSystem/v3-ActCode","code":"OBSENC","display":"observation encounter"},"type":[{"coding":[{"system":"http://terminology.hl7.org/CodeSystem/encounter-type","code":"BD/BM-clin"}]}],"subject":{"reference":"Patient/8bc522dc-43d6-4162-a8dd-1b044b2a23eb"},"period":{"start":"2022-11-24T00:00:00+00:00","end":"2022-11-29T00:00:00+00:00"}},"request":{"method":"POST","url":"Encounter"}},{"fullUrl":"Encounter/57a0e434-2379-4562-b877-190489e48631","resource":{"resourceType":"Encounter","id":"57a0e434-2379-4562-b877-190489e48631","status":"finished","class":{"system":"http://terminology.hl7.org/CodeSystem/v3-ActCode","code":"OBSENC","display":"observation encounter"},"type":[{"coding":[{"system":"http://terminology.hl7.org/CodeSystem/encounter-type","code":"CCS60"}]}],"subject":{"reference":"Patient/8bc522dc-43d6-4162-a8dd-1b044b2a23eb"},"period":{"start":"2022-11-06T00:00:00+00:00","end":"2022-11-07T00:00:00+00:00"}},"request":{"method":"POST","url":"Encounter"}},{"fullUrl":"Location/9fb142d2-f44c-4016-a5dd-454498124d82","resource":{"resourceType":"Location","id":"9fb142d2-f44c-4016-a5dd-454498124d82","status":"active","name":"Ward-Powell","telecom":[{"system":"phone","value":"(861)960-1637","use":"home"}],"address":{"use":"work","line":["057 Brown Ford"],"city":"Stevenchester","state":"WY","postalCode":"16038"}},"request":{"method":"POST","url":"Location"}},{"fullUrl":"Observation/ada42a40-3fb6-4a84-b5e8-6c4340caac35","resource":{"resourceType":"Observation","id":"ada42a40-3fb6-4a84-b5e8-6c4340caac35","status":"final","code":{"coding":[{"system":"http://loinc.org","code":"81956-5"}]},"subject":{"reference":"Patient/8bc522dc-43d6-4162-a8dd-1b044b2a23eb"},"effectiveDateTime":"2022-01-10T00:00:00+00:00","valueDateTime":"2021-12-04T00:00:00+00:00"},"request":{"method":"POST","url":"Observation"}}]}