{"resourceType":"Bundle","id":"9f3feab2-258b-4323-b00d-876a4ca616c5","type":"transaction","entry":[{"fullUrl":"Patient/e8548413-2998-4d12-8ad1-45c82bde1302","resource":{"resourceType":"Patient","id":"e8548413-2998-4d12-8ad1-45c82bde1302","identifier":[{"type":{"coding":[{"system":"http://terminology.hl7.org/CodeSystem/v2-0203","code":"MR"}]},"system":"urn:fhirgen:mrn","value":"424-98-3924"}],"name":[{"use":"official","family":"Schultz","given":["Robert"]},{"use":"maiden","family":"Pearson"}],"telecom":[{"system":"phone","value":"+1-225-730-7019","use":"mobile"},{"system":"email","value":"stevenhartman@hotmail.com","use":"work"}],"gender":"male","birthDate":"2000-09-06","address":[{"use":"home","line":["13582 Crawford Plaza Apt. 031"],"city":"Lake Kaylaton","state":"FL","postalCode":"24801"},{"use":"old","line":["6132 Amy Island"],"city":"Lake Michaelfort","state":"FL","postalCode":"02606"}]},"request":{"method":"POST","url":"Patient"}},{"fullUrl":"Observation/1d6a5bbc-0f64-466d-9bd1-a5f7188edfec","resource":{"resourceType":"Observation","id":"1d6a5bbc-0f64-466d-9bd1-a5f7188edfec","status":"final","code":{"coding":[{"system":"http://loinc.org","code":"26009-1"}]},"subject":{"reference":"Patient/e8548413-2998-4d12-8ad1-45c82bde1302"},"effectiveDateTime":"2022-06-14T00:00:00+00:00","valueRatio":{"numerator":{"value":1},"denominator":{"value":64}}},"request":{"method":"POST","url":"Observation"}},{"fullUrl":"Observation/a446e0c8-f29f-4176-a96c-5d0626b4afe2","resource":{"resourceType":"Observation","id":"a446e0c8-f29f-4176-a96c-5d0626b4afe2","status":"final","code":{"coding":[{"system":"http://loinc.org","code":"34382-2"}]},"subject":{"reference":"Patient/e8548413-2998-4d12-8ad1-45c82bde1302"},"effectiveDateTime":"2022-09-11T00:00:00+00:00","valueRatio":{"numerator":{"value":1},"denominator":{"value":64}}},"request":{"method":"POST","url":"Observation"}},{"fullUrl":"Condition/0a40caf7-3f00-4c33-b89d-1eabac4172e9","resource":{"resourceType":"Condition","id":"0a40caf7-3f00-4c33-b89d-1eabac4172e9","code":{"coding":[{"system":"http://snomed.info/sct","code":"736686006"}]},"subject":{"reference":"Patient/e8548413-2998-4d12-8ad1-45c82bde1302"},"onsetDateTime":"2022-06-05T00:00:00+00:00"},"request":{"method":"POST","url":"Condition"}},{"fullUrl":"Condition/0cd9995e-080b-43fb-9dcf-8c58d5b3e99e","resource":{"resourceType":"Condition","id":"0cd9995e-080b-43fb-9dcf-8c58d5b3e99e","code":{"coding":[{"system":"http://snomed.info/sct","code":"18165001"}]},"subject":{"reference":"Patient/e8548413-2998-4d12-8ad1-45c82bde1302"},"onsetDateTime":"2022-11-11T00:00:00+00:00"},"request":{"method":"POST","url":"Condition"}},{"fullUrl":"Condition/0ef72ce0-2c86-4e25-b5cc-ac9a4c4950eb","resource":{"resourceType":"Condition","id":"0ef72ce0-2c86-4e25-b5cc-ac9a4c4950eb","code":{"coding":[{"system":"http://snomed.info/sct","code":"297123002"}]},"subject":{"reference":"Patient/e8548413-2998-4d12-8ad1-45c82bde1302"},"onsetDateTime":"2022-02-27T00:00:00+00:00"},"request":{"method":"POST","url":"Condition"}},{"fullUrl":"Condition/bf5c4094-33af-4900-b6c6-769a50c2715a","resource":{"resourceType":"Condition","id":"bf5c4094-33af-4900-b6c6-769a50c2715a","code":{"coding":[{"system":"http://snomed.info/sct","code":"271939006"}]},"subject":{"reference":"Patient/e8548413-2998-4d12-8ad1-45c82bde1302"},"onsetDateTime":"2022-02-24T00:00:00+00:00"},"request":{"method":"POST","url":"Condition"}},{"fullUrl":"Condition/41bd95f1-4eb2-4786-952a-d98dc2a22541","resource":{"resourceType":"Condition","id":"41bd95f1-4eb2-4786-952a-d98dc2a22541","code":{"coding":[{"system":"http://snomed.info/sct","code":"736686006"}]},"subject":{"reference":"Patient/e8548413-2998-4d12-8ad1-45c82bde1302"},"onsetDateTime":"2022-07-01T00:00:00+00:00"},"request":{"method":"POST","url":"Condition"}},{"fullUrl":"Condition/2be7ad30-7a54-4e13-93a4-091aef21a219","resource":{"resourceType":"Condition","id":"2be7ad30-7a54-4e13-93a4-091aef21a219","code":{"coding":[{"system":"http://snomed.info/sct","code":"297123002"}]},"subject":{"reference":"Patient/e8548413-2998-4d12-8ad1-45c82bde1302"},"onsetDateTime":"2022-11-09T00:00:00+00:00"},"request":{"method":"POST","url":"Condition"}},{"fullUrl":"Observation/c6306c46-f0ce-492d-bbfe-f34947432ee4","resource":{"resourceType":"Observation","id":"c6306c46-f0ce-492d-bbfe-f34947432ee4","status":"final","code":{"coding":[{"system":"http://loinc.org","code":"26464-8"}]},"subject":{"reference":"Patient/e8548413-2998-4d12-8ad1-45c82bde1302"},"effectiveDateTime":"2022-11-11T00:00:00+00:00","valueQuantity":{"value":7.4}},"request":{"method":"POST","url":"Observation"}},{"fullUrl":"Observation/8a7eea6e-d712-43e6-801c-b8355e413134","resource":{"resourceType":"Observation","id":"8a7eea6e-d712-43e6-801c-b8355e413134","status":"final","code":{"coding":[{"system":"http://loinc.org","code":"804-5"}]},"subject":{"reference":"Patient/e8548413-2998-4d12-8ad1-45c82bde1302"},"effectiveDateTime":"2022-08-19T00:00:00+00:00","valueQuantity":{"value":7.7}},"request":{"method":"POST","url":"Observation"}},{"fullUrl":"Observation/f704035e-3c31-44bd-b106-4ebde7e0811d","resource":{"resourceType":"Observation","id":"f704035e-3c31-44bd-b106-4ebde7e0811d","status":"final","code":{"coding":[{"system":"http://loinc.org","code":"26464-8"}]},"subject":{"reference":"Patient/e8548413-2998-4d12-8ad1-45c82bde1302"},"effectiveDateTime":"2022-12-23T00:00:00+00:00","valueCodeableConcept":{"coding":[{"system":"snomed","code":"123456","display":"fake snomed"}]}},"request":{"method":"POST","url":"Observation"}},{"fullUrl":"Observation/34f58f0e-55b5-4d77-8432-7b8fca95cc3a","resource":{"resourceType":"Observation","id":"34f58f0e-55b5-4d77-8432-7b8fca95cc3a","status":"final","code":{"coding":[{"system":"http://loinc.org","code":"804-5"}]},"subject":{"reference":"Patient/e8548413-2998-4d12-8ad1-45c82bde1302"},"effectiveDateTime":"2022-01-12T00:00:00+00:00","valueCodeableConcept":{"coding":[{"system":"snomed","code":"123456","display":"fake snomed"}]}},"request":{"method":"POST","url":"Observation"}},{"fullUrl":"Observation/2299320e-6009-492b-b479-75f90f3da36a","resource":{"resourceType":"Observation","id":"2299320e-6009-492b-b479-75f90f3da36a","status":"final","code":{"coding":[{"system":"http://loinc.org","code":"6690-2"}]},"subject":{"reference":"Patient/e8548413-2998-4d12-8ad1-45c82bde1302"},"effectiveDateTime":"2022-12-10T00:00:00+00:00","valueCodeableConcept":{"coding":[{"system":"snomed","code":"123456","display":"fake snomed"}]}},"request":{"method":"POST","url":"Observation"}},{"fullUrl":"Observation/ccab1ae0-7bbe-49a6-a722-a54e257a5855","resource":{"resourceType":"Observation","id":"ccab1ae0-7bbe-49a6-a722-a54e257a5855","status":"final","code":{"coding":[{"system":"http://loinc.org","code":"49498-9"}]},"subject":{"reference":"Patient/e8548413-2998-4d12-8ad1-45c82bde1302"},"effectiveDateTime":"2022-09-29T00:00:00+00:00"},"request":{"method":"POST","url":"Observation"}},{"fullUrl":"Observation/fc2dc950-f6ee-4ebb-9403-94351d381514","resource":{"resourceType":"Observation","id":"fc2dc950-f6ee-4ebb-9403-94351d381514","status":"final","code":{"coding":[{"system":"http://loinc.org","code":"49498-9"}]},"subject":{"reference":"Patient/e8548413-2998-4d12-8ad1-45c82bde1302"},"effectiveDateTime":"2022-06-17T00:00:00+00:00"},"request":{"method":"POST","url":"Observation"}},{"fullUrl":"Observation/685c6e4a-6426-4dc5-9b75-033d75b634f2","resource":{"resourceType":"Observation","id":"685c6e4a-6426-4dc5-9b75-033d75b634f2","status":"final","code":{"coding":[{"system":"http://loinc.org","code":"49498-9"}]},"subject":{"reference":"Patient/e8548413-2998-4d12-8ad1-45c82bde1302"},"effectiveDateTime":"2022-12-27T00:00:00+00:00"},"request":{"method":"POST","url":"Observation"}},{"fullUrl":"Procedure/e152ffc8-a240-44a6-9a03-a77296cadc77","resource":{"resourceType":"Procedure","id":"e152ffc8-a240-44a6-9a03-a77296cadc77","status":"completed","code":{"coding":[{"system":"http://snomed.info/sct","code":"189009"}]},"subject":{"reference":"Patient/e8548413-2998-4d12-8ad1-45c82bde1302"},"performedDateTime":"2022-06-20T00:00:00+00:00"},"request":{"method":"POST","url":"Procedure"}},{"fullUrl":"Procedure/247fea85-3a91-401b-8a47-e7e9ad5d7aab","resource":{"resourceType":"Procedure","id":"247fea85-3a91-401b-8a47-e7e9ad5d7aab","status":"completed","code":{"coding":[{"system":"http://snomed.info/sct","code":"189009"}]},"subject":{"reference":"Patient/e8548413-2998-4d12-8ad1-45c82bde1302"},"performedDateTime":"2022-06-10T00:00:00+00:00"},"request":{"method":"POST","url":"Procedure"}},{"fullUrl":"Procedure/2c424984-80a5-44c7-9356-7fdb94ce164c","resource":{"resourceType":"Procedure","id":"2c424984-80a5-44c7-9356-7fdb94ce164c","status":"completed","code":{"coding":[{"system":"http://snomed.info/sct","code":"146005"}]},"subject":{"reference":"Patient/e8548413-2998-4d12-8ad1-45c82bde1302"},"performedDateTime":"2022-12-08T00:00:00+00:00"},"request":{"method":"POST","url":"Procedure"}},{"fullUrl":"MedicationStatement/2a9ff20f-5313-4827-9b5b-87fcd43cc6e3","resource":{"resourceType":"MedicationStatement","id":"2a9ff20f-5313-4827-9b5b-87fcd43cc6e3","status":"completed","medicationCodeableConcept":{"coding":[{"system":"http://www.nlm.nih.gov/research/umls/rxnorm","code":"2193"}]},"subject":{"reference":"Patient/e8548413-2998-4d12-8ad1-45c82bde1302"},"effectiveDateTime":"2022-06-29T00:00:00+00:00","dosage":[{"doseAndRate":[{"doseQuantity":{"value":1,"unit":"TAB","system":"http://terminology.hl7.org/CodeSystem/v3-orderableDrugForm","code":"TAB"}}]}]},"request":{"method":"POST","url":"MedicationStatement"}},{"fullUrl":"MedicationStatement/56b363fa-c544-412c-8859-5548e2599b32","resource":{"resourceType":"MedicationStatement","id":"56b363fa-c544-412c-8859-5548e2599b32","status":"completed","medicationCodeableConcept":{"coding":[{"system":"http://www.nlm.nih.gov/research/umls/rxnorm","code":"3640"}]},"subject":{"reference":"Patient/e8548413-2998-4d12-8ad1-45c82bde1302"},"effectiveDateTime":"2022-06-23T00:00:00+00:00","dosage":[{"doseAndRate":[{"doseQuantity":{"value":4.9,"unit":"TAB","system":"http://terminology.hl7.org/CodeSystem/v3-orderableDrugForm","code":"TAB"}}]}]},"request":{"method":"POST","url":"MedicationStatement"}},{"fullUrl":"MedicationStatement/9f6afd20-14a4-4034-8302-c194d6b4c16c","resource":{"resourceType":"MedicationStatement","id":"9f6afd20-14a4-4034-8302-c194d6b4c16c","status":"completed","medicationCodeableConcept":{"coding":[{"system":"http://www.nlm.nih.gov/research/umls/rxnorm","code":"18631"}]},"subject":{"reference":"Patient/e8548413-2998-4d12-8ad1-45c82bde1302"},"effectiveDateTime":"2022-10-16T00:00:00+00:00","dosage":[{"doseAndRate":[{"doseQuantity":{"value":6.3,"unit":"TAB","system":"http://terminology.hl7.org/CodeSystem/v3-orderableDrugForm","code":"TAB"}}]}]},"request":{"method":"POST","url":"MedicationStatement"}},{"fullUrl":"MedicationStatement/4c9610f5-9d28-4c40-b3a0-da00cd0dbcb9","resource":{"resourceType":"MedicationStatement","id":"4c9610f5-9d28-4c40-b3a0-da00cd0dbcb9","status":"completed","medicationCodeableConcept":{"coding":[{"system":"http://www.nlm.nih.gov/research/umls/rxnorm","code":"2193"}]},"subject":{"reference":"Patient/e8548413-2998-4d12-8ad1-45c82bde1302"},"effectiveDateTime":"2022-12-15T00:00:00+00:00","dosage":[{"doseAndRate":[{"doseQuantity":{"value":5.4,"unit":"TAB","system":"http://terminology.hl7.org/CodeSystem/v3-orderableDrugForm","code":"TAB"}}]}]},"request":{"method":"POST","url":"MedicationStatement"}},{"fullUrl":"MedicationStatement/10a19cff-5023-4bcd-a54b-0c0a4d16dd5e","resource":{"resourceType":"MedicationStatement","id":"10a19cff-5023-4bcd-a54b-0c0a4d16dd5e","status":"completed","medicationCodeableConcept":{"coding":[{"system":"http://www.nlm.nih.gov/research/umls/rxnorm","code":"18631"}]},"subject":{"reference":"Patient/e8548413-2998-4d12-8ad1-45c82bde1302"},"effectiveDateTime":"2022-12-17T00:00:00+00:00","dosage":[{"doseAndRate":[{"doseQuantity":{"value":4.5,"unit":"TAB","system":"http://terminology.hl7.org/CodeSystem/v3-orderableDrugForm","code":"TAB"}}]}]},"request":{"method":"POST","url":"MedicationStatement"}},{"fullUrl":"Encounter/c181e9c1-9e8d-403d-9540-a92b6d7cae19","resource":{"resourceType":"Encounter","id":"c181e9c1-9e8d-403d-9540-a92b6d7cae19","status":"finished","class":{"system":"http://terminology.hl7.org/CodeSystem/v3-ActCode","code":"IMP","display":"inpatient encounter"},"type":[{"coding":[{"system":"http://terminology.hl7.org/CodeSystem/encounter-type","code":"ADMS"}]}],"subject":{"reference":"Patient/e8548413-2998-4d12-8ad1-45c82bde1302"},"period":{"start":"2022-03-19T00:00:00+00:00","end":"2022-03-21T00:00:00+00:00"}},"request":{"method":"POST","url":"Encounter"}},{"fullUrl":"Encounter/d2e6248b-c41f-40df-a9ca-9bae25a7eba0","resource":{"resourceType":"Encounter","id":"d2e6248b-c41f-40df-a9ca-9bae25a7eba0","status":"finished","class":{"system":"http://terminology.hl7.org/CodeSystem/v3-ActCode","code":"IMP","display":"inpatient encounter"},"type":[{"coding":[{"system":"http://terminology.hl7.org/CodeSystem/encounter-type","code":"OKI"}]}],"subject":{"reference":"Patient/e8548413-2998-4d12-8ad1-45c82bde1302"},"period":{"start":"2022-06-13T00:00:00+00:00","end":"2022-06-15T00:00:00+00:00"}},"request":{"method":"POST","url":"Encounter"}},{"fullUrl":"Encounter/b5065a3d-2f3a-44cd-b243-5627b1cea1aa","resource":{"resourceType":"Encounter","id":"b5065a3d-2f3a-44cd-b243-5627b1cea1aa","status":"finished","class":{"system":"http://terminology.hl7.org/CodeSystem/v3-ActCode","code":"IMP","display":"inpatient encounter"},"type":[{"coding":[{"system":"http://terminology.hl7.org/CodeSystem/encounter-type","code":"CCS60"}]}],"subject":{"reference":"Patient/e8548413-2998-4d12-8ad1-45c82bde1302"},"period":{"start":"2022-06-23T00:00:00+00:00","end":"2022-06-30T00:00:00+00:00"}},"request":{"method":"POST","url":"Encounter"}},{"fullUrl":"Encounter/4e51934c-9b83-46dd-b36e-ad0695e889eb","resource":{"resourceType":"Encounter","id":"4e51934c-9b83-46dd-b36e-ad0695e889eb","status":"finished","class":{"system":"http://terminology.hl7.org/CodeSystem/v3-ActCode","code":"NONAC","display":"inpatient non-acute"},"type":[{"coding":[{"system":"http://terminology.hl7.org/CodeSystem/encounter-type","code":"CCS60"}]}],"subject":{"reference":"Patient/e8548413-2998-4d12-8ad1-45c82bde1302"},"period":{"start":"2022-01-22T00:00:00+00:00","end":"2022-01-27T00:00:00+00:00"}},"request":{"method":"POST","url":"Encounter"}},{"fullUrl":"Encounter/84867929-e174-4209-aca3-b9bfb4c22b12","resource":{"resourceType":"Encounter","id":"84867929-e174-4209-aca3-b9bfb4c22b12","status":"finished","class":{"system":"http://terminology.hl7.org/CodeSystem/v3-ActCode","code":"VR","display":"virtual"},"type":[{"coding":[{"system":"http://terminology.hl7.org/CodeSystem/encounter-type","code":"CCS60"}]}],"subject":{"reference":"Patient/e8548413-2998-4d12-8ad1-45c82bde1302"},"period":{"start":"2022-07-05T00:00:00+00:00","end":"2022-07-12T00:00:00+00:00"}},"request":{"method":"POST","url":"Encounter"}},{"fullUrl":"Location/0feaa7f0-d96d-47d2-83a0-d60c71859a7b","resource":{"resourceType":"Location","id":"0feaa7f0-d96d-47d2-83a0-d60c71859a7b","status":"active","name":"Lester Inc","telecom":[{"system":"phone","value":"(158)223-0079x813","use":"mobile"}],"address":{"use":"work","line":["923 Nichols Fields Apt. 988"],"city":"South Kellystad","state":"WY","postalCode":"22715"}},"request":{"method":"POST","url":"Location"}},{"fullUrl":"Observation/f4945593-bdf6-405f-8b8d-0f2623ff1d6e","resource":{"resourceType":"Observation","id":"f4945593-bdf6-405f-8b8d-0f2623ff1d6e","status":"final","code":{"coding":[{"system":"http://loinc.org","code":"81956-5"}]},"subject":{"reference":"Patient/e8548413-2998-4d12-8ad1-45c82bde1302"},"effectiveDateTime":"2022-09-16T00:00:00+00:00","valueDateTime":"2022-08-11T00:00:00+00:00"},"request":{"method":"POST","url":"Observation"}},{"fullUrl":"Patient/8ca6fef8-047d-4453-96b0-98930442e806","resource":{"resourceType":"Patient","id":"8ca6fef8-047d-4453-96b0-98930442e806","identifier":[{"type":{"coding":[{"system":"http://terminology.hl7.org/CodeSystem/v2-0203","code":"MR"}]},"system":"urn:fhirgen:mrn","value":"630-25-0732"}],"name":[{"use":"official","family":"Tanner","given":["Timothy"]},{"use":"maiden","family":"Bailey"}],"telecom":[{"system":"phone","value":"650-925-8460x07669","use":"home"},{"system":"email","value":"rubenwalls@hotmail.com","use":"work"}],"gender":"male","birthDate":"1953-10-15","address":[{"use":"home","line":["057 Thompson Flats"],"city":"Steeleport","state":"MI","postalCode":"50721"},{"use":"old","line":["1664 Shaw View"],"city":"New David","state":"CO","postalCode":"13007"}]},"request":{"method":"POST","url":"Patient"}},{"fullUrl":"Observation/5df09bb9-e361-47f0-8bea-989237745a74","resource":{"resourceType":"Observation","id":"5df09bb9-e361-47f0-8bea-989237745a74","status":"final","code":{"coding":[{"system":"http://loinc.org","code":"22590-4"}]},"subject":{"reference":"Patient/8ca6fef8-047d-4453-96b0-98930442e806"},"effectiveDateTime":"2022-07-26T00:00:00+00:00","valueRatio":{"numerator":{"value":1},"denominator":{"value":32}}},"request":{"method":"POST","url":"Observation"}},{"fullUrl":"Observation/8b54b29c-ade5-4479-931e-2ec52ad09f31","resource":{"resourceType":"Observation","id":"8b54b29c-ade5-4479-931e-2ec52ad09f31","status":"final","code":{"coding":[{"system":"http://loinc.org","code":"26009-1"}]},"subject":{"reference":"Patient/8ca6fef8-047d-4453-96b0-98930442e806"},"effectiveDateTime":"2022-02-02T00:00:00+00:00","valueRatio":{"numerator":{"value":1},"denominator":{"value":64}}},"request":{"method":"POST","url":"Observation"}},{"fullUrl":"Observation/27d13d4b-d75b-473d-8d32-a462db1111f1","resource":{"resourceType":"Observation","id":"27d13d4b-d75b-473d-8d32-a462db1111f1","status":"final","code":{"coding":[{"system":"http://loinc.org","code":"11084-1"}]},"subject":{"reference":"Patient/8ca6fef8-047d-4453-96b0-98930442e806"},"effectiveDateTime":"2022-03-31T00:00:00+00:00","valueRatio":{"numerator":{"value":1},"denominator":{"value":32}}},"request":{"method":"POST","url":"Observation"}},{"fullUrl":"Condition/4c7dcbc2-3276-41b1-828a-b26743906fda","resource":{"resourceType":"Condition","id":"4c7dcbc2-3276-41b1-828a-b26743906fda","code":{"coding":[{"system":"http://snomed.info/sct","code":"31070006"}]},"subject":{"reference":"Patient/8ca6fef8-047d-4453-96b0-98930442e806"},"onsetDateTime":"2022-08-06T00:00:00+00:00"},"request":{"method":"POST","url":"Condition"}},{"fullUrl":"Condition/55ea6b49-a15d-4811-b154-a0194119dd33","resource":{"resourceType":"Condition","id":"55ea6b49-a15d-4811-b154-a0194119dd33","code":{"coding":[{"system":"http://snomed.info/sct","code":"30746006"}]},"subject":{"reference":"Patient/8ca6fef8-047d-4453-96b0-98930442e806"},"onsetDateTime":"2022-09-09T00:00:00+00:00"},"request":{"method":"POST","url":"Condition"}},{"fullUrl":"Condition/bd094293-5c19-4a20-964d-8e6019f959a1","resource":{"resourceType":"Condition","id":"bd094293-5c19-4a20-964d-8e6019f959a1","code":{"coding":[{"system":"http://snomed.info/sct","code":"31070006"}]},"subject":{"reference":"Patient/8ca6fef8-047d-4453-96b0-98930442e806"},"onsetDateTime":"2022-04-28T00:00:00+00:00"},"request":{"method":"POST","url":"Condition"}},{"fullUrl":"Observation/f8b2fbce-6d2d-4a23-8c50-05fa28acd5af","resource":{"resourceType":"Observation","id":"f8b2fbce-6d2d-4a23-8c50-05fa28acd5af","status":"final","code":{"coding":[{"system":"http://loinc.org","code":"26464-8"}]},"subject":{"reference":"Patient/8ca6fef8-047d-4453-96b0-98930442e806"},"effectiveDateTime":"2022-11-21T00:00:00+00:00","valueQuantity":{"value":9.2}},"request":{"method":"POST","url":"Observation"}},{"fullUrl":"Observation/5c8e2986-6b24-4296-a8eb-76c4def11b54","resource":{"resourceType":"Observation","id":"5c8e2986-6b24-4296-a8eb-76c4def11b54","status":"final","code":{"coding":[{"system":"http://www.ama-assn.org/go/cpt","code":"85048"}]},"subject":{"reference":"Patient/8ca6fef8-047d-4453-96b0-98930442e806"},"effectiveDateTime":"2022-11-16T00:00:00+00:00","valueQuantity":{"value":5.2}},"request":{"method":"POST","url":"Observation"}},{"fullUrl":"Observation/879b6df3-6add-4fab-bf26-4a55bbebfd55","resource":{"resourceType":"Observation","id":"879b6df3-6add-4fab-bf26-4a55bbebfd55","status":"final","code":{"coding":[{"system":"http://loinc.org","code":"26464-8"}]},"subject":{"reference":"Patient/8ca6fef8-047d-4453-96b0-98930442e806"},"effectiveDateTime":"2022-04-21T00:00:00+00:00","valueCodeableConcept":{"coding":[{"system":"snomed","code":"123456","display":"fake snomed"}]}},"request":{"method":"POST","url":"Observation"}},{"fullUrl":"Observation/eb40e415-615d-4c85-b12f-ef2f8319ada7","resource":{"resourceType":"Observation","id":"eb40e415-615d-4c85-b12f-ef2f8319ada7","status":"final","code":{"coding":[{"system":"http://www.ama-assn.org/go/cpt","code":"85048"}]},"subject":{"reference":"Patient/8ca6fef8-047d-4453-96b0-98930442e806"},"effectiveDateTime":"2022-09-08T00:00:00+00:00","valueCodeableConcept":{"coding":[{"system":"snomed","code":"123456","display":"fake snomed"}]}},"request":{"method":"POST","url":"Observation"}},{"fullUrl":"Observation/7ad4750a-85e5-4d95-99e1-bd2685353630","resource":{"resourceType":"Observation","id":"7ad4750a-85e5-4d95-99e1-bd2685353630","status":"final","code":{"coding":[{"system":"http://loinc.org","code":"6690-2"}]},"subject":{"reference":"Patient/8ca6fef8-047d-4453-96b0-98930442e806"},"effectiveDateTime":"2022-09-01T00:00:00+00:00","valueCodeableConcept":{"coding":[{"system":"snomed","code":"123456","display":"fake snomed"}]}},"request":{"method":"POST","url":"Observation"}},{"fullUrl":"Observation/ba1bc1f5-56f4-473b-8b84-60bc57b5c79b","resource":{"resourceType":"Observation","id":"ba1bc1f5-56f4-473b-8b84-60bc57b5c79b","status":"final","code":{"coding":[{"system":"http://loinc.org","code":"49498-9"}]},"subject":{"reference":"Patient/8ca6fef8-047d-4453-96b0-98930442e806"},"effectiveDateTime":"2022-03-12T00:00:00+00:00"},"request":{"method":"POST","url":"Observation"}},{"fullUrl":"Observation/ecbc0481-6119-4a3e-bed0-b9bf92250e8c","resource":{"resourceType":"Observation","id":"ecbc0481-6119-4a3e-bed0-b9bf92250e8c","status":"final","code":{"coding":[{"system":"http://loinc.org","code":"49498-9"}]},"subject":{"reference":"Patient/8ca6fef8-047d-4453-96b0-98930442e806"},"effectiveDateTime":"2022-11-12T00:00:00+00:00"},"request":{"method":"POST","url":"Observation"}},{"fullUrl":"Observation/80ab105b-4a29-451b-8abc-9d7c7b0d6b23","resource":{"resourceType":"Observation","id":"80ab105b-4a29-451b-8abc-9d7c7b0d6b23","status":"final","code":{"coding":[{"system":"http://loinc.org","code":"49498-9"}]},"subject":{"reference":"Patient/8ca6fef8-047d-4453-96b0-98930442e806"},"effectiveDateTime":"2022-02-13T00:00:00+00:00"},"request":{"method":"POST","url":"Observation"}},{"fullUrl":"Procedure/56352f16-1490-4975-bba8-8e536b53b06f","resource":{"resourceType":"Procedure","id":"56352f16-1490-4975-bba8-8e536b53b06f","status":"completed","code":{"coding":[{"system":"http://snomed.info/sct","code":"104001"}]},"subject":{"reference":"Patient/8ca6fef8-047d-4453-96b0-98930442e806"},"performedDateTime":"2022-04-08T00:00:00+00:00"},"request":{"method":"POST","url":"Procedure"}},{"fullUrl":"Procedure/e60e4176-d0e6-4229-84d5-42ecea44534f","resource":{"resourceType":"Procedure","id":"e60e4176-d0e6-4229-84d5-42ecea44534f","status":"completed","code":{"coding":[{"system":"http://snomed.info/sct","code":"146005"}]},"subject":{"reference":"Patient/8ca6fef8-047d-4453-96b0-98930442e806"},"performedDateTime":"2022-07-08T00:00:00+00:00"},"request":{"method":"POST","url":"Procedure"}},{"fullUrl":"Procedure/26d8bbb0-e3c6-4fd1-bd9f-5b25a3ece5da","resource":{"resourceType":"Procedure","id":"26d8bbb0-e3c6-4fd1-bd9f-5b25a3ece5da","status":"completed","code":{"coding":[{"system":"http://snomed.info/sct","code":"115006"}]},"subject":{"reference":"Patient/8ca6fef8-047d-4453-96b0-98930442e806"},"performedDateTime":"2022-10-22T00:00:00+00:00"},"request":{"method":"POST","url":"Procedure"}},{"fullUrl":"MedicationStatement/d98a1bcb-c182-453a-8f00-48c1592a21c1","resource":{"resourceType":"MedicationStatement","id":"d98a1bcb-c182-453a-8f00-48c1592a21c1","status":"completed","medicationCodeableConcept":{"coding":[{"system":"http://www.nlm.nih.gov/research/umls/rxnorm","code":"10395"}]},"subject":{"reference":"Patient/8ca6fef8-047d-4453-96b0-98930442e806"},"effectiveDateTime":"2022-12-30T00:00:00+00:00","dosage":[{"doseAndRate":[{"doseQuantity":{"value":2,"unit":"TAB","system":"http://terminology.hl7.org/CodeSystem/v3-orderableDrugForm","code":"TAB"}}]}]},"request":{"method":"POST","url":"MedicationStatement"}},{"fullUrl":"MedicationStatement/705e5770-baf9-47ae-a045-e77420d91b62","resource":{"resourceType":"MedicationStatement","id":"705e5770-baf9-47ae-a045-e77420d91b62","status":"completed","medicationCodeableConcept":{"coding":[{"system":"http://www.nlm.nih.gov/research/umls/rxnorm","code":"10395"}]},"subject":{"reference":"Patient/8ca6fef8-047d-4453-96b0-98930442e806"},"effectiveDateTime":"2022-02-11T00:00:00+00:00","dosage":[{"doseAndRate":[{"doseQuantity":{"value":6.1,"unit":"TAB","system":"http://terminology.hl7.org/CodeSystem/v3-orderableDrugForm","code":"TAB"}}]}]},"request":{"method":"POST","url":"MedicationStatement"}},{"fullUrl":"MedicationStatement/8e5a69fa-d719-4917-b021-b376b1144fd5","resource":{"resourceType":"MedicationStatement","id":"8e5a69fa-d719-4917-b021-b376b1144fd5","status":"completed","medicationCodeableConcept":{"coding":[{"system":"http://www.nlm.nih.gov/research/umls/rxnorm","code":"10395"}]},"subject":{"reference":"Patient/8ca6fef8-047d-4453-96b0-98930442e806"},"effectiveDateTime":"2022-11-26T00:00:00+00:00","dosage":[{"doseAndRate":[{"doseQuantity":{"value":5.1,"unit":"TAB","system":"http://terminology.hl7.org/CodeSystem/v3-orderableDrugForm","code":"TAB"}}]}]},"request":{"method":"POST","url":"MedicationStatement"}},{"fullUrl":"MedicationStatement/bb1eca2b-909d-4473-a917-0e26e9716d66","resource":{"resourceType":"MedicationStatement","id":"bb1eca2b-909d-4473-a917-0e26e9716d66","status":"completed","medicationCodeableConcept":{"coding":[{"system":"http://www.nlm.nih.gov/research/umls/rxnorm","code":"7984"}]},"subject":{"reference":"Patient/8ca6fef8-047d-4453-96b0-98930442e806"},"effectiveDateTime":"2022-01-09T00:00:00+00:00","dosage":[{"doseAndRate":[{"doseQuantity":{"value":4.8,"unit":"TAB","system":"http://terminology.hl7.org/CodeSystem/v3-orderableDrugForm","code":"TAB"}}]}]},"request":{"method":"POST","url":"MedicationStatement"}},{"fullUrl":"MedicationStatement/9a1cd7f5-bb3b-468b-8dd2-f47d8d599574","resource":{"resourceType":"MedicationStatement","id":"9a1cd7f5-bb3b-468b-8dd2-f47d8d599574","status":"completed","medicationCodeableConcept":{"coding":[{"system":"http://www.nlm.nih.gov/research/umls/rxnorm","code":"8698"}]},"subject":{"reference":"Patient/8ca6fef8-047d-4453-96b0-98930442e806"},"effectiveDateTime":"2022-02-03T00:00:00+00:00","dosage":[{"doseAndRate":[{"doseQuantity":{"value":4.4,"unit":"TAB","system":"http://terminology.hl7.org/CodeSystem/v3-orderableDrugForm","code":"TAB"}}]}]},"request":{"method":"POST","url":"MedicationStatement"}},{"fullUrl":"MedicationStatement/0c06a67d-40e0-4476-a496-95b3e7ec02a1","resource":{"resourceType":"MedicationStatement","id":"0c06a67d-40e0-4476-a496-95b3e7ec02a1","status":"completed","medicationCodeableConcept":{"coding":[{"system":"http://www.nlm.nih.gov/research/umls/rxnorm","code":"2193"}]},"subject":{"reference":"Patient/8ca6fef8-047d-4453-96b0-98930442e806"},"effectiveDateTime":"2022-06-14T00:00:00+00:00","dosage":[{"doseAndRate":[{"doseQuantity":{"value":6.1,"unit":"TAB","system":"http://terminology.hl7.org/CodeSystem/v3-orderableDrugForm","code":"TAB"}}]}]},"request":{"method":"POST","url":"MedicationStatement"}},{"fullUrl":"MedicationStatement/4ba8f010-602d-4416-a5b9-167f6dd1829b","resource":{"resourceType":"MedicationStatement","id":"4ba8f010-602d-4416-a5b9-167f6dd1829b","status":"completed","medicationCodeableConcept":{"coding":[{"system":"http://www.nlm.nih.gov/research/umls/rxnorm","code":"8698"}]},"subject":{"reference":"Patient/8ca6fef8-047d-4453-96b0-98930442e806"},"effectiveDateTime":"2022-05-07T00:00:00+00:00","dosage":[{"doseAndRate":[{"doseQuantity":{"value":6.2,"unit":"TAB","system":"http://terminology.hl7.org/CodeSystem/v3-orderableDrugForm","code":"TAB"}}]}]},"request":{"method":"POST","url":"MedicationStatement"}},{"fullUrl":"MedicationStatement/6e3b22ad-95cc-4321-a288-fa3e15ff5cdc","resource":{"resourceType":"MedicationStatement","id":"6e3b22ad-95cc-4321-a288-fa3e15ff5cdc","status":"completed","medicationCodeableConcept":{"coding":[{"system":"http://www.nlm.nih.gov/research/umls/rxnorm","code":"3640"}]},"subject":{"reference":"Patient/8ca6fef8-047d-4453-96b0-98930442e806"},"effectiveDateTime":"2022-04-09T00:00:00+00:00","dosage":[{"doseAndRate":[{"doseQuantity":{"value":4.9,"unit":"TAB","system":"http://terminology.hl7.org/CodeSystem/v3-orderableDrugForm","code":"TAB"}}]}]},"request":{"method":"POST","url":"MedicationStatement"}},{"fullUrl":"Encounter/b0781555-e053-41e9-882e-f1b98b3acade","resource":{"resourceType":"Encounter","id":"b0781555-e053-41e9-882e-f1b98b3acade","status":"finished","class":{"system":"http://terminology.hl7.org/CodeSystem/v3-ActCode","code":"IMP","display":"inpatient encounter"},"type":[{"coding":[{"system":"http://terminology.hl7.org/CodeSystem/encounter-type","code":"OKI"}]}],"subject":{"reference":"Patient/8ca6fef8-047d-4453-96b0-98930442e806"},"period":{"start":"2022-07-03T00:00:00+00:00","end":"2022-07-11T00:00:00+00:00"}},"request":{"method":"POST","url":"Encounter"}},{"fullUrl":"Encounter/d13d0341-543f-4401-bfdb-d3db572d3568","resource":{"resourceType":"Encounter","id":"d13d0341-543f-4401-bfdb-d3db572d3568","status":"finished","class":{"system":"http://terminology.hl7.org/CodeSystem/v3-ActCode","code":"IMP","display":"inpatient encounter"},"type":[{"coding":[{"system":"http://terminology.hl7.org/CodeSystem/encounter-type","code":"ADMS"}]}],"subject":{"reference":"Patient/8ca6fef8-047d-4453-96b0-98930442e806"},"period":{"start":"2022-03-17T00:00:00+00:00","end":"2022-03-26T00:00:00+00:00"}},"request":{"method":"POST","url":"Encounter"}},{"fullUrl":"Encounter/5f9708f0-488f-4b29-bd05-85a36b3b29ef","resource":{"resourceType":"Encounter","id":"5f9708f0-488f-4b29-bd05-85a36b3b29ef","status":"finished","class":{"system":"http://terminology.hl7.org/CodeSystem/v3-ActCode","code":"PRENC","display":"pre-admission"},"type":[{"coding":[{"system":"http://terminology.hl7.org/CodeSystem/encounter-type","code":"BD/BM-clin"}]}],"subject":{"reference":"Patient/8ca6fef8-047d-4453-96b0-98930442e806"},"period":{"start":"2022-04-22T00:00:00+00:00","end":"2022-04-27T00:00:00+00:00"}},"request":{"method":"POST","url":"Encounter"}},{"fullUrl":"Encounter/5f0e8654-fa30-448c-9fee-3ceec8ec063a","resource":{"resourceType":"Encounter","id":"5f0e8654-fa30-448c-9fee-3ceec8ec063a","status":"finished","class":{"system":"http://terminology.hl7.org/CodeSystem/v3-ActCode","code":"VR","display":"virtual"},"type":[{"coding":[{"system":"http://terminology.hl7.org/CodeSystem/encounter-type","code":"CCS60"}]}],"subject":{"reference":"Patient/8ca6fef8-047d-4453-96b0-98930442e806"},"period":{"start":"2022-09-13T00:00:00+00:00","end":"2022-09-17T00:00:00+00:00"}},"request":{"method":"POST","url":"Encounter"}},{"fullUrl":"Location/e612ca64-96a9-4a97-8cd2-e5b0529cda00","resource":{"resourceType":"Location","id":"e612ca64-96a9-4a97-8cd2-e5b0529cda00","status":"active","name":"Bennett, Ray and Young","telecom":[{"system":"phone","value":"001-415-722-5306x1730","use":"mobile"}],"address":{"use":"work","line":["188 Jerome Wells Suite 745"],"city":"Bellshire","state":"WI","postalCode":"49391"}},"request":{"method":"POST","url":"Location"}},{"fullUrl":"Observation/d0c6d78f-a7da-47dd-9b65-f3fbc267655b","resource":{"resourceType":"Observation","id":"d0c6d78f-a7da-47dd-9b65-f3fbc267655b","status":"final","code":{"coding":[{"system":"http://loinc.org","code":"81956-5"}]},"subject":{"reference":"Patient/8ca6fef8-047d-4453-96b0-98930442e806"},"effectiveDateTime":"2022-07-02T00:00:00+00:00","valueDateTime":"2022-05-03T00:00:00+00:00"},"request":{"method":"POST","url":"Observation"}},{"fullUrl":"Patient/ed7e0827-bb28-4507-a5f6-c51b583cde7d","resource":{"resourceType":"Patient","id":"ed7e0827-bb28-4507-a5f6-c51b583cde7d","identifier":[{"type":{"coding":[{"system":"http://terminology.hl7.org/CodeSystem/v2-0203","code":"MR"}]},"system":"urn:fhirgen:mrn","value":"783-71-7458"}],"name":[{"use":"official","family":"Green","given":["Peggy"]},{"use":"maiden","family":"Lopez"}],"telecom":[{"system":"phone","value":"440-586-1497x170","use":"work"},{"system":"email","value":"awhite@yahoo.com","use":"mobile"}],"gender":"female","birthDate":"1990-02-28","address":[{"use":"home","line":["347 Simpson Pass Suite 830"],"city":"Lindabury","state":"OH","postalCode":"96989"},{"use":"old","line":["953 Ryan Mill"],"city":"Saratown","state":"OK","postalCode":"50558"}]},"request":{"method":"POST","url":"Patient"}},{"fullUrl":"Observation/7209fdbe-28b8-4a82-9e55-d2a56f0d9a38","resource":{"resourceType":"Observation","id":"7209fdbe-28b8-4a82-9e55-d2a56f0d9a38","status":"final","code":{"coding":[{"system":"http://loinc.org","code":"51475-2"}]},"subject":{"reference":"Patient/ed7e0827-bb28-4507-a5f6-c51b583cde7d"},"effectiveDateTime":"2022-10-20T00:00:00+00:00","valueRatio":{"numerator":{"value":1},"denominator":{"value":4}}},"request":{"method":"POST","url":"Observation"}},{"fullUrl":"Observation/13fbb379-8638-40ec-90d8-d9ed76fa791d","resource":{"resourceType":"Observation","id":"13fbb379-8638-40ec-90d8-d9ed76fa791d","status":"final","code":{"coding":[{"system":"http://loinc.org","code":"50695-6"}]},"subject":{"reference":"Patient/ed7e0827-bb28-4507-a5f6-c51b583cde7d"},"effectiveDateTime":"2022-02-28T00:00:00+00:00","valueRatio":{"numerator":{"value":1},"denominator":{"value":4}}},"request":{"method":"POST","url":"Observation"}},{"fullUrl":"Observation/9e09bd86-c580-4813-b6e1-7f047a97b498","resource":{"resourceType":"Observation","id":"9e09bd86-c580-4813-b6e1-7f047a97b498","status":"final","code":{"coding":[{"system":"http://loinc.org","code":"50690-7"}]},"subject":{"reference":"Patient/ed7e0827-bb28-4507-a5f6-c51b583cde7d"},"effectiveDateTime":"2022-02-08T00:00:00+00:00","valueRatio":{"numerator":{"value":1},"denominator":{"value":4}}},"request":{"method":"POST","url":"Observation"}},{"fullUrl":"Condition/fa945d88-0b62-44f3-b1d7-6e20fcda6f13","resource":{"resourceType":"Condition","id":"fa945d88-0b62-44f3-b1d7-6e20fcda6f13","code":{"coding":[{"system":"http://snomed.info/sct","code":"248980004"}]},"subject":{"reference":"Patient/ed7e0827-bb28-4507-a5f6-c51b583cde7d"},"onsetDateTime":"2022-02-08T00:00:00+00:00"},"request":{"method":"POST","url":"Condition"}},{"fullUrl":"Condition/fde64c28-eaf1-47b0-9853-d46300e885d8","resource":{"resourceType":"Condition","id":"fde64c28-eaf1-47b0-9853-d46300e885d8","code":{"coding":[{"system":"http://snomed.info/sct","code":"21522001"}]},"subject":{"reference":"Patient/ed7e0827-bb28-4507-a5f6-c51b583cde7d"},"onsetDateTime":"2022-11-04T00:00:00+00:00"},"request":{"method":"POST","url":"Condition"}},{"fullUrl":"Condition/52fc6de5-0055-4cb6-8e92-a332dd1bb0e4","resource":{"resourceType":"Condition","id":"52fc6de5-0055-4cb6-8e92-a332dd1bb0e4","code":{"coding":[{"system":"http://snomed.info/sct","code":"386661006"}]},"subject":{"reference":"Patient/ed7e0827-bb28-4507-a5f6-c51b583cde7d"},"onsetDateTime":"2022-04-15T00:00:00+00:00"},"request":{"method":"POST","url":"Condition"}},{"fullUrl":"Condition/6521ee5b-3768-41d5-8075-ad26f3be8fcd","resource":{"resourceType":"Condition","id":"6521ee5b-3768-41d5-8075-ad26f3be8fcd","code":{"coding":[{"system":"http://snomed.info/sct","code":"30746006"}]},"subject":{"reference":"Patient/ed7e0827-bb28-4507-a5f6-c51b583cde7d"},"onsetDateTime":"2022-10-27T00:00:00+00:00"},"request":{"method":"POST","url":"Condition"}},{"fullUrl":"Condition/f7bdbb56-fe75-4401-8daf-efb5c781f62c","resource":{"resourceType":"Condition","id":"f7bdbb56-fe75-4401-8daf-efb5c781f62c","code":{"coding":[{"system":"http://snomed.info/sct","code":"386661006"}]},"subject":{"reference":"Patient/ed7e0827-bb28-4507-a5f6-c51b583cde7d"},"onsetDateTime":"2022-08-03T00:00:00+00:00"},"request":{"method":"POST","url":"Condition"}},{"fullUrl":"Observation/c406abf8-c146-4516-acdc-45e8e1c3b7b7","resource":{"resourceType":"Observation","id":"c406abf8-c146-4516-acdc-45e8e1c3b7b7","status":"final","code":{"coding":[{"system":"http://loinc.org","code":"49498-9"}]},"subject":{"reference":"Patient/ed7e0827-bb28-4507-a5f6-c51b583cde7d"},"effectiveDateTime":"2022-04-05T00:00:00+00:00","valueQuantity":{"value":8.5}},"request":{"method":"POST","url":"Observation"}},{"fullUrl":"Observation/416bf06f-bab7-49aa-9a18-875add799f71","resource":{"resourceType":"Observation","id":"416bf06f-bab7-49aa-9a18-875add799f71","status":"final","code":{"coding":[{"system":"http://loinc.org","code":"26464-8"}]},"subject":{"reference":"Patient/ed7e0827-bb28-4507-a5f6-c51b583cde7d"},"effectiveDateTime":"2022-05-02T00:00:00+00:00","valueQuantity":{"value":7.8}},"request":{"method":"POST","url":"Observation"}},{"fullUrl":"Observation/06977920-9512-4f7e-a10c-74ce94be7ea2","resource":{"resourceType":"Observation","id":"06977920-9512-4f7e-a10c-74ce94be7ea2","status":"final","code":{"coding":[{"system":"http://loinc.org","code":"804-5"}]},"subject":{"reference":"Patient/ed7e0827-bb28-4507-a5f6-c51b583cde7d"},"effectiveDateTime":"2022-10-29T00:00:00+00:00","valueQuantity":{"value":9.7}},"request":{"method":"POST","url":"Observation"}},{"fullUrl":"Observation/ee3c44a3-ee1c-48de-9d21-93c409cab028","resource":{"resourceType":"Observation","id":"ee3c44a3-ee1c-48de-9d21-93c409cab028","status":"final","code":{"coding":[{"system":"http://loinc.org","code":"49498-9"}]},"subject":{"reference":"Patient/ed7e0827-bb28-4507-a5f6-c51b583cde7d"},"effectiveDateTime":"2022-12-05T00:00:00+00:00","valueCodeableConcept":{"coding":[{"system":"snomed","code":"123456","display":"fake snomed"}]}},"request":{"method":"POST","url":"Observation"}},{"fullUrl":"Observation/6508dc4e-ff81-4fdf-b0b6-cc3a11cd73b0","resource":{"resourceType":"Observation","id":"6508dc4e-ff81-4fdf-b0b6-cc3a11cd73b0","status":"final","code":{"coding":[{"system":"http://www.ama-assn.org/go/cpt","code":"85048"}]},"subject":{"reference":"Patient/ed7e0827-bb28-4507-a5f6-c51b583cde7d"},"effectiveDateTime":"2022-05-19T00:00:00+00:00","valueCodeableConcept":{"coding":[{"system":"snomed","code":"123456","display":"fake snomed"}]}},"request":{"method":"POST","url":"Observation"}},{"fullUrl":"Observation/93401f11-7079-4c3a-a991-19051f3515a8","resource":{"resourceType":"Observation","id":"93401f11-7079-4c3a-a991-19051f3515a8","status":"final","code":{"coding":[{"system":"http://loinc.org","code":"6690-2"}]},"subject":{"reference":"Patient/ed7e0827-bb28-4507-a5f6-c51b583cde7d"},"effectiveDateTime":"2022-07-03T00:00:00+00:00","valueCodeableConcept":{"coding":[{"system":"snomed","code":"123456","display":"fake snomed"}]}},"request":{"method":"POST","url":"Observation"}},{"fullUrl":"Observation/a20b1f20-1a34-4abe-b574-a238207fe602","resource":{"resourceType":"Observation","id":"a20b1f20-1a34-4abe-b574-a238207fe602","status":"final","code":{"coding":[{"system":"http://loinc.org","code":"49498-9"}]},"subject":{"reference":"Patient/ed7e0827-bb28-4507-a5f6-c51b583cde7d"},"effectiveDateTime":"2022-05-08T00:00:00+00:00"},"request":{"method":"POST","url":"Observation"}},{"fullUrl":"Observation/75ab758b-2c4a-4128-8591-e5fada14d99b","resource":{"resourceType":"Observation","id":"75ab758b-2c4a-4128-8591-e5fada14d99b","status":"final","code":{"coding":[{"system":"http://loinc.org","code":"49498-9"}]},"subject":{"reference":"Patient/ed7e0827-bb28-4507-a5f6-c51b583cde7d"},"effectiveDateTime":"2022-05-27T00:00:00+00:00"},"request":{"method":"POST","url":"Observation"}},{"fullUrl":"Procedure/873bccf3-44c0-4c85-9f84-7b4e86fb49f8","resource":{"resourceType":"Procedure","id":"873bccf3-44c0-4c85-9f84-7b4e86fb49f8","status":"completed","code":{"coding":[{"system":"http://snomed.info/sct","code":"146005"}]},"subject":{"reference":"Patient/ed7e0827-bb28-4507-a5f6-c51b583cde7d"},"performedDateTime":"2022-09-03T00:00:00+00:00"},"request":{"method":"POST","url":"Procedure"}},{"fullUrl":"Procedure/d92a61e1-0d1b-4afc-8c52-25af5cc101fb","resource":{"resourceType":"Procedure","id":"d92a61e1-0d1b-4afc-8c52-25af5cc101fb","status":"completed","code":{"coding":[{"system":"http://snomed.info/sct","code":"115006"}]},"subject":{"reference":"Patient/ed7e0827-bb28-4507-a5f6-c51b583cde7d"},"performedDateTime":"2022-01-04T00:00:00+00:00"},"request":{"method":"POST","url":"Procedure"}},{"fullUrl":"Procedure/327f63e7-a7ec-4a12-91d7-e0f9667db8d2","resource":{"resourceType":"Procedure","id":"327f63e7-a7ec-4a12-91d7-e0f9667db8d2","status":"completed","code":{"coding":[{"system":"http://snomed.info/sct","code":"146005"}]},"subject":{"reference":"Patient/ed7e0827-bb28-4507-a5f6-c51b583cde7d"},"performedDateTime":"2022-10-31T00:00:00+00:00"},"request":{"method":"POST","url":"Procedure"}},{"fullUrl":"MedicationStatement/b582480b-e262-4e9b-8c8c-4d300549f49e","resource":{"resourceType":"MedicationStatement","id":"b582480b-e262-4e9b-8c8c-4d300549f49e","status":"completed","medicationCodeableConcept":{"coding":[{"system":"http://www.nlm.nih.gov/research/umls/rxnorm","code":"10395"}]},"subject":{"reference":"Patient/ed7e0827-bb28-4507-a5f6-c51b583cde7d"},"effectiveDateTime":"2022-11-04T00:00:00+00:00","dosage":[{"doseAndRate":[{"doseQuantity":{"value":1,"unit":"TAB","system":"http://terminology.hl7.org/CodeSystem/v3-orderableDrugForm","code":"TAB"}}]}]},"request":{"method":"POST","url":"MedicationStatement"}},{"fullUrl":"MedicationStatement/6145b179-df6d-48ca-aa9e-6d182c703a72","resource":{"resourceType":"MedicationStatement","id":"6145b179-df6d-48ca-aa9e-6d182c703a72","status":"completed","medicationCodeableConcept":{"coding":[{"system":"http://www.nlm.nih.gov/research/umls/rxnorm","code":"18631"}]},"subject":{"reference":"Patient/ed7e0827-bb28-4507-a5f6-c51b583cde7d"},"effectiveDateTime":"2022-07-24T00:00:00+00:00","dosage":[{"doseAndRate":[{"doseQuantity":{"value":5,"unit":"TAB","system":"http://terminology.hl7.org/CodeSystem/v3-orderableDrugForm","code":"TAB"}}]}]},"request":{"method":"POST","url":"MedicationStatement"}},{"fullUrl":"MedicationStatement/ff591aaf-6ada-4ca0-9e0e-d826e4d9b7c5","resource":{"resourceType":"MedicationStatement","id":"ff591aaf-6ada-4ca0-9e0e-d826e4d9b7c5","status":"completed","medicationCodeableConcept":{"coding":[{"system":"http://www.nlm.nih.gov/research/umls/rxnorm","code":"7984"}]},"subject":{"reference":"Patient/ed7e0827-bb28-4507-a5f6-c51b583cde7d"},"effectiveDateTime":"2022-05-19T00:00:00+00:00","dosage":[{"doseAndRate":[{"doseQuantity":{"value":4.5,"unit":"TAB","system":"http://terminology.hl7.org/CodeSystem/v3-orderableDrugForm","code":"TAB"}}]}]},"request":{"method":"POST","url":"MedicationStatement"}},{"fullUrl":"MedicationStatement/64b1f5b2-ccfc-402a-8fc7-ac797e925b1b","resource":{"resourceType":"MedicationStatement","id":"64b1f5b2-ccfc-402a-8fc7-ac797e925b1b","status":"completed","medicationCodeableConcept":{"coding":[{"system":"http://www.nlm.nih.gov/research/umls/rxnorm","code":"18631"}]},"subject":{"reference":"Patient/ed7e0827-bb28-4507-a5f6-c51b583cde7d"},"effectiveDateTime":"2022-02-27T00:00:00+00:00","dosage":[{"doseAndRate":[{"doseQuantity":{"value":3.5,"unit":"TAB","system":"http://terminology.hl7.org/CodeSystem/v3-orderableDrugForm","code":"TAB"}}]}]},"request":{"method":"POST","url":"MedicationStatement"}},{"fullUrl":"MedicationStatement/22a3d01d-b88c-4033-a19c-d99bd0d89256","resource":{"resourceType":"MedicationStatement","id":"22a3d01d-b88c-4033-a19c-d99bd0d89256","status":"completed","medicationCodeableConcept":{"coding":[{"system":"http://www.nlm.nih.gov/research/umls/rxnorm","code":"7980"}]},"subject":{"reference":"Patient/ed7e0827-bb28-4507-a5f6-c51b583cde7d"},"effectiveDateTime":"2022-03-11T00:00:00+00:00","dosage":[{"doseAndRate":[{"doseQuantity":{"value":4.3,"unit":"TAB","system":"http://terminology.hl7.org/CodeSystem/v3-orderableDrugForm","code":"TAB"}}]}]},"request":{"method":"POST","url":"MedicationStatement"}},{"fullUrl":"Encounter/573852a8-3a8b-4ac6-9249-97a1010eb5b3","resource":{"resourceType":"Encounter","id":"573852a8-3a8b-4ac6-9249-97a1010eb5b3","status":"finished","class":{"system":"http://terminology.hl7.org/CodeSystem/v3-ActCode","code":"IMP","display":"inpatient encounter"},"type":[{"coding":[{"system":"http://terminology.hl7.org/CodeSystem/encounter-type","code":"ADMS"}]}],"subject":{"reference":"Patient/ed7e0827-bb28-4507-a5f6-c51b583cde7d"},"period":{"start":"2022-03-25T00:00:00+00:00","end":"2022-03-31T00:00:00+00:00"}},"request":{"method":"POST","url":"Encounter"}},{"fullUrl":"Encounter/018a48ec-2a77-4f05-8031-3461abb0ae32","resource":{"resourceType":"Encounter","id":"018a48ec-2a77-4f05-8031-3461abb0ae32","status":"finished","class":{"system":"http://terminology.hl7.org/CodeSystem/v3-ActCode","code":"IMP","display":"inpatient encounter"},"type":[{"coding":[{"system":"http://terminology.hl7.org/CodeSystem/encounter-type","code":"OKI"}]}],"subject":{"reference":"Patient/ed7e0827-bb28-4507-a5f6-c51b583cde7d"},"period":{"start":"2022-01-13T00:00:00+00:00","end":"2022-01-20T00:00:00+00:00"}},"request":{"method":"POST","url":"Encounter"}},{"fullUrl":"Encounter/369ad778-8017-4689-9c59-f96464c0df6f","resource":{"resourceType":"Encounter","id":"369ad778-8017-4689-9c59-f96464c0df6f","status":"finished","class":{"system":"http://terminology.hl7.org/CodeSystem/v3-ActCode","code":"IMP","display":"inpatient encounter"},"type":[{"coding":[{"system":"http://terminology.hl7.org/CodeSystem/encounter-type","code":"BD/BM-clin"}]}],"subject":{"reference":"Patient/ed7e0827-bb28-4507-a5f6-c51b583cde7d"},"period":{"start":"2022-03-13T00:00:00+00:00","end":"2022-03-14T00:00:00+00:00"}},"request":{"method":"POST","url":"Encounter"}},{"fullUrl":"Encounter/a902bd22-017b-4541-9b3c-580a8d57c841","resource":{"resourceType":"Encounter","id":"a902bd22-017b-4541-9b3c-580a8d57c841","status":"finished","class":{"system":"http://terminology.hl7.org/CodeSystem/v3-ActCode","code":"HH","display":"home health"},"type":[{"coding":[{"system":"http://terminology.hl7.org/CodeSystem/encounter-type","code":"BD/BM-clin"}]}],"subject":{"reference":"Patient/ed7e0827-bb28-4507-a5f6-c51b583cde7d"},"period":{"start":"2022-01-13T00:00:00+00:00","end":"2022-01-16T00:00:00+00:00"}},"request":{"method":"POST","url":"Encounter"}},{"fullUrl":"Encounter/9edddf97-0420-40db-9422-66f8edeb09d5","resource":{"resourceType":"Encounter","id":"9edddf97-0420-40db-9422-66f8edeb09d5","status":"finished","class":{"system":"http://terminology.hl7.org/CodeSystem/v3-ActCode","code":"IMP","display":"inpatient encounter"},"type":[{"coding":[{"system":"http://terminology.hl7.org/CodeSystem/encounter-type","code":"BD/BM-clin"}]}],"subject":{"reference":"Patient/ed7e0827-bb28-4507-a5f6-c51b583cde7d"},"period":{"start":"2022-12-30T00:00:00+00:00","end":"2023-01-01T00:00:00+00:00"}},"request":{"method":"POST","url":"Encounter"}},{"fullUrl":"Location/37b44bbd-ca7f-47af-a6c1-78e7f133b18e","resource":{"resourceType":"Location","id":"37b44bbd-ca7f-47af-a6c1-78e7f133b18e","status":"active","name":"Elliott Group","telecom":[{"system":"phone","value":"001-585-417-1168x02450","use":"home"}],"address":{"use":"work","line":["36123 Chan Lodge"],"city":"Kennethside","state":"WA","postalCode":"15465"}},"request":{"method":"POST","url":"Location"}},{"fullUrl":"Observation/04818aaa-a121-4913-8c8b-efb4e5771057","resource":{"resourceType":"Observation","id":"04818aaa-a121-4913-8c8b-efb4e5771057","status":"final","code":{"coding":[{"system":"http://loinc.org","code":"81956-5"}]},"subject":{"reference":"Patient/ed7e0827-bb28-4507-a5f6-c51b583cde7d"},"effectiveDateTime":"2022-02-15T00:00:00+00:00","valueDateTime":"2021-11-09T00:00:00+00:00"},"request":{"method":"POST","url":"Observation"}},{"fullUrl":"Patient/531cf662-549a-409e-aecf-62f92ac1f7de","resource":{"resourceType":"Patient","id":"531cf662-549a-409e-aecf-62f92ac1f7de","identifier":[{"type":{"coding":[{"system":"http://terminology.hl7.org/CodeSystem/v2-0203","code":"MR"}]},"system":"urn:fhirgen:mrn","value":"860-41-3797"}],"name":[{"use":"official","family":"Long","given":["Jasmine"]},{"use":"maiden","family":"Deleon"}],"telecom":[{"system":"phone","value":"+1-146-574-5687","use":"work"},{"system":"email","value":"westryan@hotmail.com","use":"work"}],"gender":"female","birthDate":"1945-08-17","address":[{"use":"home","line":["1475 Hicks Mountain Suite 406"],"city":"Smithport","state":"MI","postalCode":"73049"},{"use":"old","line":["724 Ware Mountains Apt. 844"],"city":"Cathyport","state":"MT","postalCode":"46247"}]},"request":{"method":"POST","url":"Patient"}},{"fullUrl":"Observation/0012fd37-389d-4ca3-a7e4-68b91f377685","resource":{"resourceType":"Observation","id":"0012fd37-389d-4ca3-a7e4-68b91f377685","status":"final","code":{"coding":[{"system":"http://loinc.org","code":"46203-6"}]},"subject":{"reference":"Patient/531cf662-549a-409e-aecf-62f92ac1f7de"},"effectiveDateTime":"2022-06-18T00:00:00+00:00","valueRatio":{"numerator":{"value":1},"denominator":{"value":64}}},"request":{"method":"POST","url":"Observation"}},{"fullUrl":"Observation/7e2104a8-ad0a-43e0-9963-3996206bf464","resource":{"resourceType":"Observation","id":"7e2104a8-ad0a-43e0-9963-3996206bf464","status":"final","code":{"coding":[{"system":"http://loinc.org","code":"51475-2"}]},"subject":{"reference":"Patient/531cf662-549a-409e-aecf-62f92ac1f7de"},"effectiveDateTime":"2022-02-17T00:00:00+00:00","valueRatio":{"numerator":{"value":1},"denominator":{"value":4}}},"request":{"method":"POST","url":"Observation"}},{"fullUrl":"Observation/5b76b3e3-7b41-4677-95b2-cc7e6cf2ec37","resource":{"resourceType":"Observation","id":"5b76b3e3-7b41-4677-95b2-cc7e6cf2ec37","status":"final","code":{"coding":[{"system":"http://loinc.org","code":"31147-2"}]},"subject":{"reference":"Patient/531cf662-549a-409e-aecf-62f92ac1f7de"},"effectiveDateTime":"2022-11-22T00:00:00+00:00","valueRatio":{"numerator":{"value":1},"denominator":{"value":4}}},"request":{"method":"POST","url":"Observation"}},{"fullUrl":"Condition/f71952ef-9a23-45a4-8ef7-f9dd68aad17a","resource":{"resourceType":"Condition","id":"f71952ef-9a23-45a4-8ef7-f9dd68aad17a","code":{"coding":[{"system":"http://snomed.info/sct","code":"736686006"}]},"subject":{"reference":"Patient/531cf662-549a-409e-aecf-62f92ac1f7de"},"onsetDateTime":"2022-09-13T00:00:00+00:00"},"request":{"method":"POST","url":"Condition"}},{"fullUrl":"Condition/37a2eae3-bbc5-4c25-9a4d-8efbc6c07db5","resource":{"resourceType":"Condition","id":"37a2eae3-bbc5-4c25-9a4d-8efbc6c07db5","code":{"coding":[{"system":"http://snomed.info/sct","code":"386661006"}]},"subject":{"reference":"Patient/531cf662-549a-409e-aecf-62f92ac1f7de"},"onsetDateTime":"2022-01-28T00:00:00+00:00"},"request":{"method":"POST","url":"Condition"}},{"fullUrl":"Condition/10070267-57de-4776-b3c0-fe7e2278826d","resource":{"resourceType":"Condition","id":"10070267-57de-4776-b3c0-fe7e2278826d","code":{"coding":[{"system":"http://snomed.info/sct","code":"248980004"}]},"subject":{"reference":"Patient/531cf662-549a-409e-aecf-62f92ac1f7de"},"onsetDateTime":"2022-01-20T00:00:00+00:00"},"request":{"method":"POST","url":"Condition"}},{"fullUrl":"Condition/c4d94693-4c73-43bd-a9dd-e2fb10c0f8d2","resource":{"resourceType":"Condition","id":"c4d94693-4c73-43bd-a9dd-e2fb10c0f8d2","code":{"coding":[{"system":"http://snomed.info/sct","code":"248980004"}]},"subject":{"reference":"Patient/531cf662-549a-409e-aecf-62f92ac1f7de"},"onsetDateTime":"2022-10-06T00:00:00+00:00"},"request":{"method":"POST","url":"Condition"}},{"fullUrl":"Condition/667dc951-8a48-49b1-ad3a-fe25239721ef","resource":{"resourceType":"Condition","id":"667dc951-8a48-49b1-ad3a-fe25239721ef","code":{"coding":[{"system":"http://snomed.info/sct","code":"709977002"}]},"subject":{"reference":"Patient/531cf662-549a-409e-aecf-62f92ac1f7de"},"onsetDateTime":"2022-05-15T00:00:00+00:00"},"request":{"method":"POST","url":"Condition"}},{"fullUrl":"Condition/f752a58d-aaf8-4a16-a361-3a5c23bd3ece","resource":{"resourceType":"Condition","id":"f752a58d-aaf8-4a16-a361-3a5c23bd3ece","code":{"coding":[{"system":"http://snomed.info/sct","code":"271939006"}]},"subject":{"reference":"Patient/531cf662-549a-409e-aecf-62f92ac1f7de"},"onsetDateTime":"2022-01-30T00:00:00+00:00"},"request":{"method":"POST","url":"Condition"}},{"fullUrl":"Observation/01573b34-bdb7-499e-8404-7f930dc50837","resource":{"resourceType":"Observation","id":"01573b34-bdb7-499e-8404-7f930dc50837","status":"final","code":{"coding":[{"system":"http://loinc.org","code":"6690-2"}]},"subject":{"reference":"Patient/531cf662-549a-409e-aecf-62f92ac1f7de"},"effectiveDateTime":"2022-06-13T00:00:00+00:00","valueQuantity":{"value":4.2}},"request":{"method":"POST","url":"Observation"}},{"fullUrl":"Observation/ce6d6e77-de29-45d3-bb90-e94ab4b9d077","resource":{"resourceType":"Observation","id":"ce6d6e77-de29-45d3-bb90-e94ab4b9d077","status":"final","code":{"coding":[{"system":"http://loinc.org","code":"49498-9"}]},"subject":{"reference":"Patient/531cf662-549a-409e-aecf-62f92ac1f7de"},"effectiveDateTime":"2022-09-26T00:00:00+00:00","valueQuantity":{"value":5.3}},"request":{"method":"POST","url":"Observation"}},{"fullUrl":"Observation/ff2ee3c9-d623-4507-a31f-275084f7b29a","resource":{"resourceType":"Observation","id":"ff2ee3c9-d623-4507-a31f-275084f7b29a","status":"final","code":{"coding":[{"system":"http://loinc.org","code":"26464-8"}]},"subject":{"reference":"Patient/531cf662-549a-409e-aecf-62f92ac1f7de"},"effectiveDateTime":"2022-08-18T00:00:00+00:00","valueQuantity":{"value":5}},"request":{"method":"POST","url":"Observation"}},{"fullUrl":"Observation/d867a3d8-ade5-4582-99b7-2f6cb2d7a3f9","resource":{"resourceType":"Observation","id":"d867a3d8-ade5-4582-99b7-2f6cb2d7a3f9","status":"final","code":{"coding":[{"system":"http://www.ama-assn.org/go/cpt","code":"85048"}]},"subject":{"reference":"Patient/531cf662-549a-409e-aecf-62f92ac1f7de"},"effectiveDateTime":"2022-05-23T00:00:00+00:00","valueCodeableConcept":{"coding":[{"system":"snomed","code":"123456","display":"fake snomed"}]}},"request":{"method":"POST","url":"Observation"}},{"fullUrl":"Observation/cec8ea60-3daf-43c3-838f-effd5b2260f6","resource":{"resourceType":"Observation","id":"cec8ea60-3daf-43c3-838f-effd5b2260f6","status":"final","code":{"coding":[{"system":"http://loinc.org","code":"6690-2"}]},"subject":{"reference":"Patient/531cf662-549a-409e-aecf-62f92ac1f7de"},"effectiveDateTime":"2022-01-07T00:00:00+00:00","valueCodeableConcept":{"coding":[{"system":"snomed","code":"123456","display":"fake snomed"}]}},"request":{"method":"POST","url":"Observation"}},{"fullUrl":"Observation/cda0872c-3216-410a-9c2c-f4533573b3e3","resource":{"resourceType":"Observation","id":"cda0872c-3216-410a-9c2c-f4533573b3e3","status":"final","code":{"coding":[{"system":"http://loinc.org","code":"26464-8"}]},"subject":{"reference":"Patient/531cf662-549a-409e-aecf-62f92ac1f7de"},"effectiveDateTime":"2022-05-28T00:00:00+00:00","valueCodeableConcept":{"coding":[{"system":"snomed","code":"123456","display":"fake snomed"}]}},"request":{"method":"POST","url":"Observation"}},{"fullUrl":"Observation/298939aa-6307-40bf-ad08-bfdf74390885","resource":{"resourceType":"Observation","id":"298939aa-6307-40bf-ad08-bfdf74390885","status":"final","code":{"coding":[{"system":"http://loinc.org","code":"49498-9"}]},"subject":{"reference":"Patient/531cf662-549a-409e-aecf-62f92ac1f7de"},"effectiveDateTime":"2022-08-29T00:00:00+00:00"},"request":{"method":"POST","url":"Observation"}},{"fullUrl":"Observation/54c12ad3-0d13-4192-b3ea-bbc31a0cd3c9","resource":{"resourceType":"Observation","id":"54c12ad3-0d13-4192-b3ea-bbc31a0cd3c9","status":"final","code":{"coding":[{"system":"http://loinc.org","code":"49498-9"}]},"subject":{"reference":"Patient/531cf662-549a-409e-aecf-62f92ac1f7de"},"effectiveDateTime":"2022-06-02T00:00:00+00:00"},"request":{"method":"POST","url":"Observation"}},{"fullUrl":"Observation/438d46ec-ea0a-422c-b7dc-0db9b42a7ca8","resource":{"resourceType":"Observation","id":"438d46ec-ea0a-422c-b7dc-0db9b42a7ca8","status":"final","code":{"coding":[{"system":"http://loinc.org","code":"49498-9"}]},"subject":{"reference":"Patient/531cf662-549a-409e-aecf-62f92ac1f7de"},"effectiveDateTime":"2022-11-02T00:00:00+00:00"},"request":{"method":"POST","url":"Observation"}},{"fullUrl":"Procedure/5f46eacc-766c-46d9-a1cf-255dd5335c5f","resource":{"resourceType":"Procedure","id":"5f46eacc-766c-46d9-a1cf-255dd5335c5f","status":"completed","code":{"coding":[{"system":"http://snomed.info/sct","code":"104001"}]},"subject":{"reference":"Patient/531cf662-549a-409e-aecf-62f92ac1f7de"},"performedDateTime":"2022-04-21T00:00:00+00:00"},"request":{"method":"POST","url":"Procedure"}},{"fullUrl":"Procedure/e6c2f9e6-7150-4d60-9ea1-7ad9010eb314","resource":{"resourceType":"Procedure","id":"e6c2f9e6-7150-4d60-9ea1-7ad9010eb314","status":"completed","code":{"coding":[{"system":"http://snomed.info/sct","code":"115006"}]},"subject":{"reference":"Patient/531cf662-549a-409e-aecf-62f92ac1f7de"},"performedDateTime":"2022-02-09T00:00:00+00:00"},"request":{"method":"POST","url":"Procedure"}},{"fullUrl":"Procedure/bc8cb9c6-6b4b-46fc-acc1-b22129d233ac","resource":{"resourceType":"Procedure","id":"bc8cb9c6-6b4b-46fc-acc1-b22129d233ac","status":"completed","code":{"coding":[{"system":"http://snomed.info/sct","code":"104001"}]},"subject":{"reference":"Patient/531cf662-549a-409e-aecf-62f92ac1f7de"},"performedDateTime":"2022-06-19T00:00:00+00:00"},"request":{"method":"POST","url":"Procedure"}},{"fullUrl":"MedicationStatement/3194abee-7ebb-4ecc-bcbb-3002277adfd7","resource":{"resourceType":"MedicationStatement","id":"3194abee-7ebb-4ecc-bcbb-3002277adfd7","status":"completed","medicationCodeableConcept":{"coding":[{"system":"http://www.nlm.nih.gov/research/umls/rxnorm","code":"2193"}]},"subject":{"reference":"Patient/531cf662-549a-409e-aecf-62f92ac1f7de"},"effectiveDateTime":"2022-02-07T00:00:00+00:00","dosage":[{"doseAndRate":[{"doseQuantity":{"value":2,"unit":"TAB","system":"http://terminology.hl7.org/CodeSystem/v3-orderableDrugForm","code":"TAB"}}]}]},"request":{"method":"POST","url":"MedicationStatement"}},{"fullUrl":"MedicationStatement/3ec28eec-c2ea-4fe5-ae89-ee8daf33b2ba","resource":{"resourceType":"MedicationStatement","id":"3ec28eec-c2ea-4fe5-ae89-ee8daf33b2ba","status":"completed","medicationCodeableConcept":{"coding":[{"system":"http://www.nlm.nih.gov/research/umls/rxnorm","code":"2193"}]},"subject":{"reference":"Patient/531cf662-549a-409e-aecf-62f92ac1f7de"},"effectiveDateTime":"2022-09-10T00:00:00+00:00","dosage":[{"doseAndRate":[{"doseQuantity":{"value":2,"unit":"TAB","system":"http://terminology.hl7.org/CodeSystem/v3-orderableDrugForm","code":"TAB"}}]}]},"request":{"method":"POST","url":"MedicationStatement"}},{"fullUrl":"MedicationStatement/526024a2-dc6a-4de4-a3cb-2c6911eebe4f","resource":{"resourceType":"MedicationStatement","id":"526024a2-dc6a-4de4-a3cb-2c6911eebe4f","status":"completed","medicationCodeableConcept":{"coding":[{"system":"http://www.nlm.nih.gov/research/umls/rxnorm","code":"7980"}]},"subject":{"reference":"Patient/531cf662-549a-409e-aecf-62f92ac1f7de"},"effectiveDateTime":"2022-02-24T00:00:00+00:00","dosage":[{"doseAndRate":[{"doseQuantity":{"value":1,"unit":"TAB","system":"http://terminology.hl7.org/CodeSystem/v3-orderableDrugForm","code":"TAB"}}]}]},"request":{"method":"POST","url":"MedicationStatement"}},{"fullUrl":"MedicationStatement/0a9f9990-d62c-40c5-ad6d-faff0ae093d3","resource":{"resourceType":"MedicationStatement","id":"0a9f9990-d62c-40c5-ad6d-faff0ae093d3","status":"completed","medicationCodeableConcept":{"coding":[{"system":"http://www.nlm.nih.gov/research/umls/rxnorm","code":"18631"}]},"subject":{"reference":"Patient/531cf662-549a-409e-aecf-62f92ac1f7de"},"effectiveDateTime":"2022-01-13T00:00:00+00:00","dosage":[{"doseAndRate":[{"doseQuantity":{"value":1,"unit":"TAB","system":"http://terminology.hl7.org/CodeSystem/v3-orderableDrugForm","code":"TAB"}}]}]},"request":{"method":"POST","url":"MedicationStatement"}},{"fullUrl":"MedicationStatement/ff13ff87-69f8-4695-8621-73bf2149b570","resource":{"resourceType":"MedicationStatement","id":"ff13ff87-69f8-4695-8621-73bf2149b570","status":"completed","medicationCodeableConcept":{"coding":[{"system":"http://www.nlm.nih.gov/research/umls/rxnorm","code":"8698"}]},"subject":{"reference":"Patient/531cf662-549a-409e-aecf-62f92ac1f7de"},"effectiveDateTime":"2022-10-23T00:00:00+00:00","dosage":[{"doseAndRate":[{"doseQuantity":{"value":2,"unit":"TAB","system":"http://terminology.hl7.org/CodeSystem/v3-orderableDrugForm","code":"TAB"}}]}]},"request":{"method":"POST","url":"MedicationStatement"}},{"fullUrl":"MedicationStatement/418733c5-7fc6-49e7-a4e2-aa578f7a1bc7","resource":{"resourceType":"MedicationStatement","id":"418733c5-7fc6-49e7-a4e2-aa578f7a1bc7","status":"completed","medicationCodeableConcept":{"coding":[{"system":"http://www.nlm.nih.gov/research/umls/rxnorm","code":"8698"}]},"subject":{"reference":"Patient/531cf662-549a-409e-aecf-62f92ac1f7de"},"effectiveDateTime":"2022-02-16T00:00:00+00:00","dosage":[{"doseAndRate":[{"doseQuantity":{"value":3.1,"unit":"TAB","system":"http://terminology.hl7.org/CodeSystem/v3-orderableDrugForm","code":"TAB"}}]}]},"request":{"method":"POST","url":"MedicationStatement"}},{"fullUrl":"MedicationStatement/23c086e3-8371-4895-a9a5-4007219638ca","resource":{"resourceType":"MedicationStatement","id":"23c086e3-8371-4895-a9a5-4007219638ca","status":"completed","medicationCodeableConcept":{"coding":[{"system":"http://www.nlm.nih.gov/research/umls/rxnorm","code":"8698"}]},"subject":{"reference":"Patient/531cf662-549a-409e-aecf-62f92ac1f7de"},"effectiveDateTime":"2022-02-11T00:00:00+00:00","dosage":[{"doseAndRate":[{"doseQuantity":{"value":6.2,"unit":"TAB","system":"http://terminology.hl7.org/CodeSystem/v3-orderableDrugForm","code":"TAB"}}]}]},"request":{"method":"POST","url":"MedicationStatement"}},{"fullUrl":"Encounter/d4be8f05-fa90-440c-862c-7ecf311b4e32","resource":{"resourceType":"Encounter","id":"d4be8f05-fa90-440c-862c-7ecf311b4e32","status":"finished","class":{"system":"http://terminology.hl7.org/CodeSystem/v3-ActCode","code":"IMP","display":"inpatient encounter"},"type":[{"coding":[{"system":"http://terminology.hl7.org/CodeSystem/encounter-type","code":"ADMS"}]}],"subject":{"reference":"Patient/531cf662-549a-409e-aecf-62f92ac1f7de"},"period":{"start":"2022-02-22T00:00:00+00:00","end":"2022-02-24T00:00:00+00:00"}},"request":{"method":"POST","url":"Encounter"}},{"fullUrl":"Encounter/c3659ef3-2418-4ec7-8bb5-98588fb1ec35","resource":{"resourceType":"Encounter","id":"c3659ef3-2418-4ec7-8bb5-98588fb1ec35","status":"finished","class":{"system":"http://terminology.hl7.org/CodeSystem/v3-ActCode","code":"IMP","display":"inpatient encounter"},"type":[{"coding":[{"system":"http://terminology.hl7.org/CodeSystem/encounter-type","code":"OKI"}]}],"subject":{"reference":"Patient/531cf662-549a-409e-aecf-62f92ac1f7de"},"period":{"start":"2022-12-20T00:00:00+00:00","end":"2022-12-28T00:00:00+00:00"}},"request":{"method":"POST","url":"Encounter"}},{"fullUrl":"Encounter/9236e3b6-8bce-47b4-9233-72a005028903","resource":{"resourceType":"Encounter","id":"9236e3b6-8bce-47b4-9233-72a005028903","status":"finished","class":{"system":"http://terminology.hl7.org/CodeSystem/v3-ActCode","code":"IMP","display":"inpatient encounter"},"type":[{"coding":[{"system":"http://terminology.hl7.org/CodeSystem/encounter-type","code":"OKI"}]}],"subject":{"reference":"Patient/531cf662-549a-409e-aecf-62f92ac1f7de"},"period":{"start":"2022-02-09T00:00:00+00:00","end":"2022-02-18T00:00:00+00:00"}},"request":{"method":"POST","url":"Encounter"}},{"fullUrl":"Encounter/2f4d91d2-1f36-4ce8-9005-006c09384a62","resource":{"resourceType":"Encounter","id":"2f4d91d2-1f36-4ce8-9005-006c09384a62","status":"finished","class":{"system":"http://terminology.hl7.org/CodeSystem/v3-ActCode","code":"VR","display":"virtual"},"type":[{"coding":[{"system":"http://terminology.hl7.org/CodeSystem/encounter-type","code":"CCS60"}]}],"subject":{"reference":"Patient/531cf662-549a-409e-aecf-62f92ac1f7de"},"period":{"start":"2022-04-08T00:00:00+00:00","end":"2022-04-13T00:00:00+00:00"}},"request":{"method":"POST","url":"Encounter"}},{"fullUrl":"Location/8ff3ef35-64ef-448c-95aa-0c3683094655","resource":{"resourceType":"Location","id":"8ff3ef35-64ef-448c-95aa-0c3683094655","status":"active","name":"Valencia, Schmidt and Hamilton","telecom":[{"system":"phone","value":"0446208587","use":"work"}],"address":{"use":"work","line":["96653 Jose Islands"],"city":"New Matthewton","state":"SD","postalCode":"72416"}},"request":{"method":"POST","url":"Location"}},{"fullUrl":"Observation/a59a3307-c3d3-404c-babb-dd3ef7f76f46","resource":{"resourceType":"Observation","id":"a59a3307-c3d3-404c-babb-dd3ef7f76f46","status":"final","code":{"coding":[{"system":"http://loinc.org","code":"81956-5"}]},"subject":{"reference":"Patient/531cf662-549a-409e-aecf-62f92ac1f7de"},"effectiveDateTime":"2022-08-18T00:00:00+00:00","valueDateTime":"2022-08-07T00:00:00+00:00"},"request":{"method":"POST","url":"Observation"}},{"fullUrl":"Patient/4cae3e84-951a-41ee-836c-3b4910a76a42","resource":{"resourceType":"Patient","id":"4cae3e84-951a-41ee-836c-3b4910a76a42","identifier":[{"type":{"coding":[{"system":"http://terminology.hl7.org/CodeSystem/v2-0203","code":"MR"}]},"system":"urn:fhirgen:mrn","value":"567-35-7391"}],"name":[{"use":"official","family":"Johnson","given":["Michael"]},{"use":"maiden","family":"Wilkins"}],"telecom":[{"system":"phone","value":"846.646.4996x462","use":"work"},{"system":"email","value":"tyler51@gmail.com","use":"mobile"}],"gender":"other","birthDate":"1988-03-25","address":[{"use":"home","line":["6349 Jeffrey Burg Suite 066"],"city":"West Geraldland","state":"NV","postalCode":"85044"},{"use":"old","line":["8974 Michael Loop Suite 379"],"city":"Jeremyfort","state":"CA","postalCode":"00864"}]},"request":{"method":"POST","url":"Patient"}},{"fullUrl":"Observation/63cafbf2-3017-4b79-9713-fce1a9d3e36a","resource":{"resourceType":"Observation","id":"63cafbf2-3017-4b79-9713-fce1a9d3e36a","status":"final","code":{"coding":[{"system":"http://loinc.org","code":"46203-6"}]},"subject":{"reference":"Patient/4cae3e84-951a-41ee-836c-3b4910a76a42"},"effectiveDateTime":"2022-05-13T00:00:00+00:00","valueRatio":{"numerator":{"value":1},"denominator":{"value":4}}},"request":{"method":"POST","url":"Observation"}},{"fullUrl":"Observation/73a18a91-867b-4c4e-b5cb-cca1c389a5fe","resource":{"resourceType":"Observation","id":"73a18a91-867b-4c4e-b5cb-cca1c389a5fe","status":"final","code":{"coding":[{"system":"http://loinc.org","code":"87925-4"}]},"subject":{"reference":"Patient/4cae3e84-951a-41ee-836c-3b4910a76a42"},"effectiveDateTime":"2022-10-13T00:00:00+00:00","valueRatio":{"numerator":{"value":1},"denominator":{"value":32}}},"request":{"method":"POST","url":"Observation"}},{"fullUrl":"Observation/b2c2d149-dad3-4d07-b3cf-6386b9331801","resource":{"resourceType":"Observation","id":"b2c2d149-dad3-4d07-b3cf-6386b9331801","status":"final","code":{"coding":[{"system":"http://loinc.org","code":"26009-1"}]},"subject":{"reference":"Patient/4cae3e84-951a-41ee-836c-3b4910a76a42"},"effectiveDateTime":"2022-06-21T00:00:00+00:00","valueRatio":{"numerator":{"value":1},"denominator":{"value":32}}},"request":{"method":"POST","url":"Observation"}},{"fullUrl":"Condition/60ce4dbf-195b-484c-a896-2df0fece4b89","resource":{"resourceType":"Condition","id":"60ce4dbf-195b-484c-a896-2df0fece4b89","code":{"coding":[{"system":"http://snomed.info/sct","code":"271939006"}]},"subject":{"reference":"Patient/4cae3e84-951a-41ee-836c-3b4910a76a42"},"onsetDateTime":"2022-12-12T00:00:00+00:00"},"request":{"method":"POST","url":"Condition"}},{"fullUrl":"Condition/726bd4ef-57ef-4a83-8a08-2c8371567c85","resource":{"resourceType":"Condition","id":"726bd4ef-57ef-4a83-8a08-2c8371567c85","code":{"coding":[{"system":"http://snomed.info/sct","code":"297123002"}]},"subject":{"reference":"Patient/4cae3e84-951a-41ee-836c-3b4910a76a42"},"onsetDateTime":"2022-05-18T00:00:00+00:00"},"request":{"method":"POST","url":"Condition"}},{"fullUrl":"Condition/674b2de3-01bc-4d52-9511-b415615582e0","resource":{"resourceType":"Condition","id":"674b2de3-01bc-4d52-9511-b415615582e0","code":{"coding":[{"system":"http://snomed.info/sct","code":"271807003"}]},"subject":{"reference":"Patient/4cae3e84-951a-41ee-836c-3b4910a76a42"},"onsetDateTime":"2022-03-05T00:00:00+00:00"},"request":{"method":"POST","url":"Condition"}},{"fullUrl":"Observation/cad29fee-7c36-4115-b1d6-bd9d45377d78","resource":{"resourceType":"Observation","id":"cad29fee-7c36-4115-b1d6-bd9d45377d78","status":"final","code":{"coding":[{"system":"http://loinc.org","code":"6690-2"}]},"subject":{"reference":"Patient/4cae3e84-951a-41ee-836c-3b4910a76a42"},"effectiveDateTime":"2022-07-31T00:00:00+00:00","valueQuantity":{"value":5.5}},"request":{"method":"POST","url":"Observation"}},{"fullUrl":"Observation/db545199-a3d8-4659-a462-4cd5b1f79ccb","resource":{"resourceType":"Observation","id":"db545199-a3d8-4659-a462-4cd5b1f79ccb","status":"final","code":{"coding":[{"system":"http://loinc.org","code":"49498-9"}]},"subject":{"reference":"Patient/4cae3e84-951a-41ee-836c-3b4910a76a42"},"effectiveDateTime":"2022-03-28T00:00:00+00:00","valueQuantity":{"value":6.3}},"request":{"method":"POST","url":"Observation"}},{"fullUrl":"Observation/924e7962-510e-4ce1-9e84-ea2922c10a77","resource":{"resourceType":"Observation","id":"924e7962-510e-4ce1-9e84-ea2922c10a77","status":"final","code":{"coding":[{"system":"http://loinc.org","code":"6690-2"}]},"subject":{"reference":"Patient/4cae3e84-951a-41ee-836c-3b4910a76a42"},"effectiveDateTime":"2022-07-04T00:00:00+00:00","valueQuantity":{"value":7.8}},"request":{"method":"POST","url":"Observation"}},{"fullUrl":"Observation/e7a7548e-62b7-4d9b-8c87-4ab7058a9872","resource":{"resourceType":"Observation","id":"e7a7548e-62b7-4d9b-8c87-4ab7058a9872","status":"final","code":{"coding":[{"system":"http://loinc.org","code":"804-5"}]},"subject":{"reference":"Patient/4cae3e84-951a-41ee-836c-3b4910a76a42"},"effectiveDateTime":"2022-09-20T00:00:00+00:00","valueCodeableConcept":{"coding":[{"system":"snomed","code":"123456","display":"fake snomed"}]}},"request":{"method":"POST","url":"Observation"}},{"fullUrl":"Observation/0ba8b496-e4e1-43cf-88fa-80814c147310","resource":{"resourceType":"Observation","id":"0ba8b496-e4e1-43cf-88fa-80814c147310","status":"final","code":{"coding":[{"system":"http://loinc.org","code":"804-5"}]},"subject":{"reference":"Patient/4cae3e84-951a-41ee-836c-3b4910a76a42"},"effectiveDateTime":"2022-02-23T00:00:00+00:00","valueCodeableConcept":{"coding":[{"system":"snomed","code":"123456","display":"fake snomed"}]}},"request":{"method":"POST","url":"Observation"}},{"fullUrl":"Observation/ab227711-646e-4752-9464-4174c7bee37a","resource":{"resourceType":"Observation","id":"ab227711-646e-4752-9464-4174c7bee37a","status":"final","code":{"coding":[{"system":"http://loinc.org","code":"49498-9"}]},"subject":{"reference":"Patient/4cae3e84-951a-41ee-836c-3b4910a76a42"},"effectiveDateTime":"2022-08-25T00:00:00+00:00"},"request":{"method":"POST","url":"Observation"}},{"fullUrl":"Observation/984e6f45-bbdb-4a96-9cda-98bc2c620353","resource":{"resourceType":"Observation","id":"984e6f45-bbdb-4a96-9cda-98bc2c620353","status":"final","code":{"coding":[{"system":"http://loinc.org","code":"49498-9"}]},"subject":{"reference":"Patient/4cae3e84-951a-41ee-836c-3b4910a76a42"},"effectiveDateTime":"2022-05-05T00:00:00+00:00"},"request":{"method":"POST","url":"Observation"}},{"fullUrl":"Procedure/e239d37c-da4a-4040-be16-46b08502cf71","resource":{"resourceType":"Procedure","id":"e239d37c-da4a-4040-be16-46b08502cf71","status":"completed","code":{"coding":[{"system":"http://snomed.info/sct","code":"104001"}]},"subject":{"reference":"Patient/4cae3e84-951a-41ee-836c-3b4910a76a42"},"performedDateTime":"2022-03-19T00:00:00+00:00"},"request":{"method":"POST","url":"Procedure"}},{"fullUrl":"Procedure/92703491-e041-4554-969e-39fa025efc54","resource":{"resourceType":"Procedure","id":"92703491-e041-4554-969e-39fa025efc54","status":"completed","code":{"coding":[{"system":"http://snomed.info/sct","code":"115006"}]},"subject":{"reference":"Patient/4cae3e84-951a-41ee-836c-3b4910a76a42"},"performedDateTime":"2022-04-30T00:00:00+00:00"},"request":{"method":"POST","url":"Procedure"}},{"fullUrl":"Procedure/0e2bc144-66b1-4c31-9809-d3b826b62726","resource":{"resourceType":"Procedure","id":"0e2bc144-66b1-4c31-9809-d3b826b62726","status":"completed","code":{"coding":[{"system":"http://snomed.info/sct","code":"115006"}]},"subject":{"reference":"Patient/4cae3e84-951a-41ee-836c-3b4910a76a42"},"performedDateTime":"2022-09-15T00:00:00+00:00"},"request":{"method":"POST","url":"Procedure"}},{"fullUrl":"MedicationStatement/6fdc59e3-82b9-40ed-90fa-de5a3dab8258","resource":{"resourceType":"MedicationStatement","id":"6fdc59e3-82b9-40ed-90fa-de5a3dab8258","status":"completed","medicationCodeableConcept":{"coding":[{"system":"http://www.nlm.nih.gov/research/umls/rxnorm","code":"2193"}]},"subject":{"reference":"Patient/4cae3e84-951a-41ee-836c-3b4910a76a42"},"effectiveDateTime":"2022-09-13T00:00:00+00:00","dosage":[{"doseAndRate":[{"doseQuantity":{"value":1,"unit":"TAB","system":"http://terminology.hl7.org/CodeSystem/v3-orderableDrugForm","code":"TAB"}}]}]},"request":{"method":"POST","url":"MedicationStatement"}},{"fullUrl":"MedicationStatement/0a959af0-cd46-4014-b7a4-d2bd0a687bbd","resource":{"resourceType":"MedicationStatement","id":"0a959af0-cd46-4014-b7a4-d2bd0a687bbd","status":"completed","medicationCodeableConcept":{"coding":[{"system":"http://www.nlm.nih.gov/research/umls/rxnorm","code":"7984"}]},"subject":{"reference":"Patient/4cae3e84-951a-41ee-836c-3b4910a76a42"},"effectiveDateTime":"2022-09-30T00:00:00+00:00","dosage":[{"doseAndRate":[{"doseQuantity":{"value":1,"unit":"TAB","system":"http://terminology.hl7.org/CodeSystem/v3-orderableDrugForm","code":"TAB"}}]}]},"request":{"method":"POST","url":"MedicationStatement"}},{"fullUrl":"MedicationStatement/5dd6fff4-1bd2-436b-a52c-06b792c27fc3","resource":{"resourceType":"MedicationStatement","id":"5dd6fff4-1bd2-436b-a52c-06b792c27fc3","status":"completed","medicationCodeableConcept":{"coding":[{"system":"http://www.nlm.nih.gov/research/umls/rxnorm","code":"7980"}]},"subject":{"reference":"Patient/4cae3e84-951a-41ee-836c-3b4910a76a42"},"effectiveDateTime":"2022-07-09T00:00:00+00:00","dosage":[{"doseAndRate":[{"doseQuantity":{"value":2,"unit":"TAB","system":"http://terminology.hl7.org/CodeSystem/v3-orderableDrugForm","code":"TAB"}}]}]},"request":{"method":"POST","url":"MedicationStatement"}},{"fullUrl":"MedicationStatement/00250dfa-d3cc-487c-b9c1-8d9d03d5e4b8","resource":{"resourceType":"MedicationStatement","id":"00250dfa-d3cc-487c-b9c1-8d9d03d5e4b8","status":"completed","medicationCodeableConcept":{"coding":[{"system":"http://www.nlm.nih.gov/research/umls/rxnorm","code":"18631"}]},"subject":{"reference":"Patient/4cae3e84-951a-41ee-836c-3b4910a76a42"},"effectiveDateTime":"2022-01-19T00:00:00+00:00","dosage":[{"doseAndRate":[{"doseQuantity":{"value":2,"unit":"TAB","system":"http://terminology.hl7.org/CodeSystem/v3-orderableDrugForm","code":"TAB"}}]}]},"request":{"method":"POST","url":"MedicationStatement"}},{"fullUrl":"MedicationStatement/11f80451-7d04-40c2-92ea-d92b3035fad3","resource":{"resourceType":"MedicationStatement","id":"11f80451-7d04-40c2-92ea-d92b3035fad3","status":"completed","medicationCodeableConcept":{"coding":[{"system":"http://www.nlm.nih.gov/research/umls/rxnorm","code":"8698"}]},"subject":{"reference":"Patient/4cae3e84-951a-41ee-836c-3b4910a76a42"},"effectiveDateTime":"2022-01-15T00:00:00+00:00","dosage":[{"doseAndRate":[{"doseQuantity":{"value":2,"unit":"TAB","system":"http://terminology.hl7.org/CodeSystem/v3-orderableDrugForm","code":"TAB"}}]}]},"request":{"method":"POST","url":"MedicationStatement"}},{"fullUrl":"MedicationStatement/640e69c6-fef2-450d-a105-4f982a35d746","resource":{"resourceType":"MedicationStatement","id":"640e69c6-fef2-450d-a105-4f982a35d746","status":"completed","medicationCodeableConcept":{"coding":[{"system":"http://www.nlm.nih.gov/research/umls/rxnorm","code":"3640"}]},"subject":{"reference":"Patient/4cae3e84-951a-41ee-836c-3b4910a76a42"},"effectiveDateTime":"2022-05-17T00:00:00+00:00","dosage":[{"doseAndRate":[{"doseQuantity":{"value":1,"unit":"TAB","system":"http://terminology.hl7.org/CodeSystem/v3-orderableDrugForm","code":"TAB"}}]}]},"request":{"method":"POST","url":"MedicationStatement"}},{"fullUrl":"MedicationStatement/43fbda43-f1f1-48a3-a147-9d0a59328338","resource":{"resourceType":"MedicationStatement","id":"43fbda43-f1f1-48a3-a147-9d0a59328338","status":"completed","medicationCodeableConcept":{"coding":[{"system":"http://www.nlm.nih.gov/research/umls/rxnorm","code":"10395"}]},"subject":{"reference":"Patient/4cae3e84-951a-41ee-836c-3b4910a76a42"},"effectiveDateTime":"2022-02-06T00:00:00+00:00","dosage":[{"doseAndRate":[{"doseQuantity":{"value":3.1,"unit":"TAB","system":"http://terminology.hl7.org/CodeSystem/v3-orderableDrugForm","code":"TAB"}}]}]},"request":{"method":"POST","url":"MedicationStatement"}},{"fullUrl":"MedicationStatement/f457358a-fd16-4981-8f13-64000c91ab13","resource":{"resourceType":"MedicationStatement","id":"f457358a-fd16-4981-8f13-64000c91ab13","status":"completed","medicationCodeableConcept":{"coding":[{"system":"http://www.nlm.nih.gov/research/umls/rxnorm","code":"7980"}]},"subject":{"reference":"Patient/4cae3e84-951a-41ee-836c-3b4910a76a42"},"effectiveDateTime":"2022-11-13T00:00:00+00:00","dosage":[{"doseAndRate":[{"doseQuantity":{"value":5.5,"unit":"TAB","system":"http://terminology.hl7.org/CodeSystem/v3-orderableDrugForm","code":"TAB"}}]}]},"request":{"method":"POST","url":"MedicationStatement"}},{"fullUrl":"MedicationStatement/b41d6550-ce1d-4090-9703-12726126349e","resource":{"resourceType":"MedicationStatement","id":"b41d6550-ce1d-4090-9703-12726126349e","status":"completed","medicationCodeableConcept":{"coding":[{"system":"http://www.nlm.nih.gov/research/umls/rxnorm","code":"8698"}]},"subject":{"reference":"Patient/4cae3e84-951a-41ee-836c-3b4910a76a42"},"effectiveDateTime":"2022-08-20T00:00:00+00:00","dosage":[{"doseAndRate":[{"doseQuantity":{"value":6.3,"unit":"TAB","system":"http://terminology.hl7.org/CodeSystem/v3-orderableDrugForm","code":"TAB"}}]}]},"request":{"method":"POST","url":"MedicationStatement"}},{"fullUrl":"MedicationStatement/c1c47224-e0d4-4ff6-af32-77f770093772","resource":{"resourceType":"MedicationStatement","id":"c1c47224-e0d4-4ff6-af32-77f770093772","status":"completed","medicationCodeableConcept":{"coding":[{"system":"http://www.nlm.nih.gov/research/umls/rxnorm","code":"3640"}]},"subject":{"reference":"Patient/4cae3e84-951a-41ee-836c-3b4910a76a42"},"effectiveDateTime":"2022-02-10T00:00:00+00:00","dosage":[{"doseAndRate":[{"doseQuantity":{"value":3.7,"unit":"TAB","system":"http://terminology.hl7.org/CodeSystem/v3-orderableDrugForm","code":"TAB"}}]}]},"request":{"method":"POST","url":"MedicationStatement"}},{"fullUrl":"MedicationStatement/98ac875e-7179-4887-8395-2345898aa399","resource":{"resourceType":"MedicationStatement","id":"98ac875e-7179-4887-8395-2345898aa399","status":"completed","medicationCodeableConcept":{"coding":[{"system":"http://www.nlm.nih.gov/research/umls/rxnorm","code":"7980"}]},"subject":{"reference":"Patient/4cae3e84-951a-41ee-836c-3b4910a76a42"},"effectiveDateTime":"2022-01-09T00:00:00+00:00","dosage":[{"doseAndRate":[{"doseQuantity":{"value":3.2,"unit":"TAB","system":"http://terminology.hl7.org/CodeSystem/v3-orderableDrugForm","code":"TAB"}}]}]},"request":{"method":"POST","url":"MedicationStatement"}},{"fullUrl":"MedicationStatement/b412fbfe-4176-4d95-89fb-9c43d00560ad","resource":{"resourceType":"MedicationStatement","id":"b412fbfe-4176-4d95-89fb-9c43d00560ad","status":"completed","medicationCodeableConcept":{"coding":[{"system":"http://www.nlm.nih.gov/research/umls/rxnorm","code":"3640"}]},"subject":{"reference":"Patient/4cae3e84-951a-41ee-836c-3b4910a76a42"},"effectiveDateTime":"2022-05-06T00:00:00+00:00","dosage":[{"doseAndRate":[{"doseQuantity":{"value":4.7,"unit":"TAB","system":"http://terminology.hl7.org/CodeSystem/v3-orderableDrugForm","code":"TAB"}}]}]},"request":{"method":"POST","url":"MedicationStatement"}},{"fullUrl":"MedicationStatement/3041c320-806a-4bac-b9e0-496a7603d432","resource":{"resourceType":"MedicationStatement","id":"3041c320-806a-4bac-b9e0-496a7603d432","status":"completed","medicationCodeableConcept":{"coding":[{"system":"http://www.nlm.nih.gov/research/umls/rxnorm","code":"7980"}]},"subject":{"reference":"Patient/4cae3e84-951a-41ee-836c-3b4910a76a42"},"effectiveDateTime":"2022-09-30T00:00:00+00:00","dosage":[{"doseAndRate":[{"doseQuantity":{"value":5.5,"unit":"TAB","system":"http://terminology.hl7.org/CodeSystem/v3-orderableDrugForm","code":"TAB"}}]}]},"request":{"method":"POST","url":"MedicationStatement"}},{"fullUrl":"MedicationStatement/c3f3fe68-b389-4305-8262-a83ddcd2fbec","resource":{"resourceType":"MedicationStatement","id":"c3f3fe68-b389-4305-8262-a83ddcd2fbec","status":"completed","medicationCodeableConcept":{"coding":[{"system":"http://www.nlm.nih.gov/research/umls/rxnorm","code":"10395"}]},"subject":{"reference":"Patient/4cae3e84-951a-41ee-836c-3b4910a76a42"},"effectiveDateTime":"2022-07-08T00:00:00+00:00","dosage":[{"doseAndRate":[{"doseQuantity":{"value":5.8,"unit":"TAB","system":"http://terminology.hl7.org/CodeSystem/v3-orderableDrugForm","code":"TAB"}}]}]},"request":{"method":"POST","url":"MedicationStatement"}},{"fullUrl":"Encounter/f6568064-31f9-42f5-880f-c997f5056807","resource":{"resourceType":"Encounter","id":"f6568064-31f9-42f5-880f-c997f5056807","status":"finished","class":{"system":"http://terminology.hl7.org/CodeSystem/v3-ActCode","code":"IMP","display":"inpatient encounter"},"type":[{"coding":[{"system":"http://terminology.hl7.org/CodeSystem/encounter-type","code":"ADMS"}]}],"subject":{"reference":"Patient/4cae3e84-951a-41ee-836c-3b4910a76a42"},"period":{"start":"2022-07-01T00:00:00+00:00","end":"2022-07-06T00:00:00+00:00"}},"request":{"method":"POST","url":"Encounter"}},{"fullUrl":"Encounter/5e0a7cac-8179-4108-9a8f-ea8a0a40c1c4","resource":{"resourceType":"Encounter","id":"5e0a7cac-8179-4108-9a8f-ea8a0a40c1c4","status":"finished","class":{"system":"http://terminology.hl7.org/CodeSystem/v3-ActCode","code":"IMP","display":"inpatient encounter"},"type":[{"coding":[{"system":"http://terminology.hl7.org/CodeSystem/encounter-type","code":"BD/BM-clin"}]}],"subject":{"reference":"Patient/4cae3e84-951a-41ee-836c-3b4910a76a42"},"period":{"start":"2022-05-06T00:00:00+00:00","end":"2022-05-14T00:00:00+00:00"}},"request":{"method":"POST","url":"Encounter"}},{"fullUrl":"Encounter/19b443d9-f54d-44aa-9e4d-30a21e21ee2b","resource":{"resourceType":"Encounter","id":"19b443d9-f54d-44aa-9e4d-30a21e21ee2b","status":"finished","class":{"system":"http://terminology.hl7.org/CodeSystem/v3-ActCode","code":"IMP","display":"inpatient encounter"},"type":[{"coding":[{"system":"http://terminology.hl7.org/CodeSystem/encounter-type","code":"CCS60"}]}],"subject":{"reference":"Patient/4cae3e84-951a-41ee-836c-3b4910a76a42"},"period":{"start":"2022-09-08T00:00:00+00:00","end":"2022-09-08T00:00:00+00:00"}},"request":{"method":"POST","url":"Encounter"}},{"fullUrl":"Encounter/a27dc6ed-5c41-4d85-95ff-758f8cc2ec08","resource":{"resourceType":"Encounter","id":"a27dc6ed-5c41-4d85-95ff-758f8cc2ec08","status":"finished","class":{"system":"http://terminology.hl7.org/CodeSystem/v3-ActCode","code":"NONAC","display":"inpatient non-acute"},"type":[{"coding":[{"system":"http://terminology.hl7.org/CodeSystem/encounter-type","code":"ADMS"}]}],"subject":{"reference":"Patient/4cae3e84-951a-41ee-836c-3b4910a76a42"},"period":{"start":"2022-01-21T00:00:00+00:00","end":"2022-01-23T00:00:00+00:00"}},"request":{"method":"POST","url":"Encounter"}},{"fullUrl":"Encounter/04dd3932-42ee-404a-a0bf-5a5c31f2bfbf","resource":{"resourceType":"Encounter","id":"04dd3932-42ee-404a-a0bf-5a5c31f2bfbf","status":"finished","class":{"system":"http://terminology.hl7.org/CodeSystem/v3-ActCode","code":"NONAC","display":"inpatient non-acute"},"type":[{"coding":[{"system":"http://terminology.hl7.org/CodeSystem/encounter-type","code":"ADMS"}]}],"subject":{"reference":"Patient/4cae3e84-951a-41ee-836c-3b4910a76a42"},"period":{"start":"2022-09-28T00:00:00+00:00","end":"2022-09-28T00:00:00+00:00"}},"request":{"method":"POST","url":"Encounter"}},{"fullUrl":"Encounter/274b5a2f-6a60-4fd4-b02c-cf96145e6e2f","resource":{"resourceType":"Encounter","id":"274b5a2f-6a60-4fd4-b02c-cf96145e6e2f","status":"finished","class":{"system":"http://terminology.hl7.org/CodeSystem/v3-ActCode","code":"AMB","display":"ambulatory"},"type":[{"coding":[{"system":"http://terminology.hl7.org/CodeSystem/encounter-type","code":"OKI"}]}],"subject":{"reference":"Patient/4cae3e84-951a-41ee-836c-3b4910a76a42"},"period":{"start":"2022-03-10T00:00:00+00:00","end":"2022-03-16T00:00:00+00:00"}},"request":{"method":"POST","url":"Encounter"}},{"fullUrl":"Location/b7d17a7d-c736-40ee-a89d-46fc0e4f6fba","resource":{"resourceType":"Location","id":"b7d17a7d-c736-40ee-a89d-46fc0e4f6fba","status":"active","name":"Reynolds and Sons","telecom":[{"system":"phone","value":"024.692.7587","use":"home"}],"address":{"use":"work","line":["73426 Robin Coves"],"city":"Timothyborough","state":"DC","postalCode":"70240"}},"request":{"method":"POST","url":"Location"}},{"fullUrl":"Observation/a5acbd09-1076-4ab1-b66d-107f329eb87a","resource":{"resourceType":"Observation","id":"a5acbd09-1076-4ab1-b66d-107f329eb87a","status":"final","code":{"coding":[{"system":"http://loinc.org","code":"81956-5"}]},"subject":{"reference":"Patient/4cae3e84-951a-41ee-836c-3b4910a76a42"},"effectiveDateTime":"2022-06-30T00:00:00+00:00","valueDateTime":"2022-04-24T00:00:00+00:00"},"request":{"method":"POST","url":"Observation"}}]}