{"resourceType":"Bundle","id":"15cfb46f-bb4a-48db-ae85-47838beb6406","type":"transaction","entry":[{"fullUrl":"Patient/fdd93789-6ce3-4c7b-b812-4d2b65b6e975","resource":{"resourceType":"Patient","id":"fdd93789-6ce3-4c7b-b812-4d2b65b6e975","identifier":[{"type":{"coding":[{"system":"http://terminology.hl7.org/CodeSystem/v2-0203","code":"MR"}]},"system":"urn:fhirgen:mrn","value":"554-92-5030"}],"name":[{"use":"official","family":"Smith","given":["Robert"]},{"use":"maiden","family":"Alvarez"}],"telecom":[{"system":"phone","value":"(349)042-5504x4413","use":"work"},{"system":"email","value":"cooperashley@hotmail.com","use":"work"}],"gender":"male","birthDate":"1958-03-07","address":[{"use":"home","line":["903 Jessica Valley"],"city":"North Nicolestad","state":"NM","postalCode":"48723"},{"use":"old","line":["803 David Run"],"city":"Hollandfort","state":"MS","postalCode":"99773"}]},"request":{"method":"POST","url":"Patient"}},{"fullUrl":"Observation/9cac0539-03da-46ee-80d0-f34852c44e17","resource":{"resourceType":"Observation","id":"9cac0539-03da-46ee-80d0-f34852c44e17","status":"final","code":{"coding":[{"system":"http://loinc.org","code":"46203-6"}]},"subject":{"reference":"Patient/fdd93789-6ce3-4c7b-b812-4d2b65b6e975"},"effectiveDateTime":"2022-08-22T00:00:00+00:00","valueRatio":{"numerator":{"value":1},"denominator":{"value":4}}},"request":{"method":"POST","url":"Observation"}},{"fullUrl":"Observation/39851897-dd24-432c-a1f9-c97ebfaf19d8","resource":{"resourceType":"Observation","id":"39851897-dd24-432c-a1f9-c97ebfaf19d8","status":"final","code":{"coding":[{"system":"http://loinc.org","code":"46203-6"}]},"subject":{"reference":"Patient/fdd93789-6ce3-4c7b-b812-4d2b65b6e975"},"effectiveDateTime":"2022-01-23T00:00:00+00:00","valueRatio":{"numerator":{"value":1},"denominator":{"value":32}}},"request":{"method":"POST","url":"Observation"}},{"fullUrl":"Condition/d0807cef-3485-4326-a358-cd203227a6e5","resource":{"resourceType":"Condition","id":"d0807cef-3485-4326-a358-cd203227a6e5","code":{"coding":[{"system":"http://snomed.info/sct","code":"3951002"}]},"subject":{"reference":"Patient/fdd93789-6ce3-4c7b-b812-4d2b65b6e975"},"onsetDateTime":"2022-02-13T00:00:00+00:00"},"request":{"method":"POST","url":"Condition"}},{"fullUrl":"Condition/5df81c42-260c-4896-b9b6-8f7c59b985c0","resource":{"resourceType":"Condition","id":"5df81c42-260c-4896-b9b6-8f7c59b985c0","code":{"coding":[{"system":"http://snomed.info/sct","code":"30746006"}]},"subject":{"reference":"Patient/fdd93789-6ce3-4c7b-b812-4d2b65b6e975"},"onsetDateTime":"2022-12-29T00:00:00+00:00"},"request":{"method":"POST","url":"Condition"}},{"fullUrl":"Condition/4f628ab0-b618-4be4-82e5-426ba0dbdb2e","resource":{"resourceType":"Condition","id":"4f628ab0-b618-4be4-82e5-426ba0dbdb2e","code":{"coding":[{"system":"http://snomed.info/sct","code":"3951002"}]},"subject":{"reference":"Patient/fdd93789-6ce3-4c7b-b812-4d2b65b6e975"},"onsetDateTime":"2022-07-01T00:00:00+00:00"},"request":{"method":"POST","url":"Condition"}},{"fullUrl":"Condition/dae380b3-f771-410f-8ed3-669d55fd6e10","resource":{"resourceType":"Condition","id":"dae380b3-f771-410f-8ed3-669d55fd6e10","code":{"coding":[{"system":"http://snomed.info/sct","code":"248980004"}]},"subject":{"reference":"Patient/fdd93789-6ce3-4c7b-b812-4d2b65b6e975"},"onsetDateTime":"2022-07-15T00:00:00+00:00"},"request":{"method":"POST","url":"Condition"}},{"fullUrl":"Condition/741bbe1e-3a0f-4307-8804-c7b7c1a78687","resource":{"resourceType":"Condition","id":"741bbe1e-3a0f-4307-8804-c7b7c1a78687","code":{"coding":[{"system":"http://snomed.info/sct","code":"198199009"}]},"subject":{"reference":"Patient/fdd93789-6ce3-4c7b-b812-4d2b65b6e975"},"onsetDateTime":"2022-09-17T00:00:00+00:00"},"request":{"method":"POST","url":"Condition"}},{"fullUrl":"Condition/2229cd57-434d-4711-a2ae-4c3e4d0da887","resource":{"resourceType":"Condition","id":"2229cd57-434d-4711-a2ae-4c3e4d0da887","code":{"coding":[{"system":"http://snomed.info/sct","code":"71315007"}]},"subject":{"reference":"Patient/fdd93789-6ce3-4c7b-b812-4d2b65b6e975"},"onsetDateTime":"2022-07-13T00:00:00+00:00"},"request":{"method":"POST","url":"Condition"}},{"fullUrl":"Observation/0f8ddbc0-d516-465b-9aac-2cdb4267ebb5","resource":{"resourceType":"Observation","id":"0f8ddbc0-d516-465b-9aac-2cdb4267ebb5","status":"final","code":{"coding":[{"system":"http://loinc.org","code":"49498-9"}]},"subject":{"reference":"Patient/fdd93789-6ce3-4c7b-b812-4d2b65b6e975"},"effectiveDateTime":"2022-10-30T00:00:00+00:00","valueQuantity":{"value":5.1}},"request":{"method":"POST","url":"Observation"}},{"fullUrl":"Observation/f1409ae0-9b84-470e-9e75-5fcb0b8e2d92","resource":{"resourceType":"Observation","id":"f1409ae0-9b84-470e-9e75-5fcb0b8e2d92","status":"final","code":{"coding":[{"system":"http://loinc.org","code":"6690-2"}]},"subject":{"reference":"Patient/fdd93789-6ce3-4c7b-b812-4d2b65b6e975"},"effectiveDateTime":"2022-04-18T00:00:00+00:00","valueQuantity":{"value":4.8}},"request":{"method":"POST","url":"Observation"}},{"fullUrl":"Observation/44b05a76-e64e-4ed5-8206-aee92d1501d6","resource":{"resourceType":"Observation","id":"44b05a76-e64e-4ed5-8206-aee92d1501d6","status":"final","code":{"coding":[{"system":"http://loinc.org","code":"26464-8"}]},"subject":{"reference":"Patient/fdd93789-6ce3-4c7b-b812-4d2b65b6e975"},"effectiveDateTime":"2022-04-12T00:00:00+00:00","valueQuantity":{"value":10.1}},"request":{"method":"POST","url":"Observation"}},{"fullUrl":"Observation/f7385453-8c34-476a-a0d5-24c9e4e2a51b","resource":{"resourceType":"Observation","id":"f7385453-8c34-476a-a0d5-24c9e4e2a51b","status":"final","code":{"coding":[{"system":"http://www.ama-assn.org/go/cpt","code":"85048"}]},"subject":{"reference":"Patient/fdd93789-6ce3-4c7b-b812-4d2b65b6e975"},"effectiveDateTime":"2022-02-09T00:00:00+00:00","valueCodeableConcept":{"coding":[{"system":"snomed","code":"123456","display":"fake snomed"}]}},"request":{"method":"POST","url":"Observation"}},{"fullUrl":"Observation/be91118f-47e1-42c3-a81d-a46fecbe0e7e","resource":{"resourceType":"Observation","id":"be91118f-47e1-42c3-a81d-a46fecbe0e7e","status":"final","code":{"coding":[{"system":"http://loinc.org","code":"49498-9"}]},"subject":{"reference":"Patient/fdd93789-6ce3-4c7b-b812-4d2b65b6e975"},"effectiveDateTime":"2022-11-11T00:00:00+00:00","valueCodeableConcept":{"coding":[{"system":"snomed","code":"123456","display":"fake snomed"}]}},"request":{"method":"POST","url":"Observation"}},{"fullUrl":"Observation/5bd944e8-3eff-440c-93b7-1569028285fb","resource":{"resourceType":"Observation","id":"5bd944e8-3eff-440c-93b7-1569028285fb","status":"final","code":{"coding":[{"system":"http://loinc.org","code":"804-5"}]},"subject":{"reference":"Patient/fdd93789-6ce3-4c7b-b812-4d2b65b6e975"},"effectiveDateTime":"2022-11-05T00:00:00+00:00","valueCodeableConcept":{"coding":[{"system":"snomed","code":"123456","display":"fake snomed"}]}},"request":{"method":"POST","url":"Observation"}},{"fullUrl":"Observation/e690e5bb-63cc-43a3-96b0-2df638d86eae","resource":{"resourceType":"Observation","id":"e690e5bb-63cc-43a3-96b0-2df638d86eae","status":"final","code":{"coding":[{"system":"http://loinc.org","code":"49498-9"}]},"subject":{"reference":"Patient/fdd93789-6ce3-4c7b-b812-4d2b65b6e975"},"effectiveDateTime":"2022-09-02T00:00:00+00:00"},"request":{"method":"POST","url":"Observation"}},{"fullUrl":"Observation/59aaf44d-33b1-4e5e-93b8-c6bf6b771933","resource":{"resourceType":"Observation","id":"59aaf44d-33b1-4e5e-93b8-c6bf6b771933","status":"final","code":{"coding":[{"system":"http://loinc.org","code":"49498-9"}]},"subject":{"reference":"Patient/fdd93789-6ce3-4c7b-b812-4d2b65b6e975"},"effectiveDateTime":"2022-12-22T00:00:00+00:00"},"request":{"method":"POST","url":"Observation"}},{"fullUrl":"Procedure/cd621df0-54ab-4c6e-84d4-3452526670d8","resource":{"resourceType":"Procedure","id":"cd621df0-54ab-4c6e-84d4-3452526670d8","status":"completed","code":{"coding":[{"system":"http://snomed.info/sct","code":"104001"}]},"subject":{"reference":"Patient/fdd93789-6ce3-4c7b-b812-4d2b65b6e975"},"performedDateTime":"2022-05-23T00:00:00+00:00"},"request":{"method":"POST","url":"Procedure"}},{"fullUrl":"Procedure/c24cb20b-d8d0-4f71-9e0a-1500fe635d5d","resource":{"resourceType":"Procedure","id":"c24cb20b-d8d0-4f71-9e0a-1500fe635d5d","status":"completed","code":{"coding":[{"system":"http://snomed.info/sct","code":"189009"}]},"subject":{"reference":"Patient/fdd93789-6ce3-4c7b-b812-4d2b65b6e975"},"performedDateTime":"2022-03-14T00:00:00+00:00"},"request":{"method":"POST","url":"Procedure"}},{"fullUrl":"Procedure/feaa10d9-3d4f-419d-8ea3-2d249dbbc6a4","resource":{"resourceType":"Procedure","id":"feaa10d9-3d4f-419d-8ea3-2d249dbbc6a4","status":"completed","code":{"coding":[{"system":"http://snomed.info/sct","code":"146005"}]},"subject":{"reference":"Patient/fdd93789-6ce3-4c7b-b812-4d2b65b6e975"},"performedDateTime":"2022-12-10T00:00:00+00:00"},"request":{"method":"POST","url":"Procedure"}},{"fullUrl":"MedicationStatement/56f67c1d-ccbc-4842-a297-5049b08cca61","resource":{"resourceType":"MedicationStatement","id":"56f67c1d-ccbc-4842-a297-5049b08cca61","status":"completed","medicationCodeableConcept":{"coding":[{"system":"http://www.nlm.nih.gov/research/umls/rxnorm","code":"7980"}]},"subject":{"reference":"Patient/fdd93789-6ce3-4c7b-b812-4d2b65b6e975"},"effectiveDateTime":"2022-02-14T00:00:00+00:00","dosage":[{"doseAndRate":[{"doseQuantity":{"value":1,"unit":"TAB","system":"http://terminology.hl7.org/CodeSystem/v3-orderableDrugForm","code":"TAB"}}]}]},"request":{"method":"POST","url":"MedicationStatement"}},{"fullUrl":"MedicationStatement/9fed5fca-0c0b-4fc7-b8da-3d46b16313d1","resource":{"resourceType":"MedicationStatement","id":"9fed5fca-0c0b-4fc7-b8da-3d46b16313d1","status":"completed","medicationCodeableConcept":{"coding":[{"system":"http://www.nlm.nih.gov/research/umls/rxnorm","code":"7984"}]},"subject":{"reference":"Patient/fdd93789-6ce3-4c7b-b812-4d2b65b6e975"},"effectiveDateTime":"2022-06-22T00:00:00+00:00","dosage":[{"doseAndRate":[{"doseQuantity":{"value":1,"unit":"TAB","system":"http://terminology.hl7.org/CodeSystem/v3-orderableDrugForm","code":"TAB"}}]}]},"request":{"method":"POST","url":"MedicationStatement"}},{"fullUrl":"MedicationStatement/c4cd74db-0af2-4d2a-b33a-4bd1b1f8df1e","resource":{"resourceType":"MedicationStatement","id":"c4cd74db-0af2-4d2a-b33a-4bd1b1f8df1e","status":"completed","medicationCodeableConcept":{"coding":[{"system":"http://www.nlm.nih.gov/research/umls/rxnorm","code":"18631"}]},"subject":{"reference":"Patient/fdd93789-6ce3-4c7b-b812-4d2b65b6e975"},"effectiveDateTime":"2022-08-25T00:00:00+00:00","dosage":[{"doseAndRate":[{"doseQuantity":{"value":2,"unit":"TAB","system":"http://terminology.hl7.org/CodeSystem/v3-orderableDrugForm","code":"TAB"}}]}]},"request":{"method":"POST","url":"MedicationStatement"}},{"fullUrl":"MedicationStatement/26ee0283-5565-437a-8c0d-29a0e61e6df5","resource":{"resourceType":"MedicationStatement","id":"26ee0283-5565-437a-8c0d-29a0e61e6df5","status":"completed","medicationCodeableConcept":{"coding":[{"system":"http://www.nlm.nih.gov/research/umls/rxnorm","code":"3640"}]},"subject":{"reference":"Patient/fdd93789-6ce3-4c7b-b812-4d2b65b6e975"},"effectiveDateTime":"2022-05-08T00:00:00+00:00","dosage":[{"doseAndRate":[{"doseQuantity":{"value":1,"unit":"TAB","system":"http://terminology.hl7.org/CodeSystem/v3-orderableDrugForm","code":"TAB"}}]}]},"request":{"method":"POST","url":"MedicationStatement"}},{"fullUrl":"MedicationStatement/06901af7-c249-4756-be4d-e99d6ddee75d","resource":{"resourceType":"MedicationStatement","id":"06901af7-c249-4756-be4d-e99d6ddee75d","status":"completed","medicationCodeableConcept":{"coding":[{"system":"http://www.nlm.nih.gov/research/umls/rxnorm","code":"7980"}]},"subject":{"reference":"Patient/fdd93789-6ce3-4c7b-b812-4d2b65b6e975"},"effectiveDateTime":"2022-08-25T00:00:00+00:00","dosage":[{"doseAndRate":[{"doseQuantity":{"value":2,"unit":"TAB","system":"http://terminology.hl7.org/CodeSystem/v3-orderableDrugForm","code":"TAB"}}]}]},"request":{"method":"POST","url":"MedicationStatement"}},{"fullUrl":"MedicationStatement/d8a5f6da-ec20-418c-9309-17c2dc62e36e","resource":{"resourceType":"MedicationStatement","id":"d8a5f6da-ec20-418c-9309-17c2dc62e36e","status":"completed","medicationCodeableConcept":{"coding":[{"system":"http://www.nlm.nih.gov/research/umls/rxnorm","code":"7980"}]},"subject":{"reference":"Patient/fdd93789-6ce3-4c7b-b812-4d2b65b6e975"},"effectiveDateTime":"2022-12-13T00:00:00+00:00","dosage":[{"doseAndRate":[{"doseQuantity":{"value":1,"unit":"TAB","system":"http://terminology.hl7.org/CodeSystem/v3-orderableDrugForm","code":"TAB"}}]}]},"request":{"method":"POST","url":"MedicationStatement"}},{"fullUrl":"MedicationStatement/590067e4-2e2c-4d1a-8445-735eb429825e","resource":{"resourceType":"MedicationStatement","id":"590067e4-2e2c-4d1a-8445-735eb429825e","status":"completed","medicationCodeableConcept":{"coding":[{"system":"http://www.nlm.nih.gov/research/umls/rxnorm","code":"10395"}]},"subject":{"reference":"Patient/fdd93789-6ce3-4c7b-b812-4d2b65b6e975"},"effectiveDateTime":"2022-11-16T00:00:00+00:00","dosage":[{"doseAndRate":[{"doseQuantity":{"value":1,"unit":"TAB","system":"http://terminology.hl7.org/CodeSystem/v3-orderableDrugForm","code":"TAB"}}]}]},"request":{"method":"POST","url":"MedicationStatement"}},{"fullUrl":"MedicationStatement/907356e4-6870-49e5-8930-a1333c4689c3","resource":{"resourceType":"MedicationStatement","id":"907356e4-6870-49e5-8930-a1333c4689c3","status":"completed","medicationCodeableConcept":{"coding":[{"system":"http://www.nlm.nih.gov/research/umls/rxnorm","code":"10395"}]},"subject":{"reference":"Patient/fdd93789-6ce3-4c7b-b812-4d2b65b6e975"},"effectiveDateTime":"2022-04-05T00:00:00+00:00","dosage":[{"doseAndRate":[{"doseQuantity":{"value":1,"unit":"TAB","system":"http://terminology.hl7.org/CodeSystem/v3-orderableDrugForm","code":"TAB"}}]}]},"request":{"method":"POST","url":"MedicationStatement"}},{"fullUrl":"MedicationStatement/347b0d55-fb99-49f0-898b-85ccd54c68d0","resource":{"resourceType":"MedicationStatement","id":"347b0d55-fb99-49f0-898b-85ccd54c68d0","status":"completed","medicationCodeableConcept":{"coding":[{"system":"http://www.nlm.nih.gov/research/umls/rxnorm","code":"3640"}]},"subject":{"reference":"Patient/fdd93789-6ce3-4c7b-b812-4d2b65b6e975"},"effectiveDateTime":"2022-09-25T00:00:00+00:00","dosage":[{"doseAndRate":[{"doseQuantity":{"value":4.6,"unit":"TAB","system":"http://terminology.hl7.org/CodeSystem/v3-orderableDrugForm","code":"TAB"}}]}]},"request":{"method":"POST","url":"MedicationStatement"}},{"fullUrl":"MedicationStatement/61e984cd-2c84-4c26-9711-00ad29babd58","resource":{"resourceType":"MedicationStatement","id":"61e984cd-2c84-4c26-9711-00ad29babd58","status":"completed","medicationCodeableConcept":{"coding":[{"system":"http://www.nlm.nih.gov/research/umls/rxnorm","code":"2193"}]},"subject":{"reference":"Patient/fdd93789-6ce3-4c7b-b812-4d2b65b6e975"},"effectiveDateTime":"2022-09-09T00:00:00+00:00","dosage":[{"doseAndRate":[{"doseQuantity":{"value":6.5,"unit":"TAB","system":"http://terminology.hl7.org/CodeSystem/v3-orderableDrugForm","code":"TAB"}}]}]},"request":{"method":"POST","url":"MedicationStatement"}},{"fullUrl":"MedicationStatement/3682e9b2-a0e2-4f75-be92-4bdd946a128f","resource":{"resourceType":"MedicationStatement","id":"3682e9b2-a0e2-4f75-be92-4bdd946a128f","status":"completed","medicationCodeableConcept":{"coding":[{"system":"http://www.nlm.nih.gov/research/umls/rxnorm","code":"10395"}]},"subject":{"reference":"Patient/fdd93789-6ce3-4c7b-b812-4d2b65b6e975"},"effectiveDateTime":"2022-05-11T00:00:00+00:00","dosage":[{"doseAndRate":[{"doseQuantity":{"value":4.6,"unit":"TAB","system":"http://terminology.hl7.org/CodeSystem/v3-orderableDrugForm","code":"TAB"}}]}]},"request":{"method":"POST","url":"MedicationStatement"}},{"fullUrl":"MedicationStatement/e66a80ad-789d-4662-b5ab-9d529dd15615","resource":{"resourceType":"MedicationStatement","id":"e66a80ad-789d-4662-b5ab-9d529dd15615","status":"completed","medicationCodeableConcept":{"coding":[{"system":"http://www.nlm.nih.gov/research/umls/rxnorm","code":"7980"}]},"subject":{"reference":"Patient/fdd93789-6ce3-4c7b-b812-4d2b65b6e975"},"effectiveDateTime":"2022-03-22T00:00:00+00:00","dosage":[{"doseAndRate":[{"doseQuantity":{"value":4,"unit":"TAB","system":"http://terminology.hl7.org/CodeSystem/v3-orderableDrugForm","code":"TAB"}}]}]},"request":{"method":"POST","url":"MedicationStatement"}},{"fullUrl":"Encounter/6171f31c-681d-4225-8b92-fc985ff93416","resource":{"resourceType":"Encounter","id":"6171f31c-681d-4225-8b92-fc985ff93416","status":"finished","class":{"system":"http://terminology.hl7.org/CodeSystem/v3-ActCode","code":"IMP","display":"inpatient encounter"},"type":[{"coding":[{"system":"http://terminology.hl7.org/CodeSystem/encounter-type","code":"ADMS"}]}],"subject":{"reference":"Patient/fdd93789-6ce3-4c7b-b812-4d2b65b6e975"},"period":{"start":"2022-04-09T00:00:00+00:00","end":"2022-04-12T00:00:00+00:00"}},"request":{"method":"POST","url":"Encounter"}},{"fullUrl":"Encounter/8b64cae5-48a0-44cb-baee-ddd29784f019","resource":{"resourceType":"Encounter","id":"8b64cae5-48a0-44cb-baee-ddd29784f019","status":"finished","class":{"system":"http://terminology.hl7.org/CodeSystem/v3-ActCode","code":"IMP","display":"inpatient encounter"},"type":[{"coding":[{"system":"http://terminology.hl7.org/CodeSystem/encounter-type","code":"ADMS"}]}],"subject":{"reference":"Patient/fdd93789-6ce3-4c7b-b812-4d2b65b6e975"},"period":{"start":"2022-06-14T00:00:00+00:00","end":"2022-06-22T00:00:00+00:00"}},"request":{"method":"POST","url":"Encounter"}},{"fullUrl":"Encounter/61e8721b-3512-4e22-af02-55ff79ae2c44","resource":{"resourceType":"Encounter","id":"61e8721b-3512-4e22-af02-55ff79ae2c44","status":"finished","class":{"system":"http://terminology.hl7.org/CodeSystem/v3-ActCode","code":"IMP","display":"inpatient encounter"},"type":[{"coding":[{"system":"http://terminology.hl7.org/CodeSystem/encounter-type","code":"OKI"}]}],"subject":{"reference":"Patient/fdd93789-6ce3-4c7b-b812-4d2b65b6e975"},"period":{"start":"2022-02-20T00:00:00+00:00","end":"2022-02-26T00:00:00+00:00"}},"request":{"method":"POST","url":"Encounter"}},{"fullUrl":"Encounter/bc03de90-d21c-4fae-9ada-cd3619dc494d","resource":{"resourceType":"Encounter","id":"bc03de90-d21c-4fae-9ada-cd3619dc494d","status":"finished","class":{"system":"http://terminology.hl7.org/CodeSystem/v3-ActCode","code":"VR","display":"virtual"},"type":[{"coding":[{"system":"http://terminology.hl7.org/CodeSystem/encounter-type","code":"CCS60"}]}],"subject":{"reference":"Patient/fdd93789-6ce3-4c7b-b812-4d2b65b6e975"},"period":{"start":"2022-05-15T00:00:00+00:00","end":"2022-05-18T00:00:00+00:00"}},"request":{"method":"POST","url":"Encounter"}},{"fullUrl":"Encounter/a29f0dcc-2d78-46e3-8469-ad7379d2ebb7","resource":{"resourceType":"Encounter","id":"a29f0dcc-2d78-46e3-8469-ad7379d2ebb7","status":"finished","class":{"system":"http://terminology.hl7.org/CodeSystem/v3-ActCode","code":"AMB","display":"ambulatory"},"type":[{"coding":[{"system":"http://terminology.hl7.org/CodeSystem/encounter-type","code":"ADMS"}]}],"subject":{"reference":"Patient/fdd93789-6ce3-4c7b-b812-4d2b65b6e975"},"period":{"start":"2022-11-10T00:00:00+00:00","end":"2022-11-12T00:00:00+00:00"}},"request":{"method":"POST","url":"Encounter"}},{"fullUrl":"Location/fb075f6c-ea49-4141-8233-b97290e54941","resource":{"resourceType":"Location","id":"fb075f6c-ea49-4141-8233-b97290e54941","status":"active","name":"Davis-Lara","telecom":[{"system":"phone","value":"001-930-427-4811x8001","use":"mobile"}],"address":{"use":"work","line":["775 Anne Keys Apt. 893"],"city":"Manningview","state":"WV","postalCode":"25390"}},"request":{"method":"POST","url":"Location"}},{"fullUrl":"Observation/8a8d800c-3bbe-46e0-81f6-7e60aac4c3d9","resource":{"resourceType":"Observation","id":"8a8d800c-3bbe-46e0-81f6-7e60aac4c3d9","status":"final","code":{"coding":[{"system":"http://loinc.org","code":"81956-5"}]},"subject":{"reference":"Patient/fdd93789-6ce3-4c7b-b812-4d2b65b6e975"},"effectiveDateTime":"2022-07-27T00:00:00+00:00","valueDateTime":"2022-06-24T00:00:00+00:00"},"request":{"method":"POST","url":"Observation"}},{"fullUrl":"Patient/d820a735-0b29-453a-9bd3-9e2dbc79d359","resource":{"resourceType":"Patient","id":"d820a735-0b29-453a-9bd3-9e2dbc79d359","identifier":[{"type":{"coding":[{"system":"http://terminology.hl7.org/CodeSystem/v2-0203","code":"MR"}]},"system":"urn:fhirgen:mrn","value":"019-34-9789"}],"name":[{"use":"official","family":"Pitts","given":["Anthony"]},{"use":"maiden","family":"Harvey"}],"telecom":[{"system":"phone","value":"001-002-522-2409x800","use":"work"},{"system":"email","value":"pdavidson@hotmail.com","use":"work"}],"gender":"male","birthDate":"2001-07-28","address":[{"use":"home","line":["45542 Burnett Fall"],"city":"Lake Samuelmouth","state":"TN","postalCode":"60899"},{"use":"old","line":["991 Dorsey Forges Suite 529"],"city":"Cruzberg","state":"HI","postalCode":"87140"}]},"request":{"method":"POST","url":"Patient"}},{"fullUrl":"Observation/b8bbe398-af1d-41d1-9abb-26934f905338","resource":{"resourceType":"Observation","id":"b8bbe398-af1d-41d1-9abb-26934f905338","status":"final","code":{"coding":[{"system":"http://loinc.org","code":"5394-2"}]},"subject":{"reference":"Patient/d820a735-0b29-453a-9bd3-9e2dbc79d359"},"effectiveDateTime":"2022-03-20T00:00:00+00:00","valueRatio":{"numerator":{"value":1},"denominator":{"value":64}}},"request":{"method":"POST","url":"Observation"}},{"fullUrl":"Observation/578631ea-30ce-46aa-9492-3a7ba9fa03cb","resource":{"resourceType":"Observation","id":"578631ea-30ce-46aa-9492-3a7ba9fa03cb","status":"final","code":{"coding":[{"system":"http://loinc.org","code":"47476-7"}]},"subject":{"reference":"Patient/d820a735-0b29-453a-9bd3-9e2dbc79d359"},"effectiveDateTime":"2022-02-12T00:00:00+00:00","valueRatio":{"numerator":{"value":1},"denominator":{"value":4}}},"request":{"method":"POST","url":"Observation"}},{"fullUrl":"Observation/835ff3f8-1197-444b-a736-e4bcd7c630e4","resource":{"resourceType":"Observation","id":"835ff3f8-1197-444b-a736-e4bcd7c630e4","status":"final","code":{"coding":[{"system":"http://loinc.org","code":"50695-6"}]},"subject":{"reference":"Patient/d820a735-0b29-453a-9bd3-9e2dbc79d359"},"effectiveDateTime":"2022-07-20T00:00:00+00:00","valueRatio":{"numerator":{"value":1},"denominator":{"value":64}}},"request":{"method":"POST","url":"Observation"}},{"fullUrl":"Condition/1f7361c2-c990-4964-823c-f9aa017c9af8","resource":{"resourceType":"Condition","id":"1f7361c2-c990-4964-823c-f9aa017c9af8","code":{"coding":[{"system":"http://snomed.info/sct","code":"271939006"}]},"subject":{"reference":"Patient/d820a735-0b29-453a-9bd3-9e2dbc79d359"},"onsetDateTime":"2022-08-24T00:00:00+00:00"},"request":{"method":"POST","url":"Condition"}},{"fullUrl":"Condition/c9918081-69f1-467d-b21b-04af99cc81e9","resource":{"resourceType":"Condition","id":"c9918081-69f1-467d-b21b-04af99cc81e9","code":{"coding":[{"system":"http://snomed.info/sct","code":"44882003"}]},"subject":{"reference":"Patient/d820a735-0b29-453a-9bd3-9e2dbc79d359"},"onsetDateTime":"2022-12-17T00:00:00+00:00"},"request":{"method":"POST","url":"Condition"}},{"fullUrl":"Condition/f2bfca2f-83b2-4ea9-8f99-cc0791325d09","resource":{"resourceType":"Condition","id":"f2bfca2f-83b2-4ea9-8f99-cc0791325d09","code":{"coding":[{"system":"http://snomed.info/sct","code":"31070006"}]},"subject":{"reference":"Patient/d820a735-0b29-453a-9bd3-9e2dbc79d359"},"onsetDateTime":"2022-05-11T00:00:00+00:00"},"request":{"method":"POST","url":"Condition"}},{"fullUrl":"Condition/397026e1-ee95-42cc-a906-dc12c4ab4eb8","resource":{"resourceType":"Condition","id":"397026e1-ee95-42cc-a906-dc12c4ab4eb8","code":{"coding":[{"system":"http://snomed.info/sct","code":"3951002"}]},"subject":{"reference":"Patient/d820a735-0b29-453a-9bd3-9e2dbc79d359"},"onsetDateTime":"2022-05-21T00:00:00+00:00"},"request":{"method":"POST","url":"Condition"}},{"fullUrl":"Condition/9e5f0032-a611-4e60-a265-81308ddd1614","resource":{"resourceType":"Condition","id":"9e5f0032-a611-4e60-a265-81308ddd1614","code":{"coding":[{"system":"http://snomed.info/sct","code":"30746006"}]},"subject":{"reference":"Patient/d820a735-0b29-453a-9bd3-9e2dbc79d359"},"onsetDateTime":"2022-02-09T00:00:00+00:00"},"request":{"method":"POST","url":"Condition"}},{"fullUrl":"Condition/4dd9f361-1e7b-44d5-8cb9-0bf8e9906244","resource":{"resourceType":"Condition","id":"4dd9f361-1e7b-44d5-8cb9-0bf8e9906244","code":{"coding":[{"system":"http://snomed.info/sct","code":"418290006"}]},"subject":{"reference":"Patient/d820a735-0b29-453a-9bd3-9e2dbc79d359"},"onsetDateTime":"2022-10-15T00:00:00+00:00"},"request":{"method":"POST","url":"Condition"}},{"fullUrl":"Observation/d9eea11f-94b5-49a1-a7ed-a2b2d8674777","resource":{"resourceType":"Observation","id":"d9eea11f-94b5-49a1-a7ed-a2b2d8674777","status":"final","code":{"coding":[{"system":"http://loinc.org","code":"49498-9"}]},"subject":{"reference":"Patient/d820a735-0b29-453a-9bd3-9e2dbc79d359"},"effectiveDateTime":"2022-05-07T00:00:00+00:00","valueQuantity":{"value":8.1}},"request":{"method":"POST","url":"Observation"}},{"fullUrl":"Observation/37c2a2c7-8f90-486a-add8-d37aeeeb6b5e","resource":{"resourceType":"Observation","id":"37c2a2c7-8f90-486a-add8-d37aeeeb6b5e","status":"final","code":{"coding":[{"system":"http://loinc.org","code":"49498-9"}]},"subject":{"reference":"Patient/d820a735-0b29-453a-9bd3-9e2dbc79d359"},"effectiveDateTime":"2022-06-09T00:00:00+00:00","valueQuantity":{"value":10.5}},"request":{"method":"POST","url":"Observation"}},{"fullUrl":"Observation/2ba134bf-2d59-431e-a840-f427a3846713","resource":{"resourceType":"Observation","id":"2ba134bf-2d59-431e-a840-f427a3846713","status":"final","code":{"coding":[{"system":"http://loinc.org","code":"26464-8"}]},"subject":{"reference":"Patient/d820a735-0b29-453a-9bd3-9e2dbc79d359"},"effectiveDateTime":"2022-06-23T00:00:00+00:00","valueCodeableConcept":{"coding":[{"system":"snomed","code":"123456","display":"fake snomed"}]}},"request":{"method":"POST","url":"Observation"}},{"fullUrl":"Observation/c1f7bb5d-3947-44b6-b8c9-12e0b86cdfe5","resource":{"resourceType":"Observation","id":"c1f7bb5d-3947-44b6-b8c9-12e0b86cdfe5","status":"final","code":{"coding":[{"system":"http://loinc.org","code":"6690-2"}]},"subject":{"reference":"Patient/d820a735-0b29-453a-9bd3-9e2dbc79d359"},"effectiveDateTime":"2022-04-13T00:00:00+00:00","valueCodeableConcept":{"coding":[{"system":"snomed","code":"123456","display":"fake snomed"}]}},"request":{"method":"POST","url":"Observation"}},{"fullUrl":"Observation/1394f86f-92f2-4c80-aacd-feb8552ffd38","resource":{"resourceType":"Observation","id":"1394f86f-92f2-4c80-aacd-feb8552ffd38","status":"final","code":{"coding":[{"system":"http://loinc.org","code":"804-5"}]},"subject":{"reference":"Patient/d820a735-0b29-453a-9bd3-9e2dbc79d359"},"effectiveDateTime":"2022-02-18T00:00:00+00:00","valueCodeableConcept":{"coding":[{"system":"snomed","code":"123456","display":"fake snomed"}]}},"request":{"method":"POST","url":"Observation"}},{"fullUrl":"Observation/dac65802-5082-4c98-80c0-89e6fd477326","resource":{"resourceType":"Observation","id":"dac65802-5082-4c98-80c0-89e6fd477326","status":"final","code":{"coding":[{"system":"http://loinc.org","code":"49498-9"}]},"subject":{"reference":"Patient/d820a735-0b29-453a-9bd3-9e2dbc79d359"},"effectiveDateTime":"2022-03-12T00:00:00+00:00"},"request":{"method":"POST","url":"Observation"}},{"fullUrl":"Observation/ff79ef12-3991-4b7a-b4a8-1de6d89ab32f","resource":{"resourceType":"Observation","id":"ff79ef12-3991-4b7a-b4a8-1de6d89ab32f","status":"final","code":{"coding":[{"system":"http://loinc.org","code":"49498-9"}]},"subject":{"reference":"Patient/d820a735-0b29-453a-9bd3-9e2dbc79d359"},"effectiveDateTime":"2022-04-20T00:00:00+00:00"},"request":{"method":"POST","url":"Observation"}},{"fullUrl":"Observation/d87f95ed-6d35-4cb9-aa50-23717188f515","resource":{"resourceType":"Observation","id":"d87f95ed-6d35-4cb9-aa50-23717188f515","status":"final","code":{"coding":[{"system":"http://loinc.org","code":"49498-9"}]},"subject":{"reference":"Patient/d820a735-0b29-453a-9bd3-9e2dbc79d359"},"effectiveDateTime":"2022-11-06T00:00:00+00:00"},"request":{"method":"POST","url":"Observation"}},{"fullUrl":"Procedure/8d769810-b668-47b3-b284-968567278c5e","resource":{"resourceType":"Procedure","id":"8d769810-b668-47b3-b284-968567278c5e","status":"completed","code":{"coding":[{"system":"http://snomed.info/sct","code":"104001"}]},"subject":{"reference":"Patient/d820a735-0b29-453a-9bd3-9e2dbc79d359"},"performedDateTime":"2022-01-03T00:00:00+00:00"},"request":{"method":"POST","url":"Procedure"}},{"fullUrl":"Procedure/c425c7c8-2c34-4f4e-9e93-25aa3c258af5","resource":{"resourceType":"Procedure","id":"c425c7c8-2c34-4f4e-9e93-25aa3c258af5","status":"completed","code":{"coding":[{"system":"http://snomed.info/sct","code":"189009"}]},"subject":{"reference":"Patient/d820a735-0b29-453a-9bd3-9e2dbc79d359"},"performedDateTime":"2022-08-31T00:00:00+00:00"},"request":{"method":"POST","url":"Procedure"}},{"fullUrl":"Procedure/88f831c1-8bbb-445e-8d96-b1dd84ae423d","resource":{"resourceType":"Procedure","id":"88f831c1-8bbb-445e-8d96-b1dd84ae423d","status":"completed","code":{"coding":[{"system":"http://snomed.info/sct","code":"115006"}]},"subject":{"reference":"Patient/d820a735-0b29-453a-9bd3-9e2dbc79d359"},"performedDateTime":"2022-03-22T00:00:00+00:00"},"request":{"method":"POST","url":"Procedure"}},{"fullUrl":"MedicationStatement/980d3eed-ea1e-4be8-91f3-e2ecdc5c6ce4","resource":{"resourceType":"MedicationStatement","id":"980d3eed-ea1e-4be8-91f3-e2ecdc5c6ce4","status":"completed","medicationCodeableConcept":{"coding":[{"system":"http://www.nlm.nih.gov/research/umls/rxnorm","code":"8698"}]},"subject":{"reference":"Patient/d820a735-0b29-453a-9bd3-9e2dbc79d359"},"effectiveDateTime":"2022-01-12T00:00:00+00:00","dosage":[{"doseAndRate":[{"doseQuantity":{"value":1,"unit":"TAB","system":"http://terminology.hl7.org/CodeSystem/v3-orderableDrugForm","code":"TAB"}}]}]},"request":{"method":"POST","url":"MedicationStatement"}},{"fullUrl":"MedicationStatement/bfcc5222-dfda-4712-9a03-ce913e1c3372","resource":{"resourceType":"MedicationStatement","id":"bfcc5222-dfda-4712-9a03-ce913e1c3372","status":"completed","medicationCodeableConcept":{"coding":[{"system":"http://www.nlm.nih.gov/research/umls/rxnorm","code":"7980"}]},"subject":{"reference":"Patient/d820a735-0b29-453a-9bd3-9e2dbc79d359"},"effectiveDateTime":"2022-01-03T00:00:00+00:00","dosage":[{"doseAndRate":[{"doseQuantity":{"value":2,"unit":"TAB","system":"http://terminology.hl7.org/CodeSystem/v3-orderableDrugForm","code":"TAB"}}]}]},"request":{"method":"POST","url":"MedicationStatement"}},{"fullUrl":"MedicationStatement/a855f919-1077-47dd-9f21-ed3a1ac57694","resource":{"resourceType":"MedicationStatement","id":"a855f919-1077-47dd-9f21-ed3a1ac57694","status":"completed","medicationCodeableConcept":{"coding":[{"system":"http://www.nlm.nih.gov/research/umls/rxnorm","code":"8698"}]},"subject":{"reference":"Patient/d820a735-0b29-453a-9bd3-9e2dbc79d359"},"effectiveDateTime":"2022-11-30T00:00:00+00:00","dosage":[{"doseAndRate":[{"doseQuantity":{"value":2,"unit":"TAB","system":"http://terminology.hl7.org/CodeSystem/v3-orderableDrugForm","code":"TAB"}}]}]},"request":{"method":"POST","url":"MedicationStatement"}},{"fullUrl":"MedicationStatement/e8980dcf-b62a-4a39-8839-0db25e62dc42","resource":{"resourceType":"MedicationStatement","id":"e8980dcf-b62a-4a39-8839-0db25e62dc42","status":"completed","medicationCodeableConcept":{"coding":[{"system":"http://www.nlm.nih.gov/research/umls/rxnorm","code":"18631"}]},"subject":{"reference":"Patient/d820a735-0b29-453a-9bd3-9e2dbc79d359"},"effectiveDateTime":"2022-08-21T00:00:00+00:00","dosage":[{"doseAndRate":[{"doseQuantity":{"value":2,"unit":"TAB","system":"http://terminology.hl7.org/CodeSystem/v3-orderableDrugForm","code":"TAB"}}]}]},"request":{"method":"POST","url":"MedicationStatement"}},{"fullUrl":"MedicationStatement/b530a03b-5474-4e6e-80ba-b7db9b0156a1","resource":{"resourceType":"MedicationStatement","id":"b530a03b-5474-4e6e-80ba-b7db9b0156a1","status":"completed","medicationCodeableConcept":{"coding":[{"system":"http://www.nlm.nih.gov/research/umls/rxnorm","code":"2193"}]},"subject":{"reference":"Patient/d820a735-0b29-453a-9bd3-9e2dbc79d359"},"effectiveDateTime":"2022-12-03T00:00:00+00:00","dosage":[{"doseAndRate":[{"doseQuantity":{"value":2,"unit":"TAB","system":"http://terminology.hl7.org/CodeSystem/v3-orderableDrugForm","code":"TAB"}}]}]},"request":{"method":"POST","url":"MedicationStatement"}},{"fullUrl":"MedicationStatement/1d9e057e-5897-462d-9e84-ea7f184e9a2c","resource":{"resourceType":"MedicationStatement","id":"1d9e057e-5897-462d-9e84-ea7f184e9a2c","status":"completed","medicationCodeableConcept":{"coding":[{"system":"http://www.nlm.nih.gov/research/umls/rxnorm","code":"10395"}]},"subject":{"reference":"Patient/d820a735-0b29-453a-9bd3-9e2dbc79d359"},"effectiveDateTime":"2022-10-22T00:00:00+00:00","dosage":[{"doseAndRate":[{"doseQuantity":{"value":2,"unit":"TAB","system":"http://terminology.hl7.org/CodeSystem/v3-orderableDrugForm","code":"TAB"}}]}]},"request":{"method":"POST","url":"MedicationStatement"}},{"fullUrl":"MedicationStatement/3fb44e8b-c99b-4fb2-b350-30259726d34d","resource":{"resourceType":"MedicationStatement","id":"3fb44e8b-c99b-4fb2-b350-30259726d34d","status":"completed","medicationCodeableConcept":{"coding":[{"system":"http://www.nlm.nih.gov/research/umls/rxnorm","code":"7984"}]},"subject":{"reference":"Patient/d820a735-0b29-453a-9bd3-9e2dbc79d359"},"effectiveDateTime":"2022-07-10T00:00:00+00:00","dosage":[{"doseAndRate":[{"doseQuantity":{"value":5.6,"unit":"TAB","system":"http://terminology.hl7.org/CodeSystem/v3-orderableDrugForm","code":"TAB"}}]}]},"request":{"method":"POST","url":"MedicationStatement"}},{"fullUrl":"MedicationStatement/15db4af2-ddb0-4c57-b0dd-564f0294a0e7","resource":{"resourceType":"MedicationStatement","id":"15db4af2-ddb0-4c57-b0dd-564f0294a0e7","status":"completed","medicationCodeableConcept":{"coding":[{"system":"http://www.nlm.nih.gov/research/umls/rxnorm","code":"8698"}]},"subject":{"reference":"Patient/d820a735-0b29-453a-9bd3-9e2dbc79d359"},"effectiveDateTime":"2022-10-01T00:00:00+00:00","dosage":[{"doseAndRate":[{"doseQuantity":{"value":6,"unit":"TAB","system":"http://terminology.hl7.org/CodeSystem/v3-orderableDrugForm","code":"TAB"}}]}]},"request":{"method":"POST","url":"MedicationStatement"}},{"fullUrl":"MedicationStatement/a7bd45e7-626d-4463-a9bc-0d077299fd06","resource":{"resourceType":"MedicationStatement","id":"a7bd45e7-626d-4463-a9bc-0d077299fd06","status":"completed","medicationCodeableConcept":{"coding":[{"system":"http://www.nlm.nih.gov/research/umls/rxnorm","code":"10395"}]},"subject":{"reference":"Patient/d820a735-0b29-453a-9bd3-9e2dbc79d359"},"effectiveDateTime":"2022-03-03T00:00:00+00:00","dosage":[{"doseAndRate":[{"doseQuantity":{"value":4.9,"unit":"TAB","system":"http://terminology.hl7.org/CodeSystem/v3-orderableDrugForm","code":"TAB"}}]}]},"request":{"method":"POST","url":"MedicationStatement"}},{"fullUrl":"MedicationStatement/f002f5b7-4186-430c-86a8-3364e5ac6ca4","resource":{"resourceType":"MedicationStatement","id":"f002f5b7-4186-430c-86a8-3364e5ac6ca4","status":"completed","medicationCodeableConcept":{"coding":[{"system":"http://www.nlm.nih.gov/research/umls/rxnorm","code":"2193"}]},"subject":{"reference":"Patient/d820a735-0b29-453a-9bd3-9e2dbc79d359"},"effectiveDateTime":"2022-02-28T00:00:00+00:00","dosage":[{"doseAndRate":[{"doseQuantity":{"value":4.4,"unit":"TAB","system":"http://terminology.hl7.org/CodeSystem/v3-orderableDrugForm","code":"TAB"}}]}]},"request":{"method":"POST","url":"MedicationStatement"}},{"fullUrl":"MedicationStatement/a788ca4c-fcb6-4282-a5fd-551fce197ffa","resource":{"resourceType":"MedicationStatement","id":"a788ca4c-fcb6-4282-a5fd-551fce197ffa","status":"completed","medicationCodeableConcept":{"coding":[{"system":"http://www.nlm.nih.gov/research/umls/rxnorm","code":"7984"}]},"subject":{"reference":"Patient/d820a735-0b29-453a-9bd3-9e2dbc79d359"},"effectiveDateTime":"2022-01-03T00:00:00+00:00","dosage":[{"doseAndRate":[{"doseQuantity":{"value":4.3,"unit":"TAB","system":"http://terminology.hl7.org/CodeSystem/v3-orderableDrugForm","code":"TAB"}}]}]},"request":{"method":"POST","url":"MedicationStatement"}},{"fullUrl":"MedicationStatement/be5908da-5417-4e0e-b4be-934b85ac1d3b","resource":{"resourceType":"MedicationStatement","id":"be5908da-5417-4e0e-b4be-934b85ac1d3b","status":"completed","medicationCodeableConcept":{"coding":[{"system":"http://www.nlm.nih.gov/research/umls/rxnorm","code":"18631"}]},"subject":{"reference":"Patient/d820a735-0b29-453a-9bd3-9e2dbc79d359"},"effectiveDateTime":"2022-12-23T00:00:00+00:00","dosage":[{"doseAndRate":[{"doseQuantity":{"value":4.9,"unit":"TAB","system":"http://terminology.hl7.org/CodeSystem/v3-orderableDrugForm","code":"TAB"}}]}]},"request":{"method":"POST","url":"MedicationStatement"}},{"fullUrl":"Encounter/4666d279-1cd7-4d3f-b312-2772dfebdd4f","resource":{"resourceType":"Encounter","id":"4666d279-1cd7-4d3f-b312-2772dfebdd4f","status":"finished","class":{"system":"http://terminology.hl7.org/CodeSystem/v3-ActCode","code":"IMP","display":"inpatient encounter"},"type":[{"coding":[{"system":"http://terminology.hl7.org/CodeSystem/encounter-type","code":"CCS60"}]}],"subject":{"reference":"Patient/d820a735-0b29-453a-9bd3-9e2dbc79d359"},"period":{"start":"2022-11-20T00:00:00+00:00","end":"2022-11-29T00:00:00+00:00"}},"request":{"method":"POST","url":"Encounter"}},{"fullUrl":"Encounter/9437d2a2-e71d-4e20-9c7c-2ca0adbaf97b","resource":{"resourceType":"Encounter","id":"9437d2a2-e71d-4e20-9c7c-2ca0adbaf97b","status":"finished","class":{"system":"http://terminology.hl7.org/CodeSystem/v3-ActCode","code":"IMP","display":"inpatient encounter"},"type":[{"coding":[{"system":"http://terminology.hl7.org/CodeSystem/encounter-type","code":"BD/BM-clin"}]}],"subject":{"reference":"Patient/d820a735-0b29-453a-9bd3-9e2dbc79d359"},"period":{"start":"2022-01-19T00:00:00+00:00","end":"2022-01-19T00:00:00+00:00"}},"request":{"method":"POST","url":"Encounter"}},{"fullUrl":"Encounter/f2d28c96-efc8-43db-a743-223720daddf4","resource":{"resourceType":"Encounter","id":"f2d28c96-efc8-43db-a743-223720daddf4","status":"finished","class":{"system":"http://terminology.hl7.org/CodeSystem/v3-ActCode","code":"NONAC","display":"inpatient non-acute"},"type":[{"coding":[{"system":"http://terminology.hl7.org/CodeSystem/encounter-type","code":"ADMS"}]}],"subject":{"reference":"Patient/d820a735-0b29-453a-9bd3-9e2dbc79d359"},"period":{"start":"2022-02-22T00:00:00+00:00","end":"2022-02-27T00:00:00+00:00"}},"request":{"method":"POST","url":"Encounter"}},{"fullUrl":"Encounter/d64b4dbc-fbad-4a5a-90fc-f668dacf787a","resource":{"resourceType":"Encounter","id":"d64b4dbc-fbad-4a5a-90fc-f668dacf787a","status":"finished","class":{"system":"http://terminology.hl7.org/CodeSystem/v3-ActCode","code":"IMP","display":"inpatient encounter"},"type":[{"coding":[{"system":"http://terminology.hl7.org/CodeSystem/encounter-type","code":"OKI"}]}],"subject":{"reference":"Patient/d820a735-0b29-453a-9bd3-9e2dbc79d359"},"period":{"start":"2022-11-29T00:00:00+00:00","end":"2022-12-06T00:00:00+00:00"}},"request":{"method":"POST","url":"Encounter"}},{"fullUrl":"Encounter/aecb1bc2-4f8a-4d84-8f61-3de68752e3d9","resource":{"resourceType":"Encounter","id":"aecb1bc2-4f8a-4d84-8f61-3de68752e3d9","status":"finished","class":{"system":"http://terminology.hl7.org/CodeSystem/v3-ActCode","code":"NONAC","display":"inpatient non-acute"},"type":[{"coding":[{"system":"http://terminology.hl7.org/CodeSystem/encounter-type","code":"BD/BM-clin"}]}],"subject":{"reference":"Patient/d820a735-0b29-453a-9bd3-9e2dbc79d359"},"period":{"start":"2022-03-24T00:00:00+00:00","end":"2022-04-02T00:00:00+00:00"}},"request":{"method":"POST","url":"Encounter"}},{"fullUrl":"Location/1177dc5d-88e9-4857-a6df-141ecf48a323","resource":{"resourceType":"Location","id":"1177dc5d-88e9-4857-a6df-141ecf48a323","status":"active","name":"Barker-Cole","telecom":[{"system":"phone","value":"202.391.4651x930","use":"mobile"}],"address":{"use":"work","line":["104 Hardy Expressway Apt. 078"],"city":"Port Michael","state":"DE","postalCode":"75865"}},"request":{"method":"POST","url":"Location"}},{"fullUrl":"Observation/31e4ecc9-94a7-492a-8379-88e35c4496d7","resource":{"resourceType":"Observation","id":"31e4ecc9-94a7-492a-8379-88e35c4496d7","status":"final","code":{"coding":[{"system":"http://loinc.org","code":"81956-5"}]},"subject":{"reference":"Patient/d820a735-0b29-453a-9bd3-9e2dbc79d359"},"effectiveDateTime":"2022-03-07T00:00:00+00:00","valueDateTime":"2022-03-05T00:00:00+00:00"},"request":{"method":"POST","url":"Observation"}},{"fullUrl":"Patient/12add628-c7c6-4a1c-a346-07539b6e013c","resource":{"resourceType":"Patient","id":"12add628-c7c6-4a1c-a346-07539b6e013c","identifier":[{"type":{"coding":[{"system":"http://terminology.hl7.org/CodeSystem/v2-0203","code":"MR"}]},"system":"urn:fhirgen:mrn","value":"013-43-2850"}],"name":[{"use":"official","family":"Chandler","given":["Shannon"]},{"use":"maiden","family":"Parrish"}],"telecom":[{"system":"phone","value":"(787)956-9182x762","use":"home"},{"system":"email","value":"griffinemily@hotmail.com","use":"home"}],"gender":"female","birthDate":"1986-08-10","address":[{"use":"home","line":["785 White Court Suite 722"],"city":"South Virginia","state":"DE","postalCode":"57273"},{"use":"old","line":["616 Mark Avenue Apt. 415"],"city":"Alexmouth","state":"AK","postalCode":"44126"}]},"request":{"method":"POST","url":"Patient"}},{"fullUrl":"Observation/542fe412-4cbf-4ef0-b2d8-f45ae259644a","resource":{"resourceType":"Observation","id":"542fe412-4cbf-4ef0-b2d8-f45ae259644a","status":"final","code":{"coding":[{"system":"http://loinc.org","code":"11084-1"}]},"subject":{"reference":"Patient/12add628-c7c6-4a1c-a346-07539b6e013c"},"effectiveDateTime":"2022-01-02T00:00:00+00:00","valueRatio":{"numerator":{"value":1},"denominator":{"value":32}}},"request":{"method":"POST","url":"Observation"}},{"fullUrl":"Observation/9038e01a-1cc6-491b-af1f-8e516313807a","resource":{"resourceType":"Observation","id":"9038e01a-1cc6-491b-af1f-8e516313807a","status":"final","code":{"coding":[{"system":"http://loinc.org","code":"47476-7"}]},"subject":{"reference":"Patient/12add628-c7c6-4a1c-a346-07539b6e013c"},"effectiveDateTime":"2022-01-22T00:00:00+00:00","valueRatio":{"numerator":{"value":1},"denominator":{"value":4}}},"request":{"method":"POST","url":"Observation"}},{"fullUrl":"Condition/b27b9be9-22f2-40a4-9186-b03353be68fb","resource":{"resourceType":"Condition","id":"b27b9be9-22f2-40a4-9186-b03353be68fb","code":{"coding":[{"system":"http://snomed.info/sct","code":"418290006"}]},"subject":{"reference":"Patient/12add628-c7c6-4a1c-a346-07539b6e013c"},"onsetDateTime":"2022-12-27T00:00:00+00:00"},"request":{"method":"POST","url":"Condition"}},{"fullUrl":"Condition/346ea17e-dce6-423a-835e-4644ae7d38eb","resource":{"resourceType":"Condition","id":"346ea17e-dce6-423a-835e-4644ae7d38eb","code":{"coding":[{"system":"http://snomed.info/sct","code":"31070006"}]},"subject":{"reference":"Patient/12add628-c7c6-4a1c-a346-07539b6e013c"},"onsetDateTime":"2022-08-14T00:00:00+00:00"},"request":{"method":"POST","url":"Condition"}},{"fullUrl":"Condition/b324cd16-5488-4811-af25-a7bc2503a037","resource":{"resourceType":"Condition","id":"b324cd16-5488-4811-af25-a7bc2503a037","code":{"coding":[{"system":"http://snomed.info/sct","code":"56317004"}]},"subject":{"reference":"Patient/12add628-c7c6-4a1c-a346-07539b6e013c"},"onsetDateTime":"2022-01-29T00:00:00+00:00"},"request":{"method":"POST","url":"Condition"}},{"fullUrl":"Condition/55bddcfc-2fa4-42d8-b6bd-962382237338","resource":{"resourceType":"Condition","id":"55bddcfc-2fa4-42d8-b6bd-962382237338","code":{"coding":[{"system":"http://snomed.info/sct","code":"3951002"}]},"subject":{"reference":"Patient/12add628-c7c6-4a1c-a346-07539b6e013c"},"onsetDateTime":"2022-01-17T00:00:00+00:00"},"request":{"method":"POST","url":"Condition"}},{"fullUrl":"Observation/c780af4e-e2f1-4e9e-9f98-bf8d54ca6e30","resource":{"resourceType":"Observation","id":"c780af4e-e2f1-4e9e-9f98-bf8d54ca6e30","status":"final","code":{"coding":[{"system":"http://loinc.org","code":"49498-9"}]},"subject":{"reference":"Patient/12add628-c7c6-4a1c-a346-07539b6e013c"},"effectiveDateTime":"2022-02-10T00:00:00+00:00","valueQuantity":{"value":10.1}},"request":{"method":"POST","url":"Observation"}},{"fullUrl":"Observation/1dccf091-0aba-4281-9703-c18c29e1928e","resource":{"resourceType":"Observation","id":"1dccf091-0aba-4281-9703-c18c29e1928e","status":"final","code":{"coding":[{"system":"http://loinc.org","code":"26464-8"}]},"subject":{"reference":"Patient/12add628-c7c6-4a1c-a346-07539b6e013c"},"effectiveDateTime":"2022-02-01T00:00:00+00:00","valueQuantity":{"value":8.7}},"request":{"method":"POST","url":"Observation"}},{"fullUrl":"Observation/edb5c5e2-ece8-4f8f-9c0c-08befff06240","resource":{"resourceType":"Observation","id":"edb5c5e2-ece8-4f8f-9c0c-08befff06240","status":"final","code":{"coding":[{"system":"http://loinc.org","code":"6690-2"}]},"subject":{"reference":"Patient/12add628-c7c6-4a1c-a346-07539b6e013c"},"effectiveDateTime":"2022-03-05T00:00:00+00:00","valueQuantity":{"value":7.2}},"request":{"method":"POST","url":"Observation"}},{"fullUrl":"Observation/bc5d00a5-cab6-4f8d-ac58-6ee6ffeb198a","resource":{"resourceType":"Observation","id":"bc5d00a5-cab6-4f8d-ac58-6ee6ffeb198a","status":"final","code":{"coding":[{"system":"http://www.ama-assn.org/go/cpt","code":"85048"}]},"subject":{"reference":"Patient/12add628-c7c6-4a1c-a346-07539b6e013c"},"effectiveDateTime":"2022-02-24T00:00:00+00:00","valueCodeableConcept":{"coding":[{"system":"snomed","code":"123456","display":"fake snomed"}]}},"request":{"method":"POST","url":"Observation"}},{"fullUrl":"Observation/972628b5-466c-40ef-b976-21866991f7da","resource":{"resourceType":"Observation","id":"972628b5-466c-40ef-b976-21866991f7da","status":"final","code":{"coding":[{"system":"http://loinc.org","code":"26464-8"}]},"subject":{"reference":"Patient/12add628-c7c6-4a1c-a346-07539b6e013c"},"effectiveDateTime":"2022-05-12T00:00:00+00:00","valueCodeableConcept":{"coding":[{"system":"snomed","code":"123456","display":"fake snomed"}]}},"request":{"method":"POST","url":"Observation"}},{"fullUrl":"Observation/4496f000-1a79-49df-b49c-add9af5d7503","resource":{"resourceType":"Observation","id":"4496f000-1a79-49df-b49c-add9af5d7503","status":"final","code":{"coding":[{"system":"http://loinc.org","code":"26464-8"}]},"subject":{"reference":"Patient/12add628-c7c6-4a1c-a346-07539b6e013c"},"effectiveDateTime":"2022-08-05T00:00:00+00:00","valueCodeableConcept":{"coding":[{"system":"snomed","code":"123456","display":"fake snomed"}]}},"request":{"method":"POST","url":"Observation"}},{"fullUrl":"Observation/e203defb-38a0-4ffe-88e7-f2a11dfef144","resource":{"resourceType":"Observation","id":"e203defb-38a0-4ffe-88e7-f2a11dfef144","status":"final","code":{"coding":[{"system":"http://loinc.org","code":"49498-9"}]},"subject":{"reference":"Patient/12add628-c7c6-4a1c-a346-07539b6e013c"},"effectiveDateTime":"2022-12-11T00:00:00+00:00"},"request":{"method":"POST","url":"Observation"}},{"fullUrl":"Observation/8ecedb69-2a98-48d6-992e-7b96afc8e517","resource":{"resourceType":"Observation","id":"8ecedb69-2a98-48d6-992e-7b96afc8e517","status":"final","code":{"coding":[{"system":"http://loinc.org","code":"49498-9"}]},"subject":{"reference":"Patient/12add628-c7c6-4a1c-a346-07539b6e013c"},"effectiveDateTime":"2022-04-13T00:00:00+00:00"},"request":{"method":"POST","url":"Observation"}},{"fullUrl":"Procedure/c085cebc-3e28-4d1e-8876-2b70a3d3aa80","resource":{"resourceType":"Procedure","id":"c085cebc-3e28-4d1e-8876-2b70a3d3aa80","status":"completed","code":{"coding":[{"system":"http://snomed.info/sct","code":"146005"}]},"subject":{"reference":"Patient/12add628-c7c6-4a1c-a346-07539b6e013c"},"performedDateTime":"2022-12-09T00:00:00+00:00"},"request":{"method":"POST","url":"Procedure"}},{"fullUrl":"Procedure/c85fe259-1572-4efd-a24f-f971bbfde4ed","resource":{"resourceType":"Procedure","id":"c85fe259-1572-4efd-a24f-f971bbfde4ed","status":"completed","code":{"coding":[{"system":"http://snomed.info/sct","code":"146005"}]},"subject":{"reference":"Patient/12add628-c7c6-4a1c-a346-07539b6e013c"},"performedDateTime":"2022-03-31T00:00:00+00:00"},"request":{"method":"POST","url":"Procedure"}},{"fullUrl":"Procedure/342eaf48-3a2a-48c4-be89-ad6a975235f6","resource":{"resourceType":"Procedure","id":"342eaf48-3a2a-48c4-be89-ad6a975235f6","status":"completed","code":{"coding":[{"system":"http://snomed.info/sct","code":"647000"}]},"subject":{"reference":"Patient/12add628-c7c6-4a1c-a346-07539b6e013c"},"performedDateTime":"2022-07-02T00:00:00+00:00"},"request":{"method":"POST","url":"Procedure"}},{"fullUrl":"MedicationStatement/a6df076e-0d11-4d51-aac5-ab24319b2e41","resource":{"resourceType":"MedicationStatement","id":"a6df076e-0d11-4d51-aac5-ab24319b2e41","status":"completed","medicationCodeableConcept":{"coding":[{"system":"http://www.nlm.nih.gov/research/umls/rxnorm","code":"8698"}]},"subject":{"reference":"Patient/12add628-c7c6-4a1c-a346-07539b6e013c"},"effectiveDateTime":"2022-03-13T00:00:00+00:00","dosage":[{"doseAndRate":[{"doseQuantity":{"value":1,"unit":"TAB","system":"http://terminology.hl7.org/CodeSystem/v3-orderableDrugForm","code":"TAB"}}]}]},"request":{"method":"POST","url":"MedicationStatement"}},{"fullUrl":"MedicationStatement/6ac34e64-1539-4d82-91bb-6d01d51bff72","resource":{"resourceType":"MedicationStatement","id":"6ac34e64-1539-4d82-91bb-6d01d51bff72","status":"completed","medicationCodeableConcept":{"coding":[{"system":"http://www.nlm.nih.gov/research/umls/rxnorm","code":"7984"}]},"subject":{"reference":"Patient/12add628-c7c6-4a1c-a346-07539b6e013c"},"effectiveDateTime":"2022-09-20T00:00:00+00:00","dosage":[{"doseAndRate":[{"doseQuantity":{"value":1,"unit":"TAB","system":"http://terminology.hl7.org/CodeSystem/v3-orderableDrugForm","code":"TAB"}}]}]},"request":{"method":"POST","url":"MedicationStatement"}},{"fullUrl":"MedicationStatement/2eca7d37-f7b1-49da-a095-a5a9ad67641b","resource":{"resourceType":"MedicationStatement","id":"2eca7d37-f7b1-49da-a095-a5a9ad67641b","status":"completed","medicationCodeableConcept":{"coding":[{"system":"http://www.nlm.nih.gov/research/umls/rxnorm","code":"18631"}]},"subject":{"reference":"Patient/12add628-c7c6-4a1c-a346-07539b6e013c"},"effectiveDateTime":"2022-04-02T00:00:00+00:00","dosage":[{"doseAndRate":[{"doseQuantity":{"value":4.7,"unit":"TAB","system":"http://terminology.hl7.org/CodeSystem/v3-orderableDrugForm","code":"TAB"}}]}]},"request":{"method":"POST","url":"MedicationStatement"}},{"fullUrl":"MedicationStatement/1270dab6-80e9-4e24-9d18-004a6465d94b","resource":{"resourceType":"MedicationStatement","id":"1270dab6-80e9-4e24-9d18-004a6465d94b","status":"completed","medicationCodeableConcept":{"coding":[{"system":"http://www.nlm.nih.gov/research/umls/rxnorm","code":"2193"}]},"subject":{"reference":"Patient/12add628-c7c6-4a1c-a346-07539b6e013c"},"effectiveDateTime":"2022-04-15T00:00:00+00:00","dosage":[{"doseAndRate":[{"doseQuantity":{"value":3.5,"unit":"TAB","system":"http://terminology.hl7.org/CodeSystem/v3-orderableDrugForm","code":"TAB"}}]}]},"request":{"method":"POST","url":"MedicationStatement"}},{"fullUrl":"MedicationStatement/4016c2cb-9945-4e09-bd50-111201159c78","resource":{"resourceType":"MedicationStatement","id":"4016c2cb-9945-4e09-bd50-111201159c78","status":"completed","medicationCodeableConcept":{"coding":[{"system":"http://www.nlm.nih.gov/research/umls/rxnorm","code":"3640"}]},"subject":{"reference":"Patient/12add628-c7c6-4a1c-a346-07539b6e013c"},"effectiveDateTime":"2022-05-10T00:00:00+00:00","dosage":[{"doseAndRate":[{"doseQuantity":{"value":3.5,"unit":"TAB","system":"http://terminology.hl7.org/CodeSystem/v3-orderableDrugForm","code":"TAB"}}]}]},"request":{"method":"POST","url":"MedicationStatement"}},{"fullUrl":"MedicationStatement/a2d1308a-e1ac-48c7-92fb-2838d73ab150","resource":{"resourceType":"MedicationStatement","id":"a2d1308a-e1ac-48c7-92fb-2838d73ab150","status":"completed","medicationCodeableConcept":{"coding":[{"system":"http://www.nlm.nih.gov/research/umls/rxnorm","code":"10395"}]},"subject":{"reference":"Patient/12add628-c7c6-4a1c-a346-07539b6e013c"},"effectiveDateTime":"2022-07-21T00:00:00+00:00","dosage":[{"doseAndRate":[{"doseQuantity":{"value":6.6,"unit":"TAB","system":"http://terminology.hl7.org/CodeSystem/v3-orderableDrugForm","code":"TAB"}}]}]},"request":{"method":"POST","url":"MedicationStatement"}},{"fullUrl":"MedicationStatement/1cbc411e-882d-435e-9ae4-32b0a6ab703e","resource":{"resourceType":"MedicationStatement","id":"1cbc411e-882d-435e-9ae4-32b0a6ab703e","status":"completed","medicationCodeableConcept":{"coding":[{"system":"http://www.nlm.nih.gov/research/umls/rxnorm","code":"8698"}]},"subject":{"reference":"Patient/12add628-c7c6-4a1c-a346-07539b6e013c"},"effectiveDateTime":"2022-07-09T00:00:00+00:00","dosage":[{"doseAndRate":[{"doseQuantity":{"value":5,"unit":"TAB","system":"http://terminology.hl7.org/CodeSystem/v3-orderableDrugForm","code":"TAB"}}]}]},"request":{"method":"POST","url":"MedicationStatement"}},{"fullUrl":"MedicationStatement/93f6ff7a-7293-44f3-bacd-f778a9e0dcbf","resource":{"resourceType":"MedicationStatement","id":"93f6ff7a-7293-44f3-bacd-f778a9e0dcbf","status":"completed","medicationCodeableConcept":{"coding":[{"system":"http://www.nlm.nih.gov/research/umls/rxnorm","code":"18631"}]},"subject":{"reference":"Patient/12add628-c7c6-4a1c-a346-07539b6e013c"},"effectiveDateTime":"2022-03-03T00:00:00+00:00","dosage":[{"doseAndRate":[{"doseQuantity":{"value":5.2,"unit":"TAB","system":"http://terminology.hl7.org/CodeSystem/v3-orderableDrugForm","code":"TAB"}}]}]},"request":{"method":"POST","url":"MedicationStatement"}},{"fullUrl":"Encounter/1ee595e7-6b59-4af1-a094-e9b2ae2142f2","resource":{"resourceType":"Encounter","id":"1ee595e7-6b59-4af1-a094-e9b2ae2142f2","status":"finished","class":{"system":"http://terminology.hl7.org/CodeSystem/v3-ActCode","code":"IMP","display":"inpatient encounter"},"type":[{"coding":[{"system":"http://terminology.hl7.org/CodeSystem/encounter-type","code":"OKI"}]}],"subject":{"reference":"Patient/12add628-c7c6-4a1c-a346-07539b6e013c"},"period":{"start":"2022-10-19T00:00:00+00:00","end":"2022-10-24T00:00:00+00:00"}},"request":{"method":"POST","url":"Encounter"}},{"fullUrl":"Encounter/45474292-c7b2-4fe5-89fa-7fb695b8f69b","resource":{"resourceType":"Encounter","id":"45474292-c7b2-4fe5-89fa-7fb695b8f69b","status":"finished","class":{"system":"http://terminology.hl7.org/CodeSystem/v3-ActCode","code":"IMP","display":"inpatient encounter"},"type":[{"coding":[{"system":"http://terminology.hl7.org/CodeSystem/encounter-type","code":"BD/BM-clin"}]}],"subject":{"reference":"Patient/12add628-c7c6-4a1c-a346-07539b6e013c"},"period":{"start":"2022-12-26T00:00:00+00:00","end":"2022-12-31T00:00:00+00:00"}},"request":{"method":"POST","url":"Encounter"}},{"fullUrl":"Encounter/79b30e58-d066-4d7f-b569-2d6b4fd05845","resource":{"resourceType":"Encounter","id":"79b30e58-d066-4d7f-b569-2d6b4fd05845","status":"finished","class":{"system":"http://terminology.hl7.org/CodeSystem/v3-ActCode","code":"IMP","display":"inpatient encounter"},"type":[{"coding":[{"system":"http://terminology.hl7.org/CodeSystem/encounter-type","code":"OKI"}]}],"subject":{"reference":"Patient/12add628-c7c6-4a1c-a346-07539b6e013c"},"period":{"start":"2022-09-30T00:00:00+00:00","end":"2022-10-02T00:00:00+00:00"}},"request":{"method":"POST","url":"Encounter"}},{"fullUrl":"Encounter/b67a2153-3e35-4f6a-9982-3a501fc33dfd","resource":{"resourceType":"Encounter","id":"b67a2153-3e35-4f6a-9982-3a501fc33dfd","status":"finished","class":{"system":"http://terminology.hl7.org/CodeSystem/v3-ActCode","code":"NONAC","display":"inpatient non-acute"},"type":[{"coding":[{"system":"http://terminology.hl7.org/CodeSystem/encounter-type","code":"BD/BM-clin"}]}],"subject":{"reference":"Patient/12add628-c7c6-4a1c-a346-07539b6e013c"},"period":{"start":"2022-01-30T00:00:00+00:00","end":"2022-02-04T00:00:00+00:00"}},"request":{"method":"POST","url":"Encounter"}},{"fullUrl":"Encounter/eacf7bbb-e746-4db4-be0b-1d28294f3a1c","resource":{"resourceType":"Encounter","id":"eacf7bbb-e746-4db4-be0b-1d28294f3a1c","status":"finished","class":{"system":"http://terminology.hl7.org/CodeSystem/v3-ActCode","code":"HH","display":"home health"},"type":[{"coding":[{"system":"http://terminology.hl7.org/CodeSystem/encounter-type","code":"ADMS"}]}],"subject":{"reference":"Patient/12add628-c7c6-4a1c-a346-07539b6e013c"},"period":{"start":"2022-06-12T00:00:00+00:00","end":"2022-06-13T00:00:00+00:00"}},"request":{"method":"POST","url":"Encounter"}},{"fullUrl":"Encounter/950432f4-91b7-4c9e-a238-72c000d72f35","resource":{"resourceType":"Encounter","id":"950432f4-91b7-4c9e-a238-72c000d72f35","status":"finished","class":{"system":"http://terminology.hl7.org/CodeSystem/v3-ActCode","code":"IMP","display":"inpatient encounter"},"type":[{"coding":[{"system":"http://terminology.hl7.org/CodeSystem/encounter-type","code":"ADMS"}]}],"subject":{"reference":"Patient/12add628-c7c6-4a1c-a346-07539b6e013c"},"period":{"start":"2022-07-18T00:00:00+00:00","end":"2022-07-19T00:00:00+00:00"}},"request":{"method":"POST","url":"Encounter"}},{"fullUrl":"Location/ede26584-8753-40ed-9ef4-03b4eddbdd3d","resource":{"resourceType":"Location","id":"ede26584-8753-40ed-9ef4-03b4eddbdd3d","status":"active","name":"Foster Ltd","telecom":[{"system":"phone","value":"(070)045-5876x8708","use":"work"}],"address":{"use":"work","line":["951 Brown Greens Suite 235"],"city":"South Valerieview","state":"WA","postalCode":"43775"}},"request":{"method":"POST","url":"Location"}},{"fullUrl":"Observation/923b7d67-4361-4db3-a64f-34f1d68911b6","resource":{"resourceType":"Observation","id":"923b7d67-4361-4db3-a64f-34f1d68911b6","status":"final","code":{"coding":[{"system":"http://loinc.org","code":"81956-5"}]},"subject":{"reference":"Patient/12add628-c7c6-4a1c-a346-07539b6e013c"},"effectiveDateTime":"2022-08-24T00:00:00+00:00","valueDateTime":"2022-05-20T00:00:00+00:00"},"request":{"method":"POST","url":"Observation"}},{"fullUrl":"Patient/24a4b931-aed8-4749-8839-b648f5fe166a","resource":{"resourceType":"Patient","id":"24a4b931-aed8-4749-8839-b648f5fe166a","identifier":[{"type":{"coding":[{"system":"http://terminology.hl7.org/CodeSystem/v2-0203","code":"MR"}]},"system":"urn:fhirgen:mrn","value":"864-41-2956"}],"name":[{"use":"official","family":"Rodriguez","given":["Elizabeth"]},{"use":"maiden","family":"Williams"}],"telecom":[{"system":"phone","value":"850.234.8842","use":"home"},{"system":"email","value":"virginia69@hotmail.com","use":"work"}],"gender":"female","birthDate":"2002-05-04","address":[{"use":"home","line":["488 Friedman Lake"],"city":"South Elizabethmouth","state":"NH","postalCode":"16505"},{"use":"old","line":["258 Drake Fields"],"city":"South Michelle","state":"NE","postalCode":"02204"}]},"request":{"method":"POST","url":"Patient"}},{"fullUrl":"Observation/1a15c90f-c184-4c4e-87f9-4afd9ca1e775","resource":{"resourceType":"Observation","id":"1a15c90f-c184-4c4e-87f9-4afd9ca1e775","status":"final","code":{"coding":[{"system":"http://loinc.org","code":"34382-2"}]},"subject":{"reference":"Patient/24a4b931-aed8-4749-8839-b648f5fe166a"},"effectiveDateTime":"2022-06-22T00:00:00+00:00","valueRatio":{"numerator":{"value":1},"denominator":{"value":32}}},"request":{"method":"POST","url":"Observation"}},{"fullUrl":"Observation/f606d9ca-3e4e-4f25-8539-31aafee2048c","resource":{"resourceType":"Observation","id":"f606d9ca-3e4e-4f25-8539-31aafee2048c","status":"final","code":{"coding":[{"system":"http://loinc.org","code":"47476-7"}]},"subject":{"reference":"Patient/24a4b931-aed8-4749-8839-b648f5fe166a"},"effectiveDateTime":"2022-08-21T00:00:00+00:00","valueRatio":{"numerator":{"value":1},"denominator":{"value":64}}},"request":{"method":"POST","url":"Observation"}},{"fullUrl":"Condition/7938098e-9384-4341-b5d8-9268236eef00","resource":{"resourceType":"Condition","id":"7938098e-9384-4341-b5d8-9268236eef00","code":{"coding":[{"system":"http://snomed.info/sct","code":"21522001"}]},"subject":{"reference":"Patient/24a4b931-aed8-4749-8839-b648f5fe166a"},"onsetDateTime":"2022-10-16T00:00:00+00:00"},"request":{"method":"POST","url":"Condition"}},{"fullUrl":"Condition/e2407584-0d9a-4499-b05c-d2ecd2cb1e7f","resource":{"resourceType":"Condition","id":"e2407584-0d9a-4499-b05c-d2ecd2cb1e7f","code":{"coding":[{"system":"http://snomed.info/sct","code":"18165001"}]},"subject":{"reference":"Patient/24a4b931-aed8-4749-8839-b648f5fe166a"},"onsetDateTime":"2022-07-08T00:00:00+00:00"},"request":{"method":"POST","url":"Condition"}},{"fullUrl":"Condition/186c0673-50ae-40e0-9904-d08c4a4bd4c1","resource":{"resourceType":"Condition","id":"186c0673-50ae-40e0-9904-d08c4a4bd4c1","code":{"coding":[{"system":"http://snomed.info/sct","code":"21522001"}]},"subject":{"reference":"Patient/24a4b931-aed8-4749-8839-b648f5fe166a"},"onsetDateTime":"2022-09-23T00:00:00+00:00"},"request":{"method":"POST","url":"Condition"}},{"fullUrl":"Condition/f8e88123-59d1-4614-944d-d9c7844fd3f5","resource":{"resourceType":"Condition","id":"f8e88123-59d1-4614-944d-d9c7844fd3f5","code":{"coding":[{"system":"http://snomed.info/sct","code":"44882003"}]},"subject":{"reference":"Patient/24a4b931-aed8-4749-8839-b648f5fe166a"},"onsetDateTime":"2022-05-27T00:00:00+00:00"},"request":{"method":"POST","url":"Condition"}},{"fullUrl":"Observation/ab6b765a-0b45-4a26-adea-2cc35cdcd695","resource":{"resourceType":"Observation","id":"ab6b765a-0b45-4a26-adea-2cc35cdcd695","status":"final","code":{"coding":[{"system":"http://loinc.org","code":"6690-2"}]},"subject":{"reference":"Patient/24a4b931-aed8-4749-8839-b648f5fe166a"},"effectiveDateTime":"2022-07-30T00:00:00+00:00","valueQuantity":{"value":8.9}},"request":{"method":"POST","url":"Observation"}},{"fullUrl":"Observation/e81e64a7-4b0c-4e5d-b44d-4f1c25cd9caf","resource":{"resourceType":"Observation","id":"e81e64a7-4b0c-4e5d-b44d-4f1c25cd9caf","status":"final","code":{"coding":[{"system":"http://loinc.org","code":"49498-9"}]},"subject":{"reference":"Patient/24a4b931-aed8-4749-8839-b648f5fe166a"},"effectiveDateTime":"2022-03-08T00:00:00+00:00","valueQuantity":{"value":7.7}},"request":{"method":"POST","url":"Observation"}},{"fullUrl":"Observation/a3b22152-f2df-43a7-b96c-26776eea8465","resource":{"resourceType":"Observation","id":"a3b22152-f2df-43a7-b96c-26776eea8465","status":"final","code":{"coding":[{"system":"http://loinc.org","code":"49498-9"}]},"subject":{"reference":"Patient/24a4b931-aed8-4749-8839-b648f5fe166a"},"effectiveDateTime":"2022-12-21T00:00:00+00:00","valueCodeableConcept":{"coding":[{"system":"snomed","code":"123456","display":"fake snomed"}]}},"request":{"method":"POST","url":"Observation"}},{"fullUrl":"Observation/54df4a55-c026-45e6-b6a6-ba02141cf9d5","resource":{"resourceType":"Observation","id":"54df4a55-c026-45e6-b6a6-ba02141cf9d5","status":"final","code":{"coding":[{"system":"http://loinc.org","code":"6690-2"}]},"subject":{"reference":"Patient/24a4b931-aed8-4749-8839-b648f5fe166a"},"effectiveDateTime":"2022-10-12T00:00:00+00:00","valueCodeableConcept":{"coding":[{"system":"snomed","code":"123456","display":"fake snomed"}]}},"request":{"method":"POST","url":"Observation"}},{"fullUrl":"Observation/8bce7f7c-8f04-4da9-9872-3a822c3c9821","resource":{"resourceType":"Observation","id":"8bce7f7c-8f04-4da9-9872-3a822c3c9821","status":"final","code":{"coding":[{"system":"http://loinc.org","code":"26464-8"}]},"subject":{"reference":"Patient/24a4b931-aed8-4749-8839-b648f5fe166a"},"effectiveDateTime":"2022-11-12T00:00:00+00:00","valueCodeableConcept":{"coding":[{"system":"snomed","code":"123456","display":"fake snomed"}]}},"request":{"method":"POST","url":"Observation"}},{"fullUrl":"Observation/e8aa7d5a-89a6-48a1-88bc-6d371b818ddc","resource":{"resourceType":"Observation","id":"e8aa7d5a-89a6-48a1-88bc-6d371b818ddc","status":"final","code":{"coding":[{"system":"http://loinc.org","code":"49498-9"}]},"subject":{"reference":"Patient/24a4b931-aed8-4749-8839-b648f5fe166a"},"effectiveDateTime":"2022-07-29T00:00:00+00:00"},"request":{"method":"POST","url":"Observation"}},{"fullUrl":"Observation/c2bc8cbc-c0f6-4438-9078-fd695ea2af2c","resource":{"resourceType":"Observation","id":"c2bc8cbc-c0f6-4438-9078-fd695ea2af2c","status":"final","code":{"coding":[{"system":"http://loinc.org","code":"49498-9"}]},"subject":{"reference":"Patient/24a4b931-aed8-4749-8839-b648f5fe166a"},"effectiveDateTime":"2022-10-24T00:00:00+00:00"},"request":{"method":"POST","url":"Observation"}},{"fullUrl":"Procedure/3b4f4f9a-218d-4461-a5e4-6152ba156ef1","resource":{"resourceType":"Procedure","id":"3b4f4f9a-218d-4461-a5e4-6152ba156ef1","status":"completed","code":{"coding":[{"system":"http://snomed.info/sct","code":"104001"}]},"subject":{"reference":"Patient/24a4b931-aed8-4749-8839-b648f5fe166a"},"performedDateTime":"2022-06-08T00:00:00+00:00"},"request":{"method":"POST","url":"Procedure"}},{"fullUrl":"Procedure/4f3fb349-8352-4ddf-80dd-ced2f408ce61","resource":{"resourceType":"Procedure","id":"4f3fb349-8352-4ddf-80dd-ced2f408ce61","status":"completed","code":{"coding":[{"system":"http://snomed.info/sct","code":"104001"}]},"subject":{"reference":"Patient/24a4b931-aed8-4749-8839-b648f5fe166a"},"performedDateTime":"2022-11-29T00:00:00+00:00"},"request":{"method":"POST","url":"Procedure"}},{"fullUrl":"Procedure/cb287528-f25b-4a00-b5b9-771f89f330fd","resource":{"resourceType":"Procedure","id":"cb287528-f25b-4a00-b5b9-771f89f330fd","status":"completed","code":{"coding":[{"system":"http://snomed.info/sct","code":"647000"}]},"subject":{"reference":"Patient/24a4b931-aed8-4749-8839-b648f5fe166a"},"performedDateTime":"2022-10-10T00:00:00+00:00"},"request":{"method":"POST","url":"Procedure"}},{"fullUrl":"MedicationStatement/2086180e-502d-4699-a95b-8807cfae8e18","resource":{"resourceType":"MedicationStatement","id":"2086180e-502d-4699-a95b-8807cfae8e18","status":"completed","medicationCodeableConcept":{"coding":[{"system":"http://www.nlm.nih.gov/research/umls/rxnorm","code":"7984"}]},"subject":{"reference":"Patient/24a4b931-aed8-4749-8839-b648f5fe166a"},"effectiveDateTime":"2022-04-08T00:00:00+00:00","dosage":[{"doseAndRate":[{"doseQuantity":{"value":1,"unit":"TAB","system":"http://terminology.hl7.org/CodeSystem/v3-orderableDrugForm","code":"TAB"}}]}]},"request":{"method":"POST","url":"MedicationStatement"}},{"fullUrl":"MedicationStatement/7e43caa6-3283-4f9b-ba2f-61c1020fe868","resource":{"resourceType":"MedicationStatement","id":"7e43caa6-3283-4f9b-ba2f-61c1020fe868","status":"completed","medicationCodeableConcept":{"coding":[{"system":"http://www.nlm.nih.gov/research/umls/rxnorm","code":"3640"}]},"subject":{"reference":"Patient/24a4b931-aed8-4749-8839-b648f5fe166a"},"effectiveDateTime":"2022-11-19T00:00:00+00:00","dosage":[{"doseAndRate":[{"doseQuantity":{"value":1,"unit":"TAB","system":"http://terminology.hl7.org/CodeSystem/v3-orderableDrugForm","code":"TAB"}}]}]},"request":{"method":"POST","url":"MedicationStatement"}},{"fullUrl":"MedicationStatement/c19c86a9-650e-4610-85cc-95b7a3f11f1a","resource":{"resourceType":"MedicationStatement","id":"c19c86a9-650e-4610-85cc-95b7a3f11f1a","status":"completed","medicationCodeableConcept":{"coding":[{"system":"http://www.nlm.nih.gov/research/umls/rxnorm","code":"7984"}]},"subject":{"reference":"Patient/24a4b931-aed8-4749-8839-b648f5fe166a"},"effectiveDateTime":"2022-07-19T00:00:00+00:00","dosage":[{"doseAndRate":[{"doseQuantity":{"value":2,"unit":"TAB","system":"http://terminology.hl7.org/CodeSystem/v3-orderableDrugForm","code":"TAB"}}]}]},"request":{"method":"POST","url":"MedicationStatement"}},{"fullUrl":"MedicationStatement/05ffa60a-8560-40c5-9836-91bb2c7f3209","resource":{"resourceType":"MedicationStatement","id":"05ffa60a-8560-40c5-9836-91bb2c7f3209","status":"completed","medicationCodeableConcept":{"coding":[{"system":"http://www.nlm.nih.gov/research/umls/rxnorm","code":"10395"}]},"subject":{"reference":"Patient/24a4b931-aed8-4749-8839-b648f5fe166a"},"effectiveDateTime":"2022-01-13T00:00:00+00:00","dosage":[{"doseAndRate":[{"doseQuantity":{"value":3.4,"unit":"TAB","system":"http://terminology.hl7.org/CodeSystem/v3-orderableDrugForm","code":"TAB"}}]}]},"request":{"method":"POST","url":"MedicationStatement"}},{"fullUrl":"MedicationStatement/6ffb8ed8-4630-4861-90d9-17f702cc18e3","resource":{"resourceType":"MedicationStatement","id":"6ffb8ed8-4630-4861-90d9-17f702cc18e3","status":"completed","medicationCodeableConcept":{"coding":[{"system":"http://www.nlm.nih.gov/research/umls/rxnorm","code":"10395"}]},"subject":{"reference":"Patient/24a4b931-aed8-4749-8839-b648f5fe166a"},"effectiveDateTime":"2022-06-24T00:00:00+00:00","dosage":[{"doseAndRate":[{"doseQuantity":{"value":6.4,"unit":"TAB","system":"http://terminology.hl7.org/CodeSystem/v3-orderableDrugForm","code":"TAB"}}]}]},"request":{"method":"POST","url":"MedicationStatement"}},{"fullUrl":"MedicationStatement/f3563726-b3cf-4aa1-a8cb-77722542dd8d","resource":{"resourceType":"MedicationStatement","id":"f3563726-b3cf-4aa1-a8cb-77722542dd8d","status":"completed","medicationCodeableConcept":{"coding":[{"system":"http://www.nlm.nih.gov/research/umls/rxnorm","code":"8698"}]},"subject":{"reference":"Patient/24a4b931-aed8-4749-8839-b648f5fe166a"},"effectiveDateTime":"2022-07-31T00:00:00+00:00","dosage":[{"doseAndRate":[{"doseQuantity":{"value":5,"unit":"TAB","system":"http://terminology.hl7.org/CodeSystem/v3-orderableDrugForm","code":"TAB"}}]}]},"request":{"method":"POST","url":"MedicationStatement"}},{"fullUrl":"Encounter/cc403b4e-dab5-404a-be38-e843f2600f68","resource":{"resourceType":"Encounter","id":"cc403b4e-dab5-404a-be38-e843f2600f68","status":"finished","class":{"system":"http://terminology.hl7.org/CodeSystem/v3-ActCode","code":"IMP","display":"inpatient encounter"},"type":[{"coding":[{"system":"http://terminology.hl7.org/CodeSystem/encounter-type","code":"ADMS"}]}],"subject":{"reference":"Patient/24a4b931-aed8-4749-8839-b648f5fe166a"},"period":{"start":"2022-11-11T00:00:00+00:00","end":"2022-11-14T00:00:00+00:00"}},"request":{"method":"POST","url":"Encounter"}},{"fullUrl":"Encounter/ff538909-31d8-4af8-95bf-7545752c9b80","resource":{"resourceType":"Encounter","id":"ff538909-31d8-4af8-95bf-7545752c9b80","status":"finished","class":{"system":"http://terminology.hl7.org/CodeSystem/v3-ActCode","code":"IMP","display":"inpatient encounter"},"type":[{"coding":[{"system":"http://terminology.hl7.org/CodeSystem/encounter-type","code":"OKI"}]}],"subject":{"reference":"Patient/24a4b931-aed8-4749-8839-b648f5fe166a"},"period":{"start":"2022-08-31T00:00:00+00:00","end":"2022-09-07T00:00:00+00:00"}},"request":{"method":"POST","url":"Encounter"}},{"fullUrl":"Encounter/3e8e8e0b-f94c-4ee2-8dba-6e6dc0883fff","resource":{"resourceType":"Encounter","id":"3e8e8e0b-f94c-4ee2-8dba-6e6dc0883fff","status":"finished","class":{"system":"http://terminology.hl7.org/CodeSystem/v3-ActCode","code":"IMP","display":"inpatient encounter"},"type":[{"coding":[{"system":"http://terminology.hl7.org/CodeSystem/encounter-type","code":"BD/BM-clin"}]}],"subject":{"reference":"Patient/24a4b931-aed8-4749-8839-b648f5fe166a"},"period":{"start":"2022-11-09T00:00:00+00:00","end":"2022-11-14T00:00:00+00:00"}},"request":{"method":"POST","url":"Encounter"}},{"fullUrl":"Encounter/2c0f87ed-ef69-4010-8763-10f00a91b2a7","resource":{"resourceType":"Encounter","id":"2c0f87ed-ef69-4010-8763-10f00a91b2a7","status":"finished","class":{"system":"http://terminology.hl7.org/CodeSystem/v3-ActCode","code":"HH","display":"home health"},"type":[{"coding":[{"system":"http://terminology.hl7.org/CodeSystem/encounter-type","code":"OKI"}]}],"subject":{"reference":"Patient/24a4b931-aed8-4749-8839-b648f5fe166a"},"period":{"start":"2022-07-16T00:00:00+00:00","end":"2022-07-19T00:00:00+00:00"}},"request":{"method":"POST","url":"Encounter"}},{"fullUrl":"Encounter/4a6a5f6b-4f03-4e5a-a787-87bf816795ee","resource":{"resourceType":"Encounter","id":"4a6a5f6b-4f03-4e5a-a787-87bf816795ee","status":"finished","class":{"system":"http://terminology.hl7.org/CodeSystem/v3-ActCode","code":"ACUTE","display":"inpatient acute"},"type":[{"coding":[{"system":"http://terminology.hl7.org/CodeSystem/encounter-type","code":"CCS60"}]}],"subject":{"reference":"Patient/24a4b931-aed8-4749-8839-b648f5fe166a"},"period":{"start":"2022-12-16T00:00:00+00:00","end":"2022-12-24T00:00:00+00:00"}},"request":{"method":"POST","url":"Encounter"}},{"fullUrl":"Encounter/408c5dca-c955-474b-9bad-aa2b83aaa30d","resource":{"resourceType":"Encounter","id":"408c5dca-c955-474b-9bad-aa2b83aaa30d","status":"finished","class":{"system":"http://terminology.hl7.org/CodeSystem/v3-ActCode","code":"PRENC","display":"pre-admission"},"type":[{"coding":[{"system":"http://terminology.hl7.org/CodeSystem/encounter-type","code":"BD/BM-clin"}]}],"subject":{"reference":"Patient/24a4b931-aed8-4749-8839-b648f5fe166a"},"period":{"start":"2022-12-22T00:00:00+00:00","end":"2022-12-30T00:00:00+00:00"}},"request":{"method":"POST","url":"Encounter"}},{"fullUrl":"Location/9cb53dfe-1d7b-441a-95c4-8ea7ea917114","resource":{"resourceType":"Location","id":"9cb53dfe-1d7b-441a-95c4-8ea7ea917114","status":"active","name":"Stewart, Gonzalez and Lindsey","telecom":[{"system":"phone","value":"302.967.4619x8533","use":"home"}],"address":{"use":"work","line":["3144 Jennifer Drive"],"city":"Hessborough","state":"HI","postalCode":"23185"}},"request":{"method":"POST","url":"Location"}},{"fullUrl":"Observation/dbf1f7db-871f-450b-aacf-8acc9aa72d22","resource":{"resourceType":"Observation","id":"dbf1f7db-871f-450b-aacf-8acc9aa72d22","status":"final","code":{"coding":[{"system":"http://loinc.org","code":"81956-5"}]},"subject":{"reference":"Patient/24a4b931-aed8-4749-8839-b648f5fe166a"},"effectiveDateTime":"2022-05-24T00:00:00+00:00","valueDateTime":"2022-03-26T00:00:00+00:00"},"request":{"method":"POST","url":"Observation"}},{"fullUrl":"Patient/c0f464eb-88c7-4c6d-8461-33a0ef498d47","resource":{"resourceType":"Patient","id":"c0f464eb-88c7-4c6d-8461-33a0ef498d47","identifier":[{"type":{"coding":[{"system":"http://terminology.hl7.org/CodeSystem/v2-0203","code":"MR"}]},"system":"urn:fhirgen:mrn","value":"136-76-3267"}],"name":[{"use":"official","family":"Hampton","given":["Jason"]},{"use":"maiden","family":"Norton"}],"telecom":[{"system":"phone","value":"811-243-4229x982","use":"home"},{"system":"email","value":"campbellchelsea@hotmail.com","use":"mobile"}],"gender":"other","birthDate":"1982-03-25","address":[{"use":"home","line":["243 Richardson Harbors Apt. 855"],"city":"Beckyburgh","state":"RI","postalCode":"36069"},{"use":"old","line":["024 Bridget Row"],"city":"Terrellstad","state":"IN","postalCode":"23868"}]},"request":{"method":"POST","url":"Patient"}},{"fullUrl":"Observation/20c9f568-d6d2-4324-b95a-48856efa57be","resource":{"resourceType":"Observation","id":"20c9f568-d6d2-4324-b95a-48856efa57be","status":"final","code":{"coding":[{"system":"http://loinc.org","code":"47476-7"}]},"subject":{"reference":"Patient/c0f464eb-88c7-4c6d-8461-33a0ef498d47"},"effectiveDateTime":"2022-12-11T00:00:00+00:00","valueRatio":{"numerator":{"value":1},"denominator":{"value":32}}},"request":{"method":"POST","url":"Observation"}},{"fullUrl":"Observation/10622adb-707c-490c-a289-3cea8a159cd8","resource":{"resourceType":"Observation","id":"10622adb-707c-490c-a289-3cea8a159cd8","status":"final","code":{"coding":[{"system":"http://loinc.org","code":"50690-7"}]},"subject":{"reference":"Patient/c0f464eb-88c7-4c6d-8461-33a0ef498d47"},"effectiveDateTime":"2022-07-01T00:00:00+00:00","valueRatio":{"numerator":{"value":1},"denominator":{"value":4}}},"request":{"method":"POST","url":"Observation"}},{"fullUrl":"Observation/0de08117-817f-4773-a1db-95403c5ba229","resource":{"resourceType":"Observation","id":"0de08117-817f-4773-a1db-95403c5ba229","status":"final","code":{"coding":[{"system":"http://loinc.org","code":"34382-2"}]},"subject":{"reference":"Patient/c0f464eb-88c7-4c6d-8461-33a0ef498d47"},"effectiveDateTime":"2022-09-19T00:00:00+00:00","valueRatio":{"numerator":{"value":1},"denominator":{"value":64}}},"request":{"method":"POST","url":"Observation"}},{"fullUrl":"Condition/eb04b20d-d058-4dd5-9c8a-7860a10c6247","resource":{"resourceType":"Condition","id":"eb04b20d-d058-4dd5-9c8a-7860a10c6247","code":{"coding":[{"system":"http://snomed.info/sct","code":"405737000"}]},"subject":{"reference":"Patient/c0f464eb-88c7-4c6d-8461-33a0ef498d47"},"onsetDateTime":"2022-02-04T00:00:00+00:00"},"request":{"method":"POST","url":"Condition"}},{"fullUrl":"Condition/58141ce3-2b12-4676-97ee-d6430a94cf40","resource":{"resourceType":"Condition","id":"58141ce3-2b12-4676-97ee-d6430a94cf40","code":{"coding":[{"system":"http://snomed.info/sct","code":"271807003"}]},"subject":{"reference":"Patient/c0f464eb-88c7-4c6d-8461-33a0ef498d47"},"onsetDateTime":"2022-10-05T00:00:00+00:00"},"request":{"method":"POST","url":"Condition"}},{"fullUrl":"Condition/87e45e43-e2fb-45e8-8ae8-ad8ca7c6190d","resource":{"resourceType":"Condition","id":"87e45e43-e2fb-45e8-8ae8-ad8ca7c6190d","code":{"coding":[{"system":"http://snomed.info/sct","code":"56317004"}]},"subject":{"reference":"Patient/c0f464eb-88c7-4c6d-8461-33a0ef498d47"},"onsetDateTime":"2022-07-29T00:00:00+00:00"},"request":{"method":"POST","url":"Condition"}},{"fullUrl":"Condition/0ccd3ca8-f649-40f4-932c-7af625084dc4","resource":{"resourceType":"Condition","id":"0ccd3ca8-f649-40f4-932c-7af625084dc4","code":{"coding":[{"system":"http://snomed.info/sct","code":"44882003"}]},"subject":{"reference":"Patient/c0f464eb-88c7-4c6d-8461-33a0ef498d47"},"onsetDateTime":"2022-04-03T00:00:00+00:00"},"request":{"method":"POST","url":"Condition"}},{"fullUrl":"Condition/038a3594-d43c-459b-9706-00d5abc2dc24","resource":{"resourceType":"Condition","id":"038a3594-d43c-459b-9706-00d5abc2dc24","code":{"coding":[{"system":"http://snomed.info/sct","code":"31070006"}]},"subject":{"reference":"Patient/c0f464eb-88c7-4c6d-8461-33a0ef498d47"},"onsetDateTime":"2022-09-28T00:00:00+00:00"},"request":{"method":"POST","url":"Condition"}},{"fullUrl":"Condition/283c79e3-6ac7-46ba-8e61-e46cebba5041","resource":{"resourceType":"Condition","id":"283c79e3-6ac7-46ba-8e61-e46cebba5041","code":{"coding":[{"system":"http://snomed.info/sct","code":"271939006"}]},"subject":{"reference":"Patient/c0f464eb-88c7-4c6d-8461-33a0ef498d47"},"onsetDateTime":"2022-05-13T00:00:00+00:00"},"request":{"method":"POST","url":"Condition"}},{"fullUrl":"Condition/7273651c-173b-43bf-937a-002ea43a957f","resource":{"resourceType":"Condition","id":"7273651c-173b-43bf-937a-002ea43a957f","code":{"coding":[{"system":"http://snomed.info/sct","code":"44882003"}]},"subject":{"reference":"Patient/c0f464eb-88c7-4c6d-8461-33a0ef498d47"},"onsetDateTime":"2022-01-07T00:00:00+00:00"},"request":{"method":"POST","url":"Condition"}},{"fullUrl":"Observation/4ecae2d4-da4f-4de8-8aa9-fd8187f33c65","resource":{"resourceType":"Observation","id":"4ecae2d4-da4f-4de8-8aa9-fd8187f33c65","status":"final","code":{"coding":[{"system":"http://loinc.org","code":"49498-9"}]},"subject":{"reference":"Patient/c0f464eb-88c7-4c6d-8461-33a0ef498d47"},"effectiveDateTime":"2022-04-26T00:00:00+00:00","valueQuantity":{"value":6.4}},"request":{"method":"POST","url":"Observation"}},{"fullUrl":"Observation/68403e8d-d2bc-4191-8af4-db5829ad9038","resource":{"resourceType":"Observation","id":"68403e8d-d2bc-4191-8af4-db5829ad9038","status":"final","code":{"coding":[{"system":"http://loinc.org","code":"49498-9"}]},"subject":{"reference":"Patient/c0f464eb-88c7-4c6d-8461-33a0ef498d47"},"effectiveDateTime":"2022-05-29T00:00:00+00:00","valueQuantity":{"value":6.9}},"request":{"method":"POST","url":"Observation"}},{"fullUrl":"Observation/b1bb2c94-2170-4ba7-a489-d6708688637d","resource":{"resourceType":"Observation","id":"b1bb2c94-2170-4ba7-a489-d6708688637d","status":"final","code":{"coding":[{"system":"http://loinc.org","code":"6690-2"}]},"subject":{"reference":"Patient/c0f464eb-88c7-4c6d-8461-33a0ef498d47"},"effectiveDateTime":"2022-05-10T00:00:00+00:00","valueQuantity":{"value":8.5}},"request":{"method":"POST","url":"Observation"}},{"fullUrl":"Observation/3c37516a-df4b-4b24-8269-c358d384b598","resource":{"resourceType":"Observation","id":"3c37516a-df4b-4b24-8269-c358d384b598","status":"final","code":{"coding":[{"system":"http://loinc.org","code":"804-5"}]},"subject":{"reference":"Patient/c0f464eb-88c7-4c6d-8461-33a0ef498d47"},"effectiveDateTime":"2022-12-26T00:00:00+00:00","valueCodeableConcept":{"coding":[{"system":"snomed","code":"123456","display":"fake snomed"}]}},"request":{"method":"POST","url":"Observation"}},{"fullUrl":"Observation/23ae7364-25b0-4e4b-8b57-29a323fdd9e4","resource":{"resourceType":"Observation","id":"23ae7364-25b0-4e4b-8b57-29a323fdd9e4","status":"final","code":{"coding":[{"system":"http://loinc.org","code":"49498-9"}]},"subject":{"reference":"Patient/c0f464eb-88c7-4c6d-8461-33a0ef498d47"},"effectiveDateTime":"2022-07-18T00:00:00+00:00","valueCodeableConcept":{"coding":[{"system":"snomed","code":"123456","display":"fake snomed"}]}},"request":{"method":"POST","url":"Observation"}},{"fullUrl":"Observation/7ef86dd5-5839-4872-8133-dfc4b0d33743","resource":{"resourceType":"Observation","id":"7ef86dd5-5839-4872-8133-dfc4b0d33743","status":"final","code":{"coding":[{"system":"http://www.ama-assn.org/go/cpt","code":"85048"}]},"subject":{"reference":"Patient/c0f464eb-88c7-4c6d-8461-33a0ef498d47"},"effectiveDateTime":"2022-02-04T00:00:00+00:00","valueCodeableConcept":{"coding":[{"system":"snomed","code":"123456","display":"fake snomed"}]}},"request":{"method":"POST","url":"Observation"}},{"fullUrl":"Observation/991bc944-3fc6-4a0d-a370-ed9326f77724","resource":{"resourceType":"Observation","id":"991bc944-3fc6-4a0d-a370-ed9326f77724","status":"final","code":{"coding":[{"system":"http://loinc.org","code":"49498-9"}]},"subject":{"reference":"Patient/c0f464eb-88c7-4c6d-8461-33a0ef498d47"},"effectiveDateTime":"2022-08-07T00:00:00+00:00"},"request":{"method":"POST","url":"Observation"}},{"fullUrl":"Observation/690fac11-fbcb-4a11-ba43-a46c7d49a66d","resource":{"resourceType":"Observation","id":"690fac11-fbcb-4a11-ba43-a46c7d49a66d","status":"final","code":{"coding":[{"system":"http://loinc.org","code":"49498-9"}]},"subject":{"reference":"Patient/c0f464eb-88c7-4c6d-8461-33a0ef498d47"},"effectiveDateTime":"2022-01-04T00:00:00+00:00"},"request":{"method":"POST","url":"Observation"}},{"fullUrl":"Observation/5d0e5acc-d0c6-4ba2-9f75-6b9e6533a224","resource":{"resourceType":"Observation","id":"5d0e5acc-d0c6-4ba2-9f75-6b9e6533a224","status":"final","code":{"coding":[{"system":"http://loinc.org","code":"49498-9"}]},"subject":{"reference":"Patient/c0f464eb-88c7-4c6d-8461-33a0ef498d47"},"effectiveDateTime":"2022-03-23T00:00:00+00:00"},"request":{"method":"POST","url":"Observation"}},{"fullUrl":"Procedure/41d3ad0f-f1bd-4809-9c5e-53f7d1815c7c","resource":{"resourceType":"Procedure","id":"41d3ad0f-f1bd-4809-9c5e-53f7d1815c7c","status":"completed","code":{"coding":[{"system":"http://snomed.info/sct","code":"115006"}]},"subject":{"reference":"Patient/c0f464eb-88c7-4c6d-8461-33a0ef498d47"},"performedDateTime":"2022-10-21T00:00:00+00:00"},"request":{"method":"POST","url":"Procedure"}},{"fullUrl":"Procedure/28d5df03-97d9-4012-a175-110cf542e7ca","resource":{"resourceType":"Procedure","id":"28d5df03-97d9-4012-a175-110cf542e7ca","status":"completed","code":{"coding":[{"system":"http://snomed.info/sct","code":"104001"}]},"subject":{"reference":"Patient/c0f464eb-88c7-4c6d-8461-33a0ef498d47"},"performedDateTime":"2022-12-15T00:00:00+00:00"},"request":{"method":"POST","url":"Procedure"}},{"fullUrl":"Procedure/31e0370a-f7af-430e-b772-e090b588fbcc","resource":{"resourceType":"Procedure","id":"31e0370a-f7af-430e-b772-e090b588fbcc","status":"completed","code":{"coding":[{"system":"http://snomed.info/sct","code":"104001"}]},"subject":{"reference":"Patient/c0f464eb-88c7-4c6d-8461-33a0ef498d47"},"performedDateTime":"2022-06-14T00:00:00+00:00"},"request":{"method":"POST","url":"Procedure"}},{"fullUrl":"MedicationStatement/0790b207-5652-417b-b1f4-90c9f8761c3c","resource":{"resourceType":"MedicationStatement","id":"0790b207-5652-417b-b1f4-90c9f8761c3c","status":"completed","medicationCodeableConcept":{"coding":[{"system":"http://www.nlm.nih.gov/research/umls/rxnorm","code":"3640"}]},"subject":{"reference":"Patient/c0f464eb-88c7-4c6d-8461-33a0ef498d47"},"effectiveDateTime":"2022-03-06T00:00:00+00:00","dosage":[{"doseAndRate":[{"doseQuantity":{"value":2,"unit":"TAB","system":"http://terminology.hl7.org/CodeSystem/v3-orderableDrugForm","code":"TAB"}}]}]},"request":{"method":"POST","url":"MedicationStatement"}},{"fullUrl":"MedicationStatement/0c7d2297-1a9c-466d-804c-10f92d26e53e","resource":{"resourceType":"MedicationStatement","id":"0c7d2297-1a9c-466d-804c-10f92d26e53e","status":"completed","medicationCodeableConcept":{"coding":[{"system":"http://www.nlm.nih.gov/research/umls/rxnorm","code":"18631"}]},"subject":{"reference":"Patient/c0f464eb-88c7-4c6d-8461-33a0ef498d47"},"effectiveDateTime":"2022-02-09T00:00:00+00:00","dosage":[{"doseAndRate":[{"doseQuantity":{"value":2,"unit":"TAB","system":"http://terminology.hl7.org/CodeSystem/v3-orderableDrugForm","code":"TAB"}}]}]},"request":{"method":"POST","url":"MedicationStatement"}},{"fullUrl":"MedicationStatement/dae9da1e-3163-43e7-a302-da67e591b4ca","resource":{"resourceType":"MedicationStatement","id":"dae9da1e-3163-43e7-a302-da67e591b4ca","status":"completed","medicationCodeableConcept":{"coding":[{"system":"http://www.nlm.nih.gov/research/umls/rxnorm","code":"8698"}]},"subject":{"reference":"Patient/c0f464eb-88c7-4c6d-8461-33a0ef498d47"},"effectiveDateTime":"2022-01-27T00:00:00+00:00","dosage":[{"doseAndRate":[{"doseQuantity":{"value":1,"unit":"TAB","system":"http://terminology.hl7.org/CodeSystem/v3-orderableDrugForm","code":"TAB"}}]}]},"request":{"method":"POST","url":"MedicationStatement"}},{"fullUrl":"MedicationStatement/7c54c9f8-0d80-47b8-a863-8af826a97145","resource":{"resourceType":"MedicationStatement","id":"7c54c9f8-0d80-47b8-a863-8af826a97145","status":"completed","medicationCodeableConcept":{"coding":[{"system":"http://www.nlm.nih.gov/research/umls/rxnorm","code":"2193"}]},"subject":{"reference":"Patient/c0f464eb-88c7-4c6d-8461-33a0ef498d47"},"effectiveDateTime":"2022-01-21T00:00:00+00:00","dosage":[{"doseAndRate":[{"doseQuantity":{"value":2,"unit":"TAB","system":"http://terminology.hl7.org/CodeSystem/v3-orderableDrugForm","code":"TAB"}}]}]},"request":{"method":"POST","url":"MedicationStatement"}},{"fullUrl":"MedicationStatement/23ef0dfa-dd09-47e2-a63e-a7aa1df3db79","resource":{"resourceType":"MedicationStatement","id":"23ef0dfa-dd09-47e2-a63e-a7aa1df3db79","status":"completed","medicationCodeableConcept":{"coding":[{"system":"http://www.nlm.nih.gov/research/umls/rxnorm","code":"7984"}]},"subject":{"reference":"Patient/c0f464eb-88c7-4c6d-8461-33a0ef498d47"},"effectiveDateTime":"2022-02-26T00:00:00+00:00","dosage":[{"doseAndRate":[{"doseQuantity":{"value":5.8,"unit":"TAB","system":"http://terminology.hl7.org/CodeSystem/v3-orderableDrugForm","code":"TAB"}}]}]},"request":{"method":"POST","url":"MedicationStatement"}},{"fullUrl":"MedicationStatement/5147b379-08a4-48e2-a25c-ed46067e5a1f","resource":{"resourceType":"MedicationStatement","id":"5147b379-08a4-48e2-a25c-ed46067e5a1f","status":"completed","medicationCodeableConcept":{"coding":[{"system":"http://www.nlm.nih.gov/research/umls/rxnorm","code":"3640"}]},"subject":{"reference":"Patient/c0f464eb-88c7-4c6d-8461-33a0ef498d47"},"effectiveDateTime":"2022-06-01T00:00:00+00:00","dosage":[{"doseAndRate":[{"doseQuantity":{"value":3.2,"unit":"TAB","system":"http://terminology.hl7.org/CodeSystem/v3-orderableDrugForm","code":"TAB"}}]}]},"request":{"method":"POST","url":"MedicationStatement"}},{"fullUrl":"MedicationStatement/9f25e649-50ef-43bf-995f-cf4b58de5245","resource":{"resourceType":"MedicationStatement","id":"9f25e649-50ef-43bf-995f-cf4b58de5245","status":"completed","medicationCodeableConcept":{"coding":[{"system":"http://www.nlm.nih.gov/research/umls/rxnorm","code":"7984"}]},"subject":{"reference":"Patient/c0f464eb-88c7-4c6d-8461-33a0ef498d47"},"effectiveDateTime":"2022-05-04T00:00:00+00:00","dosage":[{"doseAndRate":[{"doseQuantity":{"value":6.2,"unit":"TAB","system":"http://terminology.hl7.org/CodeSystem/v3-orderableDrugForm","code":"TAB"}}]}]},"request":{"method":"POST","url":"MedicationStatement"}},{"fullUrl":"MedicationStatement/f4b5fe35-b79e-4606-8466-8e02f1494083","resource":{"resourceType":"MedicationStatement","id":"f4b5fe35-b79e-4606-8466-8e02f1494083","status":"completed","medicationCodeableConcept":{"coding":[{"system":"http://www.nlm.nih.gov/research/umls/rxnorm","code":"7984"}]},"subject":{"reference":"Patient/c0f464eb-88c7-4c6d-8461-33a0ef498d47"},"effectiveDateTime":"2022-11-12T00:00:00+00:00","dosage":[{"doseAndRate":[{"doseQuantity":{"value":4.3,"unit":"TAB","system":"http://terminology.hl7.org/CodeSystem/v3-orderableDrugForm","code":"TAB"}}]}]},"request":{"method":"POST","url":"MedicationStatement"}},{"fullUrl":"MedicationStatement/bd64f9af-7631-42f4-bf70-c9691cdfed76","resource":{"resourceType":"MedicationStatement","id":"bd64f9af-7631-42f4-bf70-c9691cdfed76","status":"completed","medicationCodeableConcept":{"coding":[{"system":"http://www.nlm.nih.gov/research/umls/rxnorm","code":"7984"}]},"subject":{"reference":"Patient/c0f464eb-88c7-4c6d-8461-33a0ef498d47"},"effectiveDateTime":"2022-04-04T00:00:00+00:00","dosage":[{"doseAndRate":[{"doseQuantity":{"value":4,"unit":"TAB","system":"http://terminology.hl7.org/CodeSystem/v3-orderableDrugForm","code":"TAB"}}]}]},"request":{"method":"POST","url":"MedicationStatement"}},{"fullUrl":"Encounter/e526e9f8-5657-4c10-abf5-a6dbc8008f1d","resource":{"resourceType":"Encounter","id":"e526e9f8-5657-4c10-abf5-a6dbc8008f1d","status":"finished","class":{"system":"http://terminology.hl7.org/CodeSystem/v3-ActCode","code":"IMP","display":"inpatient encounter"},"type":[{"coding":[{"system":"http://terminology.hl7.org/CodeSystem/encounter-type","code":"ADMS"}]}],"subject":{"reference":"Patient/c0f464eb-88c7-4c6d-8461-33a0ef498d47"},"period":{"start":"2022-05-22T00:00:00+00:00","end":"2022-05-26T00:00:00+00:00"}},"request":{"method":"POST","url":"Encounter"}},{"fullUrl":"Encounter/ab0a5c4b-79af-400f-827a-116980299fed","resource":{"resourceType":"Encounter","id":"ab0a5c4b-79af-400f-827a-116980299fed","status":"finished","class":{"system":"http://terminology.hl7.org/CodeSystem/v3-ActCode","code":"IMP","display":"inpatient encounter"},"type":[{"coding":[{"system":"http://terminology.hl7.org/CodeSystem/encounter-type","code":"CCS60"}]}],"subject":{"reference":"Patient/c0f464eb-88c7-4c6d-8461-33a0ef498d47"},"period":{"start":"2022-05-10T00:00:00+00:00","end":"2022-05-10T00:00:00+00:00"}},"request":{"method":"POST","url":"Encounter"}},{"fullUrl":"Encounter/902e3807-c549-4c9d-aed8-ca9e3566f45a","resource":{"resourceType":"Encounter","id":"902e3807-c549-4c9d-aed8-ca9e3566f45a","status":"finished","class":{"system":"http://terminology.hl7.org/CodeSystem/v3-ActCode","code":"FLD","display":"field"},"type":[{"coding":[{"system":"http://terminology.hl7.org/CodeSystem/encounter-type","code":"CCS60"}]}],"subject":{"reference":"Patient/c0f464eb-88c7-4c6d-8461-33a0ef498d47"},"period":{"start":"2022-04-19T00:00:00+00:00","end":"2022-04-24T00:00:00+00:00"}},"request":{"method":"POST","url":"Encounter"}},{"fullUrl":"Encounter/fd40a5fc-f6a9-4aa0-bfa3-25a3aa2384a1","resource":{"resourceType":"Encounter","id":"fd40a5fc-f6a9-4aa0-bfa3-25a3aa2384a1","status":"finished","class":{"system":"http://terminology.hl7.org/CodeSystem/v3-ActCode","code":"VR","display":"virtual"},"type":[{"coding":[{"system":"http://terminology.hl7.org/CodeSystem/encounter-type","code":"CCS60"}]}],"subject":{"reference":"Patient/c0f464eb-88c7-4c6d-8461-33a0ef498d47"},"period":{"start":"2022-09-27T00:00:00+00:00","end":"2022-10-04T00:00:00+00:00"}},"request":{"method":"POST","url":"Encounter"}},{"fullUrl":"Encounter/8e2c2cff-bf93-44fa-a75d-604fb1dbc442","resource":{"resourceType":"Encounter","id":"8e2c2cff-bf93-44fa-a75d-604fb1dbc442","status":"finished","class":{"system":"http://terminology.hl7.org/CodeSystem/v3-ActCode","code":"NONAC","display":"inpatient non-acute"},"type":[{"coding":[{"system":"http://terminology.hl7.org/CodeSystem/encounter-type","code":"OKI"}]}],"subject":{"reference":"Patient/c0f464eb-88c7-4c6d-8461-33a0ef498d47"},"period":{"start":"2022-02-10T00:00:00+00:00","end":"2022-02-15T00:00:00+00:00"}},"request":{"method":"POST","url":"Encounter"}},{"fullUrl":"Location/e813c5f6-546a-4655-9278-3f24c6ec4aa0","resource":{"resourceType":"Location","id":"e813c5f6-546a-4655-9278-3f24c6ec4aa0","status":"active","name":"Ho Inc","telecom":[{"system":"phone","value":"891-584-6700","use":"work"}],"address":{"use":"work","line":["9556 Odom Courts Apt. 661"],"city":"New Wanda","state":"WV","postalCode":"20071"}},"request":{"method":"POST","url":"Location"}},{"fullUrl":"Observation/9f888cc7-ac47-4650-bcb8-270f735b8c92","resource":{"resourceType":"Observation","id":"9f888cc7-ac47-4650-bcb8-270f735b8c92","status":"final","code":{"coding":[{"system":"http://loinc.org","code":"81956-5"}]},"subject":{"reference":"Patient/c0f464eb-88c7-4c6d-8461-33a0ef498d47"},"effectiveDateTime":"2022-11-12T00:00:00+00:00","valueDateTime":"2022-10-30T00:00:00+00:00"},"request":{"method":"POST","url":"Observation"}}]}