{"resourceType":"Bundle","id":"9eecb4a8-67f9-4c0e-92a7-d0c4cb55aa29","type":"transaction","entry":[{"fullUrl":"Patient/077d44ac-041f-4f87-9749-54bc8226058d","resource":{"resourceType":"Patient","id":"077d44ac-041f-4f87-9749-54bc8226058d","identifier":[{"type":{"coding":[{"system":"http://terminology.hl7.org/CodeSystem/v2-0203","code":"MR"}]},"system":"urn:fhirgen:mrn","value":"620-08-9123"}],"name":[{"family":"Moreno","given":["Karl"]}],"gender":"male","birthDate":"1998-05-04","address":[{"line":["06731 Wells Loaf"],"city":"New Jameshaven","state":"California"}]},"request":{"method":"POST","url":"Patient"}},{"fullUrl":"Observation/9e580442-dfdf-4f7f-892b-f6e90a494888","resource":{"resourceType":"Observation","id":"9e580442-dfdf-4f7f-892b-f6e90a494888","status":"final","code":{"coding":[{"system":"http://loinc.org","code":"46203-6"}]},"subject":{"reference":"Patient/077d44ac-041f-4f87-9749-54bc8226058d"},"effectiveDateTime":"2022-04-30T00:00:00+00:00","valueRatio":{"numerator":{"value":1.0},"denominator":{"value":64.0}}},"request":{"method":"POST","url":"Observation"}},{"fullUrl":"Observation/6d8607ef-081a-484d-938d-530f5faa6a4b","resource":{"resourceType":"Observation","id":"6d8607ef-081a-484d-938d-530f5faa6a4b","status":"final","code":{"coding":[{"system":"http://loinc.org","code":"5394-2"}]},"subject":{"reference":"Patient/077d44ac-041f-4f87-9749-54bc8226058d"},"effectiveDateTime":"2022-07-03T00:00:00+00:00","valueRatio":{"numerator":{"value":1.0},"denominator":{"value":32.0}}},"request":{"method":"POST","url":"Observation"}},{"fullUrl":"Observation/3ed8b4f4-bb7d-4dd4-8355-df1a56b9544a","resource":{"resourceType":"Observation","id":"3ed8b4f4-bb7d-4dd4-8355-df1a56b9544a","status":"final","code":{"coding":[{"system":"http://loinc.org","code":"47235-7"}]},"subject":{"reference":"Patient/077d44ac-041f-4f87-9749-54bc8226058d"},"effectiveDateTime":"2022-03-19T00:00:00+00:00","valueRatio":{"numerator":{"value":1.0},"denominator":{"value":32.0}}},"request":{"method":"POST","url":"Observation"}},{"fullUrl":"Condition/5573c739-7e18-45b8-87de-e6e36f78198c","resource":{"resourceType":"Condition","id":"5573c739-7e18-45b8-87de-e6e36f78198c","code":{"coding":[{"system":"http://snomed.info/sct","code":"3951002"}]},"subject":{"reference":"Patient/077d44ac-041f-4f87-9749-54bc8226058d"},"onsetDateTime":"2022-12-28T00:00:00+00:00"},"request":{"method":"POST","url":"Condition"}},{"fullUrl":"Condition/c34d68ce-8fe6-4d1e-82f1-ab31bc547229","resource":{"resourceType":"Condition","id":"c34d68ce-8fe6-4d1e-82f1-ab31bc547229","code":{"coding":[{"system":"http://snomed.info/sct","code":"91554004"}]},"subject":{"reference":"Patient/077d44ac-041f-4f87-9749-54bc8226058d"},"onsetDateTime":"2022-09-07T00:00:00+00:00"},"request":{"method":"POST","url":"Condition"}},{"fullUrl":"Condition/7360b1e0-23d7-4960-bacc-dfc7a0009d26","resource":{"resourceType":"Condition","id":"7360b1e0-23d7-4960-bacc-dfc7a0009d26","code":{"coding":[{"system":"http://snomed.info/sct","code":"18165001"}]},"subject":{"reference":"Patient/077d44ac-041f-4f87-9749-54bc8226058d"},"onsetDateTime":"2022-08-28T00:00:00+00:00"},"request":{"method":"POST","url":"Condition"}},{"fullUrl":"Condition/dca9a5e8-ecee-4580-b02d-93fd07a0d8a2","resource":{"resourceType":"Condition","id":"dca9a5e8-ecee-4580-b02d-93fd07a0d8a2","code":{"coding":[{"system":"http://snomed.info/sct","code":"271807003"}]},"subject":{"reference":"Patient/077d44ac-041f-4f87-9749-54bc8226058d"},"onsetDateTime":"2022-02-07T00:00:00+00:00"},"request":{"method":"POST","url":"Condition"}},{"fullUrl":"Condition/59f5e799-45d6-46e9-8206-6bad157d8559","resource":{"resourceType":"Condition","id":"59f5e799-45d6-46e9-8206-6bad157d8559","code":{"coding":[{"system":"http://snomed.info/sct","code":"386661006"}]},"subject":{"reference":"Patient/077d44ac-041f-4f87-9749-54bc8226058d"},"onsetDateTime":"2022-11-02T00:00:00+00:00"},"request":{"method":"POST","url":"Condition"}},{"fullUrl":"Condition/9457dece-7407-42c8-9c3f-9bed3269a903","resource":{"resourceType":"Condition","id":"9457dece-7407-42c8-9c3f-9bed3269a903","code":{"coding":[{"system":"http://snomed.info/sct","code":"271807003"}]},"subject":{"reference":"Patient/077d44ac-041f-4f87-9749-54bc8226058d"},"onsetDateTime":"2022-03-24T00:00:00+00:00"},"request":{"method":"POST","url":"Condition"}},{"fullUrl":"Condition/f0c73631-a628-472a-b27a-96717e7b291b","resource":{"resourceType":"Condition","id":"f0c73631-a628-472a-b27a-96717e7b291b","code":{"coding":[{"system":"http://snomed.info/sct","code":"297123002"}]},"subject":{"reference":"Patient/077d44ac-041f-4f87-9749-54bc8226058d"},"onsetDateTime":"2022-02-06T00:00:00+00:00"},"request":{"method":"POST","url":"Condition"}},{"fullUrl":"Condition/5ae91693-0520-496f-a785-a1dd287b0957","resource":{"resourceType":"Condition","id":"5ae91693-0520-496f-a785-a1dd287b0957","code":{"coding":[{"system":"http://snomed.info/sct","code":"386661006"}]},"subject":{"reference":"Patient/077d44ac-041f-4f87-9749-54bc8226058d"},"onsetDateTime":"2022-04-04T00:00:00+00:00"},"request":{"method":"POST","url":"Condition"}},{"fullUrl":"Observation/c041de37-bddb-460c-9533-4955c04c239e","resource":{"resourceType":"Observation","id":"c041de37-bddb-460c-9533-4955c04c239e","status":"final","code":{"coding":[{"system":"http://loinc.org","code":"804-5"}]},"subject":{"reference":"Patient/077d44ac-041f-4f87-9749-54bc8226058d"},"effectiveDateTime":"2022-04-26T00:00:00+00:00","valueQuantity":{"value":8.8}},"request":{"method":"POST","url":"Observation"}},{"fullUrl":"Observation/25855d4e-9917-48d4-b3d1-45750a6e9642","resource":{"resourceType":"Observation","id":"25855d4e-9917-48d4-b3d1-45750a6e9642","status":"final","code":{"coding":[{"system":"http://loinc.org","code":"49498-9"}]},"subject":{"reference":"Patient/077d44ac-041f-4f87-9749-54bc8226058d"},"effectiveDateTime":"2022-09-08T00:00:00+00:00","valueQuantity":{"value":6.3}},"request":{"method":"POST","url":"Observation"}},{"fullUrl":"Observation/49ff115d-1907-432c-8949-35de3295cfec","resource":{"resourceType":"Observation","id":"49ff115d-1907-432c-8949-35de3295cfec","status":"final","code":{"coding":[{"system":"http://www.ama-assn.org/go/cpt","code":"85048"}]},"subject":{"reference":"Patient/077d44ac-041f-4f87-9749-54bc8226058d"},"effectiveDateTime":"2022-01-01T00:00:00+00:00","valueQuantity":{"value":9.2}},"request":{"method":"POST","url":"Observation"}},{"fullUrl":"Observation/740810f8-f3f3-4118-957d-fbeb55c60d05","resource":{"resourceType":"Observation","id":"740810f8-f3f3-4118-957d-fbeb55c60d05","status":"final","code":{"coding":[{"system":"http://loinc.org","code":"49498-9"}]},"subject":{"reference":"Patient/077d44ac-041f-4f87-9749-54bc8226058d"},"effectiveDateTime":"2022-01-07T00:00:00+00:00"},"request":{"method":"POST","url":"Observation"}},{"fullUrl":"Observation/60c2c2e8-2d79-4950-974f-60f5257bd502","resource":{"resourceType":"Observation","id":"60c2c2e8-2d79-4950-974f-60f5257bd502","status":"final","code":{"coding":[{"system":"http://loinc.org","code":"49498-9"}]},"subject":{"reference":"Patient/077d44ac-041f-4f87-9749-54bc8226058d"},"effectiveDateTime":"2022-10-29T00:00:00+00:00"},"request":{"method":"POST","url":"Observation"}},{"fullUrl":"Procedure/b331e0a7-6393-4c68-92a1-117075bbc2aa","resource":{"resourceType":"Procedure","id":"b331e0a7-6393-4c68-92a1-117075bbc2aa","status":"completed","code":{"coding":[{"system":"http://snomed.info/sct","code":"647000"}]},"subject":{"reference":"Patient/077d44ac-041f-4f87-9749-54bc8226058d"},"performedDateTime":"2022-11-17T00:00:00+00:00"},"request":{"method":"POST","url":"Procedure"}},{"fullUrl":"Procedure/7c8f40b6-00dc-4f98-86fc-3dabd6a1d83c","resource":{"resourceType":"Procedure","id":"7c8f40b6-00dc-4f98-86fc-3dabd6a1d83c","status":"completed","code":{"coding":[{"system":"http://snomed.info/sct","code":"115006"}]},"subject":{"reference":"Patient/077d44ac-041f-4f87-9749-54bc8226058d"},"performedDateTime":"2022-10-14T00:00:00+00:00"},"request":{"method":"POST","url":"Procedure"}},{"fullUrl":"Procedure/6d769c91-0ee8-4e41-9b9c-43077468236c","resource":{"resourceType":"Procedure","id":"6d769c91-0ee8-4e41-9b9c-43077468236c","status":"completed","code":{"coding":[{"system":"http://snomed.info/sct","code":"115006"}]},"subject":{"reference":"Patient/077d44ac-041f-4f87-9749-54bc8226058d"},"performedDateTime":"2022-02-07T00:00:00+00:00"},"request":{"method":"POST","url":"Procedure"}},{"fullUrl":"MedicationStatement/ef8419f5-08e1-423a-9f2e-d6c3b1fe1760","resource":{"resourceType":"MedicationStatement","id":"ef8419f5-08e1-423a-9f2e-d6c3b1fe1760","status":"completed","medicationCodeableConcept":{"coding":[{"system":"http://www.nlm.nih.gov/research/umls/rxnorm","code":"3640"}]},"subject":{"reference":"Patient/077d44ac-041f-4f87-9749-54bc8226058d"},"effectiveDateTime":"2022-08-19T00:00:00+00:00","dosage":[{"doseAndRate":[{"doseQuantity":{"value":2.0,"unit":"TAB","system":"http://terminology.hl7.org/CodeSystem/v3-orderableDrugForm","code":"TAB"}}]}]},"request":{"method":"POST","url":"MedicationStatement"}},{"fullUrl":"MedicationStatement/bfada03b-6e8c-4b4c-9036-f1993eb196e8","resource":{"resourceType":"MedicationStatement","id":"bfada03b-6e8c-4b4c-9036-f1993eb196e8","status":"completed","medicationCodeableConcept":{"coding":[{"system":"http://www.nlm.nih.gov/research/umls/rxnorm","code":"7984"}]},"subject":{"reference":"Patient/077d44ac-041f-4f87-9749-54bc8226058d"},"effectiveDateTime":"2022-10-08T00:00:00+00:00","dosage":[{"doseAndRate":[{"doseQuantity":{"value":2.0,"unit":"TAB","system":"http://terminology.hl7.org/CodeSystem/v3-orderableDrugForm","code":"TAB"}}]}]},"request":{"method":"POST","url":"MedicationStatement"}},{"fullUrl":"MedicationStatement/4128306e-302b-4fd1-a239-f5599715b3d9","resource":{"resourceType":"MedicationStatement","id":"4128306e-302b-4fd1-a239-f5599715b3d9","status":"completed","medicationCodeableConcept":{"coding":[{"system":"http://www.nlm.nih.gov/research/umls/rxnorm","code":"3640"}]},"subject":{"reference":"Patient/077d44ac-041f-4f87-9749-54bc8226058d"},"effectiveDateTime":"2022-07-01T00:00:00+00:00","dosage":[{"doseAndRate":[{"doseQuantity":{"value":2.0,"unit":"TAB","system":"http://terminology.hl7.org/CodeSystem/v3-orderableDrugForm","code":"TAB"}}]}]},"request":{"method":"POST","url":"MedicationStatement"}},{"fullUrl":"MedicationStatement/2da2f447-0721-44b2-b340-6350ce5358b1","resource":{"resourceType":"MedicationStatement","id":"2da2f447-0721-44b2-b340-6350ce5358b1","status":"completed","medicationCodeableConcept":{"coding":[{"system":"http://www.nlm.nih.gov/research/umls/rxnorm","code":"7984"}]},"subject":{"reference":"Patient/077d44ac-041f-4f87-9749-54bc8226058d"},"effectiveDateTime":"2022-02-28T00:00:00+00:00","dosage":[{"doseAndRate":[{"doseQuantity":{"value":1.0,"unit":"TAB","system":"http://terminology.hl7.org/CodeSystem/v3-orderableDrugForm","code":"TAB"}}]}]},"request":{"method":"POST","url":"MedicationStatement"}},{"fullUrl":"MedicationStatement/92528af5-107b-4b3f-9561-0621039886e5","resource":{"resourceType":"MedicationStatement","id":"92528af5-107b-4b3f-9561-0621039886e5","status":"completed","medicationCodeableConcept":{"coding":[{"system":"http://www.nlm.nih.gov/research/umls/rxnorm","code":"7980"}]},"subject":{"reference":"Patient/077d44ac-041f-4f87-9749-54bc8226058d"},"effectiveDateTime":"2022-12-04T00:00:00+00:00","dosage":[{"doseAndRate":[{"doseQuantity":{"value":6.4,"unit":"TAB","system":"http://terminology.hl7.org/CodeSystem/v3-orderableDrugForm","code":"TAB"}}]}]},"request":{"method":"POST","url":"MedicationStatement"}},{"fullUrl":"Encounter/37900a8f-0f07-49dc-ae64-bc7d7b99785b","resource":{"resourceType":"Encounter","id":"37900a8f-0f07-49dc-ae64-bc7d7b99785b","status":"finished","class":{"system":"http://terminology.hl7.org/CodeSystem/v3-ActCode","code":"IMP","display":"inpatient encounter"},"type":[{"coding":[{"system":"http://terminology.hl7.org/CodeSystem/encounter-type","code":"BD/BM-clin"}]}],"subject":{"reference":"Patient/077d44ac-041f-4f87-9749-54bc8226058d"},"period":{"start":"2022-05-15T00:00:00+00:00","end":"2022-05-17T00:00:00+00:00"}},"request":{"method":"POST","url":"Encounter"}},{"fullUrl":"Encounter/a4975959-6bc3-46d7-a6b0-34cdb3a5ccc7","resource":{"resourceType":"Encounter","id":"a4975959-6bc3-46d7-a6b0-34cdb3a5ccc7","status":"finished","class":{"system":"http://terminology.hl7.org/CodeSystem/v3-ActCode","code":"IMP","display":"inpatient encounter"},"type":[{"coding":[{"system":"http://terminology.hl7.org/CodeSystem/encounter-type","code":"CCS60"}]}],"subject":{"reference":"Patient/077d44ac-041f-4f87-9749-54bc8226058d"},"period":{"start":"2022-05-20T00:00:00+00:00","end":"2022-05-21T00:00:00+00:00"}},"request":{"method":"POST","url":"Encounter"}},{"fullUrl":"Encounter/39690030-767a-43c0-b893-e890956d0411","resource":{"resourceType":"Encounter","id":"39690030-767a-43c0-b893-e890956d0411","status":"finished","class":{"system":"http://terminology.hl7.org/CodeSystem/v3-ActCode","code":"IMP","display":"inpatient encounter"},"type":[{"coding":[{"system":"http://terminology.hl7.org/CodeSystem/encounter-type","code":"CCS60"}]}],"subject":{"reference":"Patient/077d44ac-041f-4f87-9749-54bc8226058d"},"period":{"start":"2022-06-14T00:00:00+00:00","end":"2022-06-21T00:00:00+00:00"}},"request":{"method":"POST","url":"Encounter"}},{"fullUrl":"Encounter/be272f4d-6a6d-49d5-aee2-aaaf1da0fc8a","resource":{"resourceType":"Encounter","id":"be272f4d-6a6d-49d5-aee2-aaaf1da0fc8a","status":"finished","class":{"system":"http://terminology.hl7.org/CodeSystem/v3-ActCode","code":"AMB","display":"ambulatory"},"type":[{"coding":[{"system":"http://terminology.hl7.org/CodeSystem/encounter-type","code":"BD/BM-clin"}]}],"subject":{"reference":"Patient/077d44ac-041f-4f87-9749-54bc8226058d"},"period":{"start":"2022-01-15T00:00:00+00:00","end":"2022-01-22T00:00:00+00:00"}},"request":{"method":"POST","url":"Encounter"}},{"fullUrl":"Encounter/dacbcd15-2ac2-4acf-b7cc-8bb7f864b707","resource":{"resourceType":"Encounter","id":"dacbcd15-2ac2-4acf-b7cc-8bb7f864b707","status":"finished","class":{"system":"http://terminology.hl7.org/CodeSystem/v3-ActCode","code":"VR","display":"virtual"},"type":[{"coding":[{"system":"http://terminology.hl7.org/CodeSystem/encounter-type","code":"BD/BM-clin"}]}],"subject":{"reference":"Patient/077d44ac-041f-4f87-9749-54bc8226058d"},"period":{"start":"2022-11-30T00:00:00+00:00","end":"2022-12-04T00:00:00+00:00"}},"request":{"method":"POST","url":"Encounter"}},{"fullUrl":"Encounter/b9978654-e592-4a33-b997-71e1d3c19521","resource":{"resourceType":"Encounter","id":"b9978654-e592-4a33-b997-71e1d3c19521","status":"finished","class":{"system":"http://terminology.hl7.org/CodeSystem/v3-ActCode","code":"OBSENC","display":"observation encounter"},"type":[{"coding":[{"system":"http://terminology.hl7.org/CodeSystem/encounter-type","code":"ADMS"}]}],"subject":{"reference":"Patient/077d44ac-041f-4f87-9749-54bc8226058d"},"period":{"start":"2022-08-30T00:00:00+00:00","end":"2022-09-06T00:00:00+00:00"}},"request":{"method":"POST","url":"Encounter"}},{"fullUrl":"Patient/e2f0f82a-54af-45ec-a3ee-13d90e213b10","resource":{"resourceType":"Patient","id":"e2f0f82a-54af-45ec-a3ee-13d90e213b10","identifier":[{"type":{"coding":[{"system":"http://terminology.hl7.org/CodeSystem/v2-0203","code":"MR"}]},"system":"urn:fhirgen:mrn","value":"092-41-4970"}],"name":[{"family":"Roach","given":["Joshua"]}],"gender":"male","birthDate":"1970-11-12","address":[{"line":["75355 Dixon Courts"],"city":"New Jeff","state":"Pennsylvania"}]},"request":{"method":"POST","url":"Patient"}},{"fullUrl":"Observation/3360f105-db64-4393-8412-364e8c9c3c57","resource":{"resourceType":"Observation","id":"3360f105-db64-4393-8412-364e8c9c3c57","status":"final","code":{"coding":[{"system":"http://loinc.org","code":"26009-1"}]},"subject":{"reference":"Patient/e2f0f82a-54af-45ec-a3ee-13d90e213b10"},"effectiveDateTime":"2022-01-16T00:00:00+00:00","valueRatio":{"numerator":{"value":1.0},"denominator":{"value":64.0}}},"request":{"method":"POST","url":"Observation"}},{"fullUrl":"Observation/409cd3dd-0b6f-421e-a49f-5df4ac719dd7","resource":{"resourceType":"Observation","id":"409cd3dd-0b6f-421e-a49f-5df4ac719dd7","status":"final","code":{"coding":[{"system":"http://loinc.org","code":"46203-6"}]},"subject":{"reference":"Patient/e2f0f82a-54af-45ec-a3ee-13d90e213b10"},"effectiveDateTime":"2022-11-25T00:00:00+00:00","valueRatio":{"numerator":{"value":1.0},"denominator":{"value":32.0}}},"request":{"method":"POST","url":"Observation"}},{"fullUrl":"Observation/af82f5c8-1be3-4d1a-adb6-6dffc07b5280","resource":{"resourceType":"Observation","id":"af82f5c8-1be3-4d1a-adb6-6dffc07b5280","status":"final","code":{"coding":[{"system":"http://loinc.org","code":"47476-7"}]},"subject":{"reference":"Patient/e2f0f82a-54af-45ec-a3ee-13d90e213b10"},"effectiveDateTime":"2022-07-08T00:00:00+00:00","valueRatio":{"numerator":{"value":1.0},"denominator":{"value":4.0}}},"request":{"method":"POST","url":"Observation"}},{"fullUrl":"Condition/0acbdb8a-f735-403c-9b4b-07eefcce2e51","resource":{"resourceType":"Condition","id":"0acbdb8a-f735-403c-9b4b-07eefcce2e51","code":{"coding":[{"system":"http://snomed.info/sct","code":"71315007"}]},"subject":{"reference":"Patient/e2f0f82a-54af-45ec-a3ee-13d90e213b10"},"onsetDateTime":"2022-03-18T00:00:00+00:00"},"request":{"method":"POST","url":"Condition"}},{"fullUrl":"Condition/bf5b3c4d-8e74-41a4-b9cd-c2766c58cf64","resource":{"resourceType":"Condition","id":"bf5b3c4d-8e74-41a4-b9cd-c2766c58cf64","code":{"coding":[{"system":"http://snomed.info/sct","code":"21522001"}]},"subject":{"reference":"Patient/e2f0f82a-54af-45ec-a3ee-13d90e213b10"},"onsetDateTime":"2022-05-17T00:00:00+00:00"},"request":{"method":"POST","url":"Condition"}},{"fullUrl":"Condition/d0ee877e-87ed-459e-bd9e-bfb6310d4fcd","resource":{"resourceType":"Condition","id":"d0ee877e-87ed-459e-bd9e-bfb6310d4fcd","code":{"coding":[{"system":"http://snomed.info/sct","code":"56317004"}]},"subject":{"reference":"Patient/e2f0f82a-54af-45ec-a3ee-13d90e213b10"},"onsetDateTime":"2022-05-19T00:00:00+00:00"},"request":{"method":"POST","url":"Condition"}},{"fullUrl":"Condition/0776425e-b83b-4c11-a3ba-d6a53d07f131","resource":{"resourceType":"Condition","id":"0776425e-b83b-4c11-a3ba-d6a53d07f131","code":{"coding":[{"system":"http://snomed.info/sct","code":"79342006"}]},"subject":{"reference":"Patient/e2f0f82a-54af-45ec-a3ee-13d90e213b10"},"onsetDateTime":"2022-01-31T00:00:00+00:00"},"request":{"method":"POST","url":"Condition"}},{"fullUrl":"Observation/8769b543-fd30-480a-aa81-1cfa6f0b4289","resource":{"resourceType":"Observation","id":"8769b543-fd30-480a-aa81-1cfa6f0b4289","status":"final","code":{"coding":[{"system":"http://loinc.org","code":"49498-9"}]},"subject":{"reference":"Patient/e2f0f82a-54af-45ec-a3ee-13d90e213b10"},"effectiveDateTime":"2022-03-15T00:00:00+00:00","valueQuantity":{"value":10.7}},"request":{"method":"POST","url":"Observation"}},{"fullUrl":"Observation/f19f7b23-3a06-4e8a-9ebb-1a1e4efa43d3","resource":{"resourceType":"Observation","id":"f19f7b23-3a06-4e8a-9ebb-1a1e4efa43d3","status":"final","code":{"coding":[{"system":"http://loinc.org","code":"804-5"}]},"subject":{"reference":"Patient/e2f0f82a-54af-45ec-a3ee-13d90e213b10"},"effectiveDateTime":"2022-10-22T00:00:00+00:00","valueQuantity":{"value":4.5}},"request":{"method":"POST","url":"Observation"}},{"fullUrl":"Observation/4e5e003c-9549-4f08-b84d-e33db03f162f","resource":{"resourceType":"Observation","id":"4e5e003c-9549-4f08-b84d-e33db03f162f","status":"final","code":{"coding":[{"system":"http://www.ama-assn.org/go/cpt","code":"85048"}]},"subject":{"reference":"Patient/e2f0f82a-54af-45ec-a3ee-13d90e213b10"},"effectiveDateTime":"2022-08-08T00:00:00+00:00","valueQuantity":{"value":5.3}},"request":{"method":"POST","url":"Observation"}},{"fullUrl":"Observation/eb31e73a-4b5d-49b6-a804-06d12bd81ea3","resource":{"resourceType":"Observation","id":"eb31e73a-4b5d-49b6-a804-06d12bd81ea3","status":"final","code":{"coding":[{"system":"http://loinc.org","code":"49498-9"}]},"subject":{"reference":"Patient/e2f0f82a-54af-45ec-a3ee-13d90e213b10"},"effectiveDateTime":"2022-09-11T00:00:00+00:00"},"request":{"method":"POST","url":"Observation"}},{"fullUrl":"Observation/286f40d7-9787-42a0-8020-096ca1d34c2b","resource":{"resourceType":"Observation","id":"286f40d7-9787-42a0-8020-096ca1d34c2b","status":"final","code":{"coding":[{"system":"http://loinc.org","code":"49498-9"}]},"subject":{"reference":"Patient/e2f0f82a-54af-45ec-a3ee-13d90e213b10"},"effectiveDateTime":"2022-03-08T00:00:00+00:00"},"request":{"method":"POST","url":"Observation"}},{"fullUrl":"Procedure/ca83f6c6-5c6c-46fe-b6cf-4538c8264bd0","resource":{"resourceType":"Procedure","id":"ca83f6c6-5c6c-46fe-b6cf-4538c8264bd0","status":"completed","code":{"coding":[{"system":"http://snomed.info/sct","code":"104001"}]},"subject":{"reference":"Patient/e2f0f82a-54af-45ec-a3ee-13d90e213b10"},"performedDateTime":"2022-01-05T00:00:00+00:00"},"request":{"method":"POST","url":"Procedure"}},{"fullUrl":"Procedure/f39e700f-f5d6-4eab-a9a0-9b2defa8df81","resource":{"resourceType":"Procedure","id":"f39e700f-f5d6-4eab-a9a0-9b2defa8df81","status":"completed","code":{"coding":[{"system":"http://snomed.info/sct","code":"115006"}]},"subject":{"reference":"Patient/e2f0f82a-54af-45ec-a3ee-13d90e213b10"},"performedDateTime":"2022-11-29T00:00:00+00:00"},"request":{"method":"POST","url":"Procedure"}},{"fullUrl":"Procedure/f5899faf-8e9f-4f38-b707-af139c25cf3e","resource":{"resourceType":"Procedure","id":"f5899faf-8e9f-4f38-b707-af139c25cf3e","status":"completed","code":{"coding":[{"system":"http://snomed.info/sct","code":"647000"}]},"subject":{"reference":"Patient/e2f0f82a-54af-45ec-a3ee-13d90e213b10"},"performedDateTime":"2022-02-26T00:00:00+00:00"},"request":{"method":"POST","url":"Procedure"}},{"fullUrl":"MedicationStatement/92cd1845-672b-475f-b57a-2b95c5a3d936","resource":{"resourceType":"MedicationStatement","id":"92cd1845-672b-475f-b57a-2b95c5a3d936","status":"completed","medicationCodeableConcept":{"coding":[{"system":"http://www.nlm.nih.gov/research/umls/rxnorm","code":"7984"}]},"subject":{"reference":"Patient/e2f0f82a-54af-45ec-a3ee-13d90e213b10"},"effectiveDateTime":"2022-01-03T00:00:00+00:00","dosage":[{"doseAndRate":[{"doseQuantity":{"value":1.0,"unit":"TAB","system":"http://terminology.hl7.org/CodeSystem/v3-orderableDrugForm","code":"TAB"}}]}]},"request":{"method":"POST","url":"MedicationStatement"}},{"fullUrl":"MedicationStatement/4f961beb-c5f6-4604-b243-59e639988ccf","resource":{"resourceType":"MedicationStatement","id":"4f961beb-c5f6-4604-b243-59e639988ccf","status":"completed","medicationCodeableConcept":{"coding":[{"system":"http://www.nlm.nih.gov/research/umls/rxnorm","code":"8698"}]},"subject":{"reference":"Patient/e2f0f82a-54af-45ec-a3ee-13d90e213b10"},"effectiveDateTime":"2022-10-14T00:00:00+00:00","dosage":[{"doseAndRate":[{"doseQuantity":{"value":1.0,"unit":"TAB","system":"http://terminology.hl7.org/CodeSystem/v3-orderableDrugForm","code":"TAB"}}]}]},"request":{"method":"POST","url":"MedicationStatement"}},{"fullUrl":"MedicationStatement/ef796359-5793-4994-9a4c-6bd6233733be","resource":{"resourceType":"MedicationStatement","id":"ef796359-5793-4994-9a4c-6bd6233733be","status":"completed","medicationCodeableConcept":{"coding":[{"system":"http://www.nlm.nih.gov/research/umls/rxnorm","code":"7984"}]},"subject":{"reference":"Patient/e2f0f82a-54af-45ec-a3ee-13d90e213b10"},"effectiveDateTime":"2022-02-24T00:00:00+00:00","dosage":[{"doseAndRate":[{"doseQuantity":{"value":2.0,"unit":"TAB","system":"http://terminology.hl7.org/CodeSystem/v3-orderableDrugForm","code":"TAB"}}]}]},"request":{"method":"POST","url":"MedicationStatement"}},{"fullUrl":"MedicationStatement/cce5479a-ca9c-4a36-9c48-656dfbeb0c82","resource":{"resourceType":"MedicationStatement","id":"cce5479a-ca9c-4a36-9c48-656dfbeb0c82","status":"completed","medicationCodeableConcept":{"coding":[{"system":"http://www.nlm.nih.gov/research/umls/rxnorm","code":"18631"}]},"subject":{"reference":"Patient/e2f0f82a-54af-45ec-a3ee-13d90e213b10"},"effectiveDateTime":"2022-03-31T00:00:00+00:00","dosage":[{"doseAndRate":[{"doseQuantity":{"value":1.0,"unit":"TAB","system":"http://terminology.hl7.org/CodeSystem/v3-orderableDrugForm","code":"TAB"}}]}]},"request":{"method":"POST","url":"MedicationStatement"}},{"fullUrl":"MedicationStatement/2e911b9c-f7bf-4c4b-b54c-fe3904b09065","resource":{"resourceType":"MedicationStatement","id":"2e911b9c-f7bf-4c4b-b54c-fe3904b09065","status":"completed","medicationCodeableConcept":{"coding":[{"system":"http://www.nlm.nih.gov/research/umls/rxnorm","code":"8698"}]},"subject":{"reference":"Patient/e2f0f82a-54af-45ec-a3ee-13d90e213b10"},"effectiveDateTime":"2022-06-25T00:00:00+00:00","dosage":[{"doseAndRate":[{"doseQuantity":{"value":3.5,"unit":"TAB","system":"http://terminology.hl7.org/CodeSystem/v3-orderableDrugForm","code":"TAB"}}]}]},"request":{"method":"POST","url":"MedicationStatement"}},{"fullUrl":"MedicationStatement/226327fd-f6f8-416f-8b28-9ca1c918ff66","resource":{"resourceType":"MedicationStatement","id":"226327fd-f6f8-416f-8b28-9ca1c918ff66","status":"completed","medicationCodeableConcept":{"coding":[{"system":"http://www.nlm.nih.gov/research/umls/rxnorm","code":"7980"}]},"subject":{"reference":"Patient/e2f0f82a-54af-45ec-a3ee-13d90e213b10"},"effectiveDateTime":"2022-12-23T00:00:00+00:00","dosage":[{"doseAndRate":[{"doseQuantity":{"value":6.0,"unit":"TAB","system":"http://terminology.hl7.org/CodeSystem/v3-orderableDrugForm","code":"TAB"}}]}]},"request":{"method":"POST","url":"MedicationStatement"}},{"fullUrl":"MedicationStatement/6b466d1b-9228-4b4a-97cf-eaad7cb6591e","resource":{"resourceType":"MedicationStatement","id":"6b466d1b-9228-4b4a-97cf-eaad7cb6591e","status":"completed","medicationCodeableConcept":{"coding":[{"system":"http://www.nlm.nih.gov/research/umls/rxnorm","code":"2193"}]},"subject":{"reference":"Patient/e2f0f82a-54af-45ec-a3ee-13d90e213b10"},"effectiveDateTime":"2022-02-28T00:00:00+00:00","dosage":[{"doseAndRate":[{"doseQuantity":{"value":3.6,"unit":"TAB","system":"http://terminology.hl7.org/CodeSystem/v3-orderableDrugForm","code":"TAB"}}]}]},"request":{"method":"POST","url":"MedicationStatement"}},{"fullUrl":"Encounter/e12245a5-238e-4fec-a140-cf241599460f","resource":{"resourceType":"Encounter","id":"e12245a5-238e-4fec-a140-cf241599460f","status":"finished","class":{"system":"http://terminology.hl7.org/CodeSystem/v3-ActCode","code":"IMP","display":"inpatient encounter"},"type":[{"coding":[{"system":"http://terminology.hl7.org/CodeSystem/encounter-type","code":"BD/BM-clin"}]}],"subject":{"reference":"Patient/e2f0f82a-54af-45ec-a3ee-13d90e213b10"},"period":{"start":"2022-02-15T00:00:00+00:00","end":"2022-02-23T00:00:00+00:00"}},"request":{"method":"POST","url":"Encounter"}},{"fullUrl":"Encounter/e228a37d-db09-49a1-8630-9bea8c330163","resource":{"resourceType":"Encounter","id":"e228a37d-db09-49a1-8630-9bea8c330163","status":"finished","class":{"system":"http://terminology.hl7.org/CodeSystem/v3-ActCode","code":"IMP","display":"inpatient encounter"},"type":[{"coding":[{"system":"http://terminology.hl7.org/CodeSystem/encounter-type","code":"BD/BM-clin"}]}],"subject":{"reference":"Patient/e2f0f82a-54af-45ec-a3ee-13d90e213b10"},"period":{"start":"2022-06-12T00:00:00+00:00","end":"2022-06-18T00:00:00+00:00"}},"request":{"method":"POST","url":"Encounter"}},{"fullUrl":"Encounter/85430280-6771-41d9-9e77-8284851e7ae1","resource":{"resourceType":"Encounter","id":"85430280-6771-41d9-9e77-8284851e7ae1","status":"finished","class":{"system":"http://terminology.hl7.org/CodeSystem/v3-ActCode","code":"IMP","display":"inpatient encounter"},"type":[{"coding":[{"system":"http://terminology.hl7.org/CodeSystem/encounter-type","code":"ADMS"}]}],"subject":{"reference":"Patient/e2f0f82a-54af-45ec-a3ee-13d90e213b10"},"period":{"start":"2022-10-03T00:00:00+00:00","end":"2022-10-03T00:00:00+00:00"}},"request":{"method":"POST","url":"Encounter"}},{"fullUrl":"Encounter/283ecac8-cea8-4515-9468-61155528ffdc","resource":{"resourceType":"Encounter","id":"283ecac8-cea8-4515-9468-61155528ffdc","status":"finished","class":{"system":"http://terminology.hl7.org/CodeSystem/v3-ActCode","code":"OBSENC","display":"observation encounter"},"type":[{"coding":[{"system":"http://terminology.hl7.org/CodeSystem/encounter-type","code":"CCS60"}]}],"subject":{"reference":"Patient/e2f0f82a-54af-45ec-a3ee-13d90e213b10"},"period":{"start":"2022-10-26T00:00:00+00:00","end":"2022-11-04T00:00:00+00:00"}},"request":{"method":"POST","url":"Encounter"}},{"fullUrl":"Encounter/72d289ea-cbfe-41c3-b57a-b96243c75f84","resource":{"resourceType":"Encounter","id":"72d289ea-cbfe-41c3-b57a-b96243c75f84","status":"finished","class":{"system":"http://terminology.hl7.org/CodeSystem/v3-ActCode","code":"OBSENC","display":"observation encounter"},"type":[{"coding":[{"system":"http://terminology.hl7.org/CodeSystem/encounter-type","code":"ADMS"}]}],"subject":{"reference":"Patient/e2f0f82a-54af-45ec-a3ee-13d90e213b10"},"period":{"start":"2022-09-10T00:00:00+00:00","end":"2022-09-12T00:00:00+00:00"}},"request":{"method":"POST","url":"Encounter"}},{"fullUrl":"Encounter/c0a8f1aa-8018-4801-a263-3c7e5b15693f","resource":{"resourceType":"Encounter","id":"c0a8f1aa-8018-4801-a263-3c7e5b15693f","status":"finished","class":{"system":"http://terminology.hl7.org/CodeSystem/v3-ActCode","code":"SS","display":"short-stay"},"type":[{"coding":[{"system":"http://terminology.hl7.org/CodeSystem/encounter-type","code":"ADMS"}]}],"subject":{"reference":"Patient/e2f0f82a-54af-45ec-a3ee-13d90e213b10"},"period":{"start":"2022-09-13T00:00:00+00:00","end":"2022-09-13T00:00:00+00:00"}},"request":{"method":"POST","url":"Encounter"}},{"fullUrl":"Patient/543b45e2-f1a1-4622-a7fa-732eb30e3035","resource":{"resourceType":"Patient","id":"543b45e2-f1a1-4622-a7fa-732eb30e3035","identifier":[{"type":{"coding":[{"system":"http://terminology.hl7.org/CodeSystem/v2-0203","code":"MR"}]},"system":"urn:fhirgen:mrn","value":"703-56-9315"}],"name":[{"family":"Hunt","given":["Lisa"]}],"gender":"female","birthDate":"1986-04-03","address":[{"line":["10264 Ruben Path Suite 336"],"city":"Brewerview","state":"New Hampshire"}]},"request":{"method":"POST","url":"Patient"}},{"fullUrl":"Observation/e816a138-dfba-4080-a37a-2108babf1b80","resource":{"resourceType":"Observation","id":"e816a138-dfba-4080-a37a-2108babf1b80","status":"final","code":{"coding":[{"system":"http://loinc.org","code":"5394-2"}]},"subject":{"reference":"Patient/543b45e2-f1a1-4622-a7fa-732eb30e3035"},"effectiveDateTime":"2022-05-05T00:00:00+00:00","valueRatio":{"numerator":{"value":1.0},"denominator":{"value":32.0}}},"request":{"method":"POST","url":"Observation"}},{"fullUrl":"Observation/160763ab-9e74-4646-af29-12665e9ef554","resource":{"resourceType":"Observation","id":"160763ab-9e74-4646-af29-12665e9ef554","status":"final","code":{"coding":[{"system":"http://loinc.org","code":"87925-4"}]},"subject":{"reference":"Patient/543b45e2-f1a1-4622-a7fa-732eb30e3035"},"effectiveDateTime":"2022-03-18T00:00:00+00:00","valueRatio":{"numerator":{"value":1.0},"denominator":{"value":64.0}}},"request":{"method":"POST","url":"Observation"}},{"fullUrl":"Condition/44ffee56-dea2-4c44-9eeb-2a00be7bbab3","resource":{"resourceType":"Condition","id":"44ffee56-dea2-4c44-9eeb-2a00be7bbab3","code":{"coding":[{"system":"http://snomed.info/sct","code":"71315007"}]},"subject":{"reference":"Patient/543b45e2-f1a1-4622-a7fa-732eb30e3035"},"onsetDateTime":"2022-10-13T00:00:00+00:00"},"request":{"method":"POST","url":"Condition"}},{"fullUrl":"Condition/c390a938-e232-4c78-b95d-e9ac3173284a","resource":{"resourceType":"Condition","id":"c390a938-e232-4c78-b95d-e9ac3173284a","code":{"coding":[{"system":"http://snomed.info/sct","code":"18165001"}]},"subject":{"reference":"Patient/543b45e2-f1a1-4622-a7fa-732eb30e3035"},"onsetDateTime":"2022-01-13T00:00:00+00:00"},"request":{"method":"POST","url":"Condition"}},{"fullUrl":"Condition/10f53405-27c5-4325-a52e-b2b90fb44cb4","resource":{"resourceType":"Condition","id":"10f53405-27c5-4325-a52e-b2b90fb44cb4","code":{"coding":[{"system":"http://snomed.info/sct","code":"271807003"}]},"subject":{"reference":"Patient/543b45e2-f1a1-4622-a7fa-732eb30e3035"},"onsetDateTime":"2022-04-12T00:00:00+00:00"},"request":{"method":"POST","url":"Condition"}},{"fullUrl":"Condition/d146942a-5985-43b0-8134-c999ca390fef","resource":{"resourceType":"Condition","id":"d146942a-5985-43b0-8134-c999ca390fef","code":{"coding":[{"system":"http://snomed.info/sct","code":"21522001"}]},"subject":{"reference":"Patient/543b45e2-f1a1-4622-a7fa-732eb30e3035"},"onsetDateTime":"2022-04-25T00:00:00+00:00"},"request":{"method":"POST","url":"Condition"}},{"fullUrl":"Condition/6f7bef0b-37ff-4bfa-9b42-bcf934082c88","resource":{"resourceType":"Condition","id":"6f7bef0b-37ff-4bfa-9b42-bcf934082c88","code":{"coding":[{"system":"http://snomed.info/sct","code":"198199009"}]},"subject":{"reference":"Patient/543b45e2-f1a1-4622-a7fa-732eb30e3035"},"onsetDateTime":"2022-10-24T00:00:00+00:00"},"request":{"method":"POST","url":"Condition"}},{"fullUrl":"Condition/12f3bc0f-1d21-45f7-9c07-6ff1465f816f","resource":{"resourceType":"Condition","id":"12f3bc0f-1d21-45f7-9c07-6ff1465f816f","code":{"coding":[{"system":"http://snomed.info/sct","code":"30746006"}]},"subject":{"reference":"Patient/543b45e2-f1a1-4622-a7fa-732eb30e3035"},"onsetDateTime":"2022-08-16T00:00:00+00:00"},"request":{"method":"POST","url":"Condition"}},{"fullUrl":"Condition/b7cf9b7e-50f0-491f-b80e-ff280d224059","resource":{"resourceType":"Condition","id":"b7cf9b7e-50f0-491f-b80e-ff280d224059","code":{"coding":[{"system":"http://snomed.info/sct","code":"91554004"}]},"subject":{"reference":"Patient/543b45e2-f1a1-4622-a7fa-732eb30e3035"},"onsetDateTime":"2022-03-15T00:00:00+00:00"},"request":{"method":"POST","url":"Condition"}},{"fullUrl":"Condition/06749153-9a70-4b7a-ac8b-4dd628646c40","resource":{"resourceType":"Condition","id":"06749153-9a70-4b7a-ac8b-4dd628646c40","code":{"coding":[{"system":"http://snomed.info/sct","code":"31070006"}]},"subject":{"reference":"Patient/543b45e2-f1a1-4622-a7fa-732eb30e3035"},"onsetDateTime":"2022-11-05T00:00:00+00:00"},"request":{"method":"POST","url":"Condition"}},{"fullUrl":"Observation/759e616e-0bd1-4f13-80c3-e9f5f36a3be1","resource":{"resourceType":"Observation","id":"759e616e-0bd1-4f13-80c3-e9f5f36a3be1","status":"final","code":{"coding":[{"system":"http://loinc.org","code":"49498-9"}]},"subject":{"reference":"Patient/543b45e2-f1a1-4622-a7fa-732eb30e3035"},"effectiveDateTime":"2022-03-05T00:00:00+00:00","valueQuantity":{"value":5.7}},"request":{"method":"POST","url":"Observation"}},{"fullUrl":"Observation/e46d1010-c872-474d-bfe9-058be8613e1f","resource":{"resourceType":"Observation","id":"e46d1010-c872-474d-bfe9-058be8613e1f","status":"final","code":{"coding":[{"system":"http://loinc.org","code":"49498-9"}]},"subject":{"reference":"Patient/543b45e2-f1a1-4622-a7fa-732eb30e3035"},"effectiveDateTime":"2022-06-03T00:00:00+00:00","valueQuantity":{"value":5.6}},"request":{"method":"POST","url":"Observation"}},{"fullUrl":"Observation/a18613a5-c20e-4637-9ee6-e7e7972ae614","resource":{"resourceType":"Observation","id":"a18613a5-c20e-4637-9ee6-e7e7972ae614","status":"final","code":{"coding":[{"system":"http://loinc.org","code":"49498-9"}]},"subject":{"reference":"Patient/543b45e2-f1a1-4622-a7fa-732eb30e3035"},"effectiveDateTime":"2022-03-23T00:00:00+00:00"},"request":{"method":"POST","url":"Observation"}},{"fullUrl":"Observation/b1c8b283-5018-45db-b634-39fed8a9fe73","resource":{"resourceType":"Observation","id":"b1c8b283-5018-45db-b634-39fed8a9fe73","status":"final","code":{"coding":[{"system":"http://loinc.org","code":"49498-9"}]},"subject":{"reference":"Patient/543b45e2-f1a1-4622-a7fa-732eb30e3035"},"effectiveDateTime":"2022-06-04T00:00:00+00:00"},"request":{"method":"POST","url":"Observation"}},{"fullUrl":"Observation/09e6da6a-a05a-41eb-b17c-932cb3c49133","resource":{"resourceType":"Observation","id":"09e6da6a-a05a-41eb-b17c-932cb3c49133","status":"final","code":{"coding":[{"system":"http://loinc.org","code":"49498-9"}]},"subject":{"reference":"Patient/543b45e2-f1a1-4622-a7fa-732eb30e3035"},"effectiveDateTime":"2022-08-02T00:00:00+00:00"},"request":{"method":"POST","url":"Observation"}},{"fullUrl":"Procedure/a9610c01-fd42-46ff-95bd-9eb4d8d04dc8","resource":{"resourceType":"Procedure","id":"a9610c01-fd42-46ff-95bd-9eb4d8d04dc8","status":"completed","code":{"coding":[{"system":"http://snomed.info/sct","code":"189009"}]},"subject":{"reference":"Patient/543b45e2-f1a1-4622-a7fa-732eb30e3035"},"performedDateTime":"2022-07-06T00:00:00+00:00"},"request":{"method":"POST","url":"Procedure"}},{"fullUrl":"Procedure/140bd923-e51e-40a6-9f0f-9823ba3ad2e6","resource":{"resourceType":"Procedure","id":"140bd923-e51e-40a6-9f0f-9823ba3ad2e6","status":"completed","code":{"coding":[{"system":"http://snomed.info/sct","code":"115006"}]},"subject":{"reference":"Patient/543b45e2-f1a1-4622-a7fa-732eb30e3035"},"performedDateTime":"2022-12-30T00:00:00+00:00"},"request":{"method":"POST","url":"Procedure"}},{"fullUrl":"Procedure/eed94535-075c-4dca-9442-621b2006f194","resource":{"resourceType":"Procedure","id":"eed94535-075c-4dca-9442-621b2006f194","status":"completed","code":{"coding":[{"system":"http://snomed.info/sct","code":"647000"}]},"subject":{"reference":"Patient/543b45e2-f1a1-4622-a7fa-732eb30e3035"},"performedDateTime":"2022-05-27T00:00:00+00:00"},"request":{"method":"POST","url":"Procedure"}},{"fullUrl":"MedicationStatement/7464bf60-d48e-4f50-9ff9-9f3b63ac1b6a","resource":{"resourceType":"MedicationStatement","id":"7464bf60-d48e-4f50-9ff9-9f3b63ac1b6a","status":"completed","medicationCodeableConcept":{"coding":[{"system":"http://www.nlm.nih.gov/research/umls/rxnorm","code":"8698"}]},"subject":{"reference":"Patient/543b45e2-f1a1-4622-a7fa-732eb30e3035"},"effectiveDateTime":"2022-11-18T00:00:00+00:00","dosage":[{"doseAndRate":[{"doseQuantity":{"value":2.0,"unit":"TAB","system":"http://terminology.hl7.org/CodeSystem/v3-orderableDrugForm","code":"TAB"}}]}]},"request":{"method":"POST","url":"MedicationStatement"}},{"fullUrl":"MedicationStatement/3f859a3d-9fad-41cc-86f0-968e9b92a624","resource":{"resourceType":"MedicationStatement","id":"3f859a3d-9fad-41cc-86f0-968e9b92a624","status":"completed","medicationCodeableConcept":{"coding":[{"system":"http://www.nlm.nih.gov/research/umls/rxnorm","code":"7980"}]},"subject":{"reference":"Patient/543b45e2-f1a1-4622-a7fa-732eb30e3035"},"effectiveDateTime":"2022-01-18T00:00:00+00:00","dosage":[{"doseAndRate":[{"doseQuantity":{"value":2.0,"unit":"TAB","system":"http://terminology.hl7.org/CodeSystem/v3-orderableDrugForm","code":"TAB"}}]}]},"request":{"method":"POST","url":"MedicationStatement"}},{"fullUrl":"MedicationStatement/dd5247b5-0b41-4830-ac5e-840453dd650d","resource":{"resourceType":"MedicationStatement","id":"dd5247b5-0b41-4830-ac5e-840453dd650d","status":"completed","medicationCodeableConcept":{"coding":[{"system":"http://www.nlm.nih.gov/research/umls/rxnorm","code":"18631"}]},"subject":{"reference":"Patient/543b45e2-f1a1-4622-a7fa-732eb30e3035"},"effectiveDateTime":"2022-04-25T00:00:00+00:00","dosage":[{"doseAndRate":[{"doseQuantity":{"value":1.0,"unit":"TAB","system":"http://terminology.hl7.org/CodeSystem/v3-orderableDrugForm","code":"TAB"}}]}]},"request":{"method":"POST","url":"MedicationStatement"}},{"fullUrl":"MedicationStatement/90cd58ad-2968-4b18-9aa3-8b97d05409a0","resource":{"resourceType":"MedicationStatement","id":"90cd58ad-2968-4b18-9aa3-8b97d05409a0","status":"completed","medicationCodeableConcept":{"coding":[{"system":"http://www.nlm.nih.gov/research/umls/rxnorm","code":"8698"}]},"subject":{"reference":"Patient/543b45e2-f1a1-4622-a7fa-732eb30e3035"},"effectiveDateTime":"2022-08-11T00:00:00+00:00","dosage":[{"doseAndRate":[{"doseQuantity":{"value":1.0,"unit":"TAB","system":"http://terminology.hl7.org/CodeSystem/v3-orderableDrugForm","code":"TAB"}}]}]},"request":{"method":"POST","url":"MedicationStatement"}},{"fullUrl":"MedicationStatement/215733c8-f6da-47c9-b7bd-284d4a1340c3","resource":{"resourceType":"MedicationStatement","id":"215733c8-f6da-47c9-b7bd-284d4a1340c3","status":"completed","medicationCodeableConcept":{"coding":[{"system":"http://www.nlm.nih.gov/research/umls/rxnorm","code":"3640"}]},"subject":{"reference":"Patient/543b45e2-f1a1-4622-a7fa-732eb30e3035"},"effectiveDateTime":"2022-02-24T00:00:00+00:00","dosage":[{"doseAndRate":[{"doseQuantity":{"value":1.0,"unit":"TAB","system":"http://terminology.hl7.org/CodeSystem/v3-orderableDrugForm","code":"TAB"}}]}]},"request":{"method":"POST","url":"MedicationStatement"}},{"fullUrl":"MedicationStatement/13061361-3770-4807-aab1-db59f0a5eb2a","resource":{"resourceType":"MedicationStatement","id":"13061361-3770-4807-aab1-db59f0a5eb2a","status":"completed","medicationCodeableConcept":{"coding":[{"system":"http://www.nlm.nih.gov/research/umls/rxnorm","code":"7984"}]},"subject":{"reference":"Patient/543b45e2-f1a1-4622-a7fa-732eb30e3035"},"effectiveDateTime":"2022-06-12T00:00:00+00:00","dosage":[{"doseAndRate":[{"doseQuantity":{"value":1.0,"unit":"TAB","system":"http://terminology.hl7.org/CodeSystem/v3-orderableDrugForm","code":"TAB"}}]}]},"request":{"method":"POST","url":"MedicationStatement"}},{"fullUrl":"MedicationStatement/1ad75414-ca0f-4c6c-8322-f52287753c4f","resource":{"resourceType":"MedicationStatement","id":"1ad75414-ca0f-4c6c-8322-f52287753c4f","status":"completed","medicationCodeableConcept":{"coding":[{"system":"http://www.nlm.nih.gov/research/umls/rxnorm","code":"3640"}]},"subject":{"reference":"Patient/543b45e2-f1a1-4622-a7fa-732eb30e3035"},"effectiveDateTime":"2022-01-31T00:00:00+00:00","dosage":[{"doseAndRate":[{"doseQuantity":{"value":4.6,"unit":"TAB","system":"http://terminology.hl7.org/CodeSystem/v3-orderableDrugForm","code":"TAB"}}]}]},"request":{"method":"POST","url":"MedicationStatement"}},{"fullUrl":"MedicationStatement/49275934-fa82-41ac-8255-13e0bcc500be","resource":{"resourceType":"MedicationStatement","id":"49275934-fa82-41ac-8255-13e0bcc500be","status":"completed","medicationCodeableConcept":{"coding":[{"system":"http://www.nlm.nih.gov/research/umls/rxnorm","code":"7980"}]},"subject":{"reference":"Patient/543b45e2-f1a1-4622-a7fa-732eb30e3035"},"effectiveDateTime":"2022-12-24T00:00:00+00:00","dosage":[{"doseAndRate":[{"doseQuantity":{"value":3.5,"unit":"TAB","system":"http://terminology.hl7.org/CodeSystem/v3-orderableDrugForm","code":"TAB"}}]}]},"request":{"method":"POST","url":"MedicationStatement"}},{"fullUrl":"MedicationStatement/b32069e4-0877-43d5-a2a5-cba5f1f17f8f","resource":{"resourceType":"MedicationStatement","id":"b32069e4-0877-43d5-a2a5-cba5f1f17f8f","status":"completed","medicationCodeableConcept":{"coding":[{"system":"http://www.nlm.nih.gov/research/umls/rxnorm","code":"3640"}]},"subject":{"reference":"Patient/543b45e2-f1a1-4622-a7fa-732eb30e3035"},"effectiveDateTime":"2022-11-11T00:00:00+00:00","dosage":[{"doseAndRate":[{"doseQuantity":{"value":5.2,"unit":"TAB","system":"http://terminology.hl7.org/CodeSystem/v3-orderableDrugForm","code":"TAB"}}]}]},"request":{"method":"POST","url":"MedicationStatement"}},{"fullUrl":"MedicationStatement/337f1760-3949-44d0-980b-e4d80ace64d6","resource":{"resourceType":"MedicationStatement","id":"337f1760-3949-44d0-980b-e4d80ace64d6","status":"completed","medicationCodeableConcept":{"coding":[{"system":"http://www.nlm.nih.gov/research/umls/rxnorm","code":"3640"}]},"subject":{"reference":"Patient/543b45e2-f1a1-4622-a7fa-732eb30e3035"},"effectiveDateTime":"2022-08-25T00:00:00+00:00","dosage":[{"doseAndRate":[{"doseQuantity":{"value":3.7,"unit":"TAB","system":"http://terminology.hl7.org/CodeSystem/v3-orderableDrugForm","code":"TAB"}}]}]},"request":{"method":"POST","url":"MedicationStatement"}},{"fullUrl":"MedicationStatement/d9e2e566-e100-4670-87bb-fbb15a33d473","resource":{"resourceType":"MedicationStatement","id":"d9e2e566-e100-4670-87bb-fbb15a33d473","status":"completed","medicationCodeableConcept":{"coding":[{"system":"http://www.nlm.nih.gov/research/umls/rxnorm","code":"7984"}]},"subject":{"reference":"Patient/543b45e2-f1a1-4622-a7fa-732eb30e3035"},"effectiveDateTime":"2022-12-14T00:00:00+00:00","dosage":[{"doseAndRate":[{"doseQuantity":{"value":4.6,"unit":"TAB","system":"http://terminology.hl7.org/CodeSystem/v3-orderableDrugForm","code":"TAB"}}]}]},"request":{"method":"POST","url":"MedicationStatement"}},{"fullUrl":"MedicationStatement/6523053b-52a7-46f0-963e-f53a899f1a82","resource":{"resourceType":"MedicationStatement","id":"6523053b-52a7-46f0-963e-f53a899f1a82","status":"completed","medicationCodeableConcept":{"coding":[{"system":"http://www.nlm.nih.gov/research/umls/rxnorm","code":"7980"}]},"subject":{"reference":"Patient/543b45e2-f1a1-4622-a7fa-732eb30e3035"},"effectiveDateTime":"2022-11-11T00:00:00+00:00","dosage":[{"doseAndRate":[{"doseQuantity":{"value":4.0,"unit":"TAB","system":"http://terminology.hl7.org/CodeSystem/v3-orderableDrugForm","code":"TAB"}}]}]},"request":{"method":"POST","url":"MedicationStatement"}},{"fullUrl":"Encounter/a55fc9cc-9357-4114-87c9-36e2c1f1ae32","resource":{"resourceType":"Encounter","id":"a55fc9cc-9357-4114-87c9-36e2c1f1ae32","status":"finished","class":{"system":"http://terminology.hl7.org/CodeSystem/v3-ActCode","code":"IMP","display":"inpatient encounter"},"type":[{"coding":[{"system":"http://terminology.hl7.org/CodeSystem/encounter-type","code":"BD/BM-clin"}]}],"subject":{"reference":"Patient/543b45e2-f1a1-4622-a7fa-732eb30e3035"},"period":{"start":"2022-12-15T00:00:00+00:00","end":"2022-12-20T00:00:00+00:00"}},"request":{"method":"POST","url":"Encounter"}},{"fullUrl":"Encounter/9a617e30-ed00-4298-9e4c-aa50a7ac579c","resource":{"resourceType":"Encounter","id":"9a617e30-ed00-4298-9e4c-aa50a7ac579c","status":"finished","class":{"system":"http://terminology.hl7.org/CodeSystem/v3-ActCode","code":"IMP","display":"inpatient encounter"},"type":[{"coding":[{"system":"http://terminology.hl7.org/CodeSystem/encounter-type","code":"OKI"}]}],"subject":{"reference":"Patient/543b45e2-f1a1-4622-a7fa-732eb30e3035"},"period":{"start":"2022-04-11T00:00:00+00:00","end":"2022-04-17T00:00:00+00:00"}},"request":{"method":"POST","url":"Encounter"}},{"fullUrl":"Encounter/7664910f-0dd3-4b0f-a4bf-425ef06f5a7d","resource":{"resourceType":"Encounter","id":"7664910f-0dd3-4b0f-a4bf-425ef06f5a7d","status":"finished","class":{"system":"http://terminology.hl7.org/CodeSystem/v3-ActCode","code":"IMP","display":"inpatient encounter"},"type":[{"coding":[{"system":"http://terminology.hl7.org/CodeSystem/encounter-type","code":"BD/BM-clin"}]}],"subject":{"reference":"Patient/543b45e2-f1a1-4622-a7fa-732eb30e3035"},"period":{"start":"2022-09-09T00:00:00+00:00","end":"2022-09-15T00:00:00+00:00"}},"request":{"method":"POST","url":"Encounter"}},{"fullUrl":"Encounter/a4ac01fa-be26-4dc7-8add-121d318ea68e","resource":{"resourceType":"Encounter","id":"a4ac01fa-be26-4dc7-8add-121d318ea68e","status":"finished","class":{"system":"http://terminology.hl7.org/CodeSystem/v3-ActCode","code":"IMP","display":"inpatient encounter"},"type":[{"coding":[{"system":"http://terminology.hl7.org/CodeSystem/encounter-type","code":"CCS60"}]}],"subject":{"reference":"Patient/543b45e2-f1a1-4622-a7fa-732eb30e3035"},"period":{"start":"2022-03-20T00:00:00+00:00","end":"2022-03-29T00:00:00+00:00"}},"request":{"method":"POST","url":"Encounter"}},{"fullUrl":"Encounter/bf0c798b-42e1-4312-b9e2-ef8908bd7467","resource":{"resourceType":"Encounter","id":"bf0c798b-42e1-4312-b9e2-ef8908bd7467","status":"finished","class":{"system":"http://terminology.hl7.org/CodeSystem/v3-ActCode","code":"NONAC","display":"inpatient non-acute"},"type":[{"coding":[{"system":"http://terminology.hl7.org/CodeSystem/encounter-type","code":"OKI"}]}],"subject":{"reference":"Patient/543b45e2-f1a1-4622-a7fa-732eb30e3035"},"period":{"start":"2022-06-24T00:00:00+00:00","end":"2022-06-25T00:00:00+00:00"}},"request":{"method":"POST","url":"Encounter"}},{"fullUrl":"Encounter/61b255e9-6662-4f8f-a52d-4a9a807ac9d2","resource":{"resourceType":"Encounter","id":"61b255e9-6662-4f8f-a52d-4a9a807ac9d2","status":"finished","class":{"system":"http://terminology.hl7.org/CodeSystem/v3-ActCode","code":"ACUTE","display":"inpatient acute"},"type":[{"coding":[{"system":"http://terminology.hl7.org/CodeSystem/encounter-type","code":"CCS60"}]}],"subject":{"reference":"Patient/543b45e2-f1a1-4622-a7fa-732eb30e3035"},"period":{"start":"2022-02-06T00:00:00+00:00","end":"2022-02-10T00:00:00+00:00"}},"request":{"method":"POST","url":"Encounter"}},{"fullUrl":"Patient/b28566ab-de3d-475e-ae24-145df800e254","resource":{"resourceType":"Patient","id":"b28566ab-de3d-475e-ae24-145df800e254","identifier":[{"type":{"coding":[{"system":"http://terminology.hl7.org/CodeSystem/v2-0203","code":"MR"}]},"system":"urn:fhirgen:mrn","value":"495-25-0893"}],"name":[{"family":"Robinson","given":["Jenny"]}],"gender":"female","birthDate":"1972-04-29","address":[{"line":["3671 Brown Prairie Suite 236"],"city":"Porterland","state":"Florida"}]},"request":{"method":"POST","url":"Patient"}},{"fullUrl":"Observation/e1762788-59c0-483e-b7a1-6481ed24cff4","resource":{"resourceType":"Observation","id":"e1762788-59c0-483e-b7a1-6481ed24cff4","status":"final","code":{"coding":[{"system":"http://loinc.org","code":"47476-7"}]},"subject":{"reference":"Patient/b28566ab-de3d-475e-ae24-145df800e254"},"effectiveDateTime":"2022-05-18T00:00:00+00:00","valueRatio":{"numerator":{"value":1.0},"denominator":{"value":64.0}}},"request":{"method":"POST","url":"Observation"}},{"fullUrl":"Observation/2326662b-0bc6-4906-9ea5-fde59720df5e","resource":{"resourceType":"Observation","id":"2326662b-0bc6-4906-9ea5-fde59720df5e","status":"final","code":{"coding":[{"system":"http://loinc.org","code":"50695-6"}]},"subject":{"reference":"Patient/b28566ab-de3d-475e-ae24-145df800e254"},"effectiveDateTime":"2022-12-11T00:00:00+00:00","valueRatio":{"numerator":{"value":1.0},"denominator":{"value":64.0}}},"request":{"method":"POST","url":"Observation"}},{"fullUrl":"Observation/1ba2e5be-c341-4907-b816-103ea6939be0","resource":{"resourceType":"Observation","id":"1ba2e5be-c341-4907-b816-103ea6939be0","status":"final","code":{"coding":[{"system":"http://loinc.org","code":"22590-4"}]},"subject":{"reference":"Patient/b28566ab-de3d-475e-ae24-145df800e254"},"effectiveDateTime":"2022-12-16T00:00:00+00:00","valueRatio":{"numerator":{"value":1.0},"denominator":{"value":64.0}}},"request":{"method":"POST","url":"Observation"}},{"fullUrl":"Condition/9db9be37-73d3-459c-a697-01699f584b9f","resource":{"resourceType":"Condition","id":"9db9be37-73d3-459c-a697-01699f584b9f","code":{"coding":[{"system":"http://snomed.info/sct","code":"91554004"}]},"subject":{"reference":"Patient/b28566ab-de3d-475e-ae24-145df800e254"},"onsetDateTime":"2022-05-06T00:00:00+00:00"},"request":{"method":"POST","url":"Condition"}},{"fullUrl":"Condition/3481a8e0-b724-4c7b-a92c-61f682a84bae","resource":{"resourceType":"Condition","id":"3481a8e0-b724-4c7b-a92c-61f682a84bae","code":{"coding":[{"system":"http://snomed.info/sct","code":"386661006"}]},"subject":{"reference":"Patient/b28566ab-de3d-475e-ae24-145df800e254"},"onsetDateTime":"2022-03-22T00:00:00+00:00"},"request":{"method":"POST","url":"Condition"}},{"fullUrl":"Condition/2cd3739b-7509-47a4-acbe-b013621a78a2","resource":{"resourceType":"Condition","id":"2cd3739b-7509-47a4-acbe-b013621a78a2","code":{"coding":[{"system":"http://snomed.info/sct","code":"21522001"}]},"subject":{"reference":"Patient/b28566ab-de3d-475e-ae24-145df800e254"},"onsetDateTime":"2022-03-05T00:00:00+00:00"},"request":{"method":"POST","url":"Condition"}},{"fullUrl":"Condition/5d8d344f-2d3f-4eec-9ec3-df7a1eb4008d","resource":{"resourceType":"Condition","id":"5d8d344f-2d3f-4eec-9ec3-df7a1eb4008d","code":{"coding":[{"system":"http://snomed.info/sct","code":"418290006"}]},"subject":{"reference":"Patient/b28566ab-de3d-475e-ae24-145df800e254"},"onsetDateTime":"2022-01-28T00:00:00+00:00"},"request":{"method":"POST","url":"Condition"}},{"fullUrl":"Condition/44b547bf-36a3-48ef-8fcc-a9324f2cfdbc","resource":{"resourceType":"Condition","id":"44b547bf-36a3-48ef-8fcc-a9324f2cfdbc","code":{"coding":[{"system":"http://snomed.info/sct","code":"44882003"}]},"subject":{"reference":"Patient/b28566ab-de3d-475e-ae24-145df800e254"},"onsetDateTime":"2022-09-19T00:00:00+00:00"},"request":{"method":"POST","url":"Condition"}},{"fullUrl":"Observation/45ca166e-2f4a-4991-87fd-af69cfb7d612","resource":{"resourceType":"Observation","id":"45ca166e-2f4a-4991-87fd-af69cfb7d612","status":"final","code":{"coding":[{"system":"http://loinc.org","code":"804-5"}]},"subject":{"reference":"Patient/b28566ab-de3d-475e-ae24-145df800e254"},"effectiveDateTime":"2022-06-19T00:00:00+00:00","valueQuantity":{"value":9.4}},"request":{"method":"POST","url":"Observation"}},{"fullUrl":"Observation/c49b2164-9481-4b42-999c-a3e2f5b802d4","resource":{"resourceType":"Observation","id":"c49b2164-9481-4b42-999c-a3e2f5b802d4","status":"final","code":{"coding":[{"system":"http://loinc.org","code":"49498-9"}]},"subject":{"reference":"Patient/b28566ab-de3d-475e-ae24-145df800e254"},"effectiveDateTime":"2022-06-17T00:00:00+00:00","valueQuantity":{"value":7.3}},"request":{"method":"POST","url":"Observation"}},{"fullUrl":"Observation/aa97b487-a8cb-4025-a105-4b3a8d3d6ae6","resource":{"resourceType":"Observation","id":"aa97b487-a8cb-4025-a105-4b3a8d3d6ae6","status":"final","code":{"coding":[{"system":"http://loinc.org","code":"49498-9"}]},"subject":{"reference":"Patient/b28566ab-de3d-475e-ae24-145df800e254"},"effectiveDateTime":"2022-09-24T00:00:00+00:00"},"request":{"method":"POST","url":"Observation"}},{"fullUrl":"Observation/c6872a8d-b2d9-49b2-81dc-0c68dd73005d","resource":{"resourceType":"Observation","id":"c6872a8d-b2d9-49b2-81dc-0c68dd73005d","status":"final","code":{"coding":[{"system":"http://loinc.org","code":"49498-9"}]},"subject":{"reference":"Patient/b28566ab-de3d-475e-ae24-145df800e254"},"effectiveDateTime":"2022-02-05T00:00:00+00:00"},"request":{"method":"POST","url":"Observation"}},{"fullUrl":"Observation/c66f4b84-ab54-443d-982b-7e8f2f41cd52","resource":{"resourceType":"Observation","id":"c66f4b84-ab54-443d-982b-7e8f2f41cd52","status":"final","code":{"coding":[{"system":"http://loinc.org","code":"49498-9"}]},"subject":{"reference":"Patient/b28566ab-de3d-475e-ae24-145df800e254"},"effectiveDateTime":"2022-01-26T00:00:00+00:00"},"request":{"method":"POST","url":"Observation"}},{"fullUrl":"Procedure/8b9713cc-f07f-4f47-99d4-b344344277fa","resource":{"resourceType":"Procedure","id":"8b9713cc-f07f-4f47-99d4-b344344277fa","status":"completed","code":{"coding":[{"system":"http://snomed.info/sct","code":"115006"}]},"subject":{"reference":"Patient/b28566ab-de3d-475e-ae24-145df800e254"},"performedDateTime":"2022-05-01T00:00:00+00:00"},"request":{"method":"POST","url":"Procedure"}},{"fullUrl":"Procedure/8261935a-82a0-45fb-94dc-a9fc8aa94ac3","resource":{"resourceType":"Procedure","id":"8261935a-82a0-45fb-94dc-a9fc8aa94ac3","status":"completed","code":{"coding":[{"system":"http://snomed.info/sct","code":"104001"}]},"subject":{"reference":"Patient/b28566ab-de3d-475e-ae24-145df800e254"},"performedDateTime":"2022-10-28T00:00:00+00:00"},"request":{"method":"POST","url":"Procedure"}},{"fullUrl":"Procedure/38118f18-93fd-45fc-9bca-e32697f16a1e","resource":{"resourceType":"Procedure","id":"38118f18-93fd-45fc-9bca-e32697f16a1e","status":"completed","code":{"coding":[{"system":"http://snomed.info/sct","code":"104001"}]},"subject":{"reference":"Patient/b28566ab-de3d-475e-ae24-145df800e254"},"performedDateTime":"2022-12-19T00:00:00+00:00"},"request":{"method":"POST","url":"Procedure"}},{"fullUrl":"MedicationStatement/8681cd77-9c77-499c-a31a-3d9589cb9f46","resource":{"resourceType":"MedicationStatement","id":"8681cd77-9c77-499c-a31a-3d9589cb9f46","status":"completed","medicationCodeableConcept":{"coding":[{"system":"http://www.nlm.nih.gov/research/umls/rxnorm","code":"2193"}]},"subject":{"reference":"Patient/b28566ab-de3d-475e-ae24-145df800e254"},"effectiveDateTime":"2022-05-29T00:00:00+00:00","dosage":[{"doseAndRate":[{"doseQuantity":{"value":1.0,"unit":"TAB","system":"http://terminology.hl7.org/CodeSystem/v3-orderableDrugForm","code":"TAB"}}]}]},"request":{"method":"POST","url":"MedicationStatement"}},{"fullUrl":"MedicationStatement/b7c99b06-eab5-4726-8a8f-f97574903663","resource":{"resourceType":"MedicationStatement","id":"b7c99b06-eab5-4726-8a8f-f97574903663","status":"completed","medicationCodeableConcept":{"coding":[{"system":"http://www.nlm.nih.gov/research/umls/rxnorm","code":"2193"}]},"subject":{"reference":"Patient/b28566ab-de3d-475e-ae24-145df800e254"},"effectiveDateTime":"2022-01-07T00:00:00+00:00","dosage":[{"doseAndRate":[{"doseQuantity":{"value":1.0,"unit":"TAB","system":"http://terminology.hl7.org/CodeSystem/v3-orderableDrugForm","code":"TAB"}}]}]},"request":{"method":"POST","url":"MedicationStatement"}},{"fullUrl":"MedicationStatement/a55af5cf-db15-44a9-963e-f4bed34aa7f4","resource":{"resourceType":"MedicationStatement","id":"a55af5cf-db15-44a9-963e-f4bed34aa7f4","status":"completed","medicationCodeableConcept":{"coding":[{"system":"http://www.nlm.nih.gov/research/umls/rxnorm","code":"8698"}]},"subject":{"reference":"Patient/b28566ab-de3d-475e-ae24-145df800e254"},"effectiveDateTime":"2022-01-16T00:00:00+00:00","dosage":[{"doseAndRate":[{"doseQuantity":{"value":1.0,"unit":"TAB","system":"http://terminology.hl7.org/CodeSystem/v3-orderableDrugForm","code":"TAB"}}]}]},"request":{"method":"POST","url":"MedicationStatement"}},{"fullUrl":"MedicationStatement/3083e232-e8c0-4d31-a223-0035fcea7f10","resource":{"resourceType":"MedicationStatement","id":"3083e232-e8c0-4d31-a223-0035fcea7f10","status":"completed","medicationCodeableConcept":{"coding":[{"system":"http://www.nlm.nih.gov/research/umls/rxnorm","code":"18631"}]},"subject":{"reference":"Patient/b28566ab-de3d-475e-ae24-145df800e254"},"effectiveDateTime":"2022-01-01T00:00:00+00:00","dosage":[{"doseAndRate":[{"doseQuantity":{"value":1.0,"unit":"TAB","system":"http://terminology.hl7.org/CodeSystem/v3-orderableDrugForm","code":"TAB"}}]}]},"request":{"method":"POST","url":"MedicationStatement"}},{"fullUrl":"MedicationStatement/4949662a-1eff-47d3-b6a6-fc7b4bd96b70","resource":{"resourceType":"MedicationStatement","id":"4949662a-1eff-47d3-b6a6-fc7b4bd96b70","status":"completed","medicationCodeableConcept":{"coding":[{"system":"http://www.nlm.nih.gov/research/umls/rxnorm","code":"2193"}]},"subject":{"reference":"Patient/b28566ab-de3d-475e-ae24-145df800e254"},"effectiveDateTime":"2022-06-02T00:00:00+00:00","dosage":[{"doseAndRate":[{"doseQuantity":{"value":2.0,"unit":"TAB","system":"http://terminology.hl7.org/CodeSystem/v3-orderableDrugForm","code":"TAB"}}]}]},"request":{"method":"POST","url":"MedicationStatement"}},{"fullUrl":"MedicationStatement/d8c6b8e1-c344-40ba-96a7-13a4d4f8ce73","resource":{"resourceType":"MedicationStatement","id":"d8c6b8e1-c344-40ba-96a7-13a4d4f8ce73","status":"completed","medicationCodeableConcept":{"coding":[{"system":"http://www.nlm.nih.gov/research/umls/rxnorm","code":"7984"}]},"subject":{"reference":"Patient/b28566ab-de3d-475e-ae24-145df800e254"},"effectiveDateTime":"2022-01-25T00:00:00+00:00","dosage":[{"doseAndRate":[{"doseQuantity":{"value":1.0,"unit":"TAB","system":"http://terminology.hl7.org/CodeSystem/v3-orderableDrugForm","code":"TAB"}}]}]},"request":{"method":"POST","url":"MedicationStatement"}},{"fullUrl":"MedicationStatement/ee8bc239-0849-4d8f-90c5-5b23a7558f55","resource":{"resourceType":"MedicationStatement","id":"ee8bc239-0849-4d8f-90c5-5b23a7558f55","status":"completed","medicationCodeableConcept":{"coding":[{"system":"http://www.nlm.nih.gov/research/umls/rxnorm","code":"3640"}]},"subject":{"reference":"Patient/b28566ab-de3d-475e-ae24-145df800e254"},"effectiveDateTime":"2022-01-31T00:00:00+00:00","dosage":[{"doseAndRate":[{"doseQuantity":{"value":2.0,"unit":"TAB","system":"http://terminology.hl7.org/CodeSystem/v3-orderableDrugForm","code":"TAB"}}]}]},"request":{"method":"POST","url":"MedicationStatement"}},{"fullUrl":"MedicationStatement/6f3e1dd0-2c67-497f-8379-6d3dc0cbe7e9","resource":{"resourceType":"MedicationStatement","id":"6f3e1dd0-2c67-497f-8379-6d3dc0cbe7e9","status":"completed","medicationCodeableConcept":{"coding":[{"system":"http://www.nlm.nih.gov/research/umls/rxnorm","code":"3640"}]},"subject":{"reference":"Patient/b28566ab-de3d-475e-ae24-145df800e254"},"effectiveDateTime":"2022-09-14T00:00:00+00:00","dosage":[{"doseAndRate":[{"doseQuantity":{"value":5.4,"unit":"TAB","system":"http://terminology.hl7.org/CodeSystem/v3-orderableDrugForm","code":"TAB"}}]}]},"request":{"method":"POST","url":"MedicationStatement"}},{"fullUrl":"MedicationStatement/5feb3a97-5278-4781-b8ec-df206f241c78","resource":{"resourceType":"MedicationStatement","id":"5feb3a97-5278-4781-b8ec-df206f241c78","status":"completed","medicationCodeableConcept":{"coding":[{"system":"http://www.nlm.nih.gov/research/umls/rxnorm","code":"7980"}]},"subject":{"reference":"Patient/b28566ab-de3d-475e-ae24-145df800e254"},"effectiveDateTime":"2022-09-06T00:00:00+00:00","dosage":[{"doseAndRate":[{"doseQuantity":{"value":5.0,"unit":"TAB","system":"http://terminology.hl7.org/CodeSystem/v3-orderableDrugForm","code":"TAB"}}]}]},"request":{"method":"POST","url":"MedicationStatement"}},{"fullUrl":"MedicationStatement/7762057e-3140-4995-97e5-aa13977ae4cd","resource":{"resourceType":"MedicationStatement","id":"7762057e-3140-4995-97e5-aa13977ae4cd","status":"completed","medicationCodeableConcept":{"coding":[{"system":"http://www.nlm.nih.gov/research/umls/rxnorm","code":"3640"}]},"subject":{"reference":"Patient/b28566ab-de3d-475e-ae24-145df800e254"},"effectiveDateTime":"2022-10-11T00:00:00+00:00","dosage":[{"doseAndRate":[{"doseQuantity":{"value":3.8,"unit":"TAB","system":"http://terminology.hl7.org/CodeSystem/v3-orderableDrugForm","code":"TAB"}}]}]},"request":{"method":"POST","url":"MedicationStatement"}},{"fullUrl":"MedicationStatement/1eaee127-c5a9-4b01-b4c1-e70035727100","resource":{"resourceType":"MedicationStatement","id":"1eaee127-c5a9-4b01-b4c1-e70035727100","status":"completed","medicationCodeableConcept":{"coding":[{"system":"http://www.nlm.nih.gov/research/umls/rxnorm","code":"18631"}]},"subject":{"reference":"Patient/b28566ab-de3d-475e-ae24-145df800e254"},"effectiveDateTime":"2022-05-30T00:00:00+00:00","dosage":[{"doseAndRate":[{"doseQuantity":{"value":4.1,"unit":"TAB","system":"http://terminology.hl7.org/CodeSystem/v3-orderableDrugForm","code":"TAB"}}]}]},"request":{"method":"POST","url":"MedicationStatement"}},{"fullUrl":"MedicationStatement/4187b958-b313-4f09-83e1-0658bfbd513f","resource":{"resourceType":"MedicationStatement","id":"4187b958-b313-4f09-83e1-0658bfbd513f","status":"completed","medicationCodeableConcept":{"coding":[{"system":"http://www.nlm.nih.gov/research/umls/rxnorm","code":"7980"}]},"subject":{"reference":"Patient/b28566ab-de3d-475e-ae24-145df800e254"},"effectiveDateTime":"2022-09-27T00:00:00+00:00","dosage":[{"doseAndRate":[{"doseQuantity":{"value":4.2,"unit":"TAB","system":"http://terminology.hl7.org/CodeSystem/v3-orderableDrugForm","code":"TAB"}}]}]},"request":{"method":"POST","url":"MedicationStatement"}},{"fullUrl":"MedicationStatement/694bc542-2d1c-4721-863c-ba6e4275303b","resource":{"resourceType":"MedicationStatement","id":"694bc542-2d1c-4721-863c-ba6e4275303b","status":"completed","medicationCodeableConcept":{"coding":[{"system":"http://www.nlm.nih.gov/research/umls/rxnorm","code":"7980"}]},"subject":{"reference":"Patient/b28566ab-de3d-475e-ae24-145df800e254"},"effectiveDateTime":"2022-10-20T00:00:00+00:00","dosage":[{"doseAndRate":[{"doseQuantity":{"value":4.1,"unit":"TAB","system":"http://terminology.hl7.org/CodeSystem/v3-orderableDrugForm","code":"TAB"}}]}]},"request":{"method":"POST","url":"MedicationStatement"}},{"fullUrl":"MedicationStatement/dfe57605-5713-4489-b5d9-730e854d29b1","resource":{"resourceType":"MedicationStatement","id":"dfe57605-5713-4489-b5d9-730e854d29b1","status":"completed","medicationCodeableConcept":{"coding":[{"system":"http://www.nlm.nih.gov/research/umls/rxnorm","code":"8698"}]},"subject":{"reference":"Patient/b28566ab-de3d-475e-ae24-145df800e254"},"effectiveDateTime":"2022-09-07T00:00:00+00:00","dosage":[{"doseAndRate":[{"doseQuantity":{"value":3.3,"unit":"TAB","system":"http://terminology.hl7.org/CodeSystem/v3-orderableDrugForm","code":"TAB"}}]}]},"request":{"method":"POST","url":"MedicationStatement"}},{"fullUrl":"MedicationStatement/156fa38b-8a61-404d-87b4-9e404d9a848a","resource":{"resourceType":"MedicationStatement","id":"156fa38b-8a61-404d-87b4-9e404d9a848a","status":"completed","medicationCodeableConcept":{"coding":[{"system":"http://www.nlm.nih.gov/research/umls/rxnorm","code":"2193"}]},"subject":{"reference":"Patient/b28566ab-de3d-475e-ae24-145df800e254"},"effectiveDateTime":"2022-03-25T00:00:00+00:00","dosage":[{"doseAndRate":[{"doseQuantity":{"value":4.0,"unit":"TAB","system":"http://terminology.hl7.org/CodeSystem/v3-orderableDrugForm","code":"TAB"}}]}]},"request":{"method":"POST","url":"MedicationStatement"}},{"fullUrl":"Encounter/d05e32ed-2530-4c77-ab83-ac42160a369b","resource":{"resourceType":"Encounter","id":"d05e32ed-2530-4c77-ab83-ac42160a369b","status":"finished","class":{"system":"http://terminology.hl7.org/CodeSystem/v3-ActCode","code":"IMP","display":"inpatient encounter"},"type":[{"coding":[{"system":"http://terminology.hl7.org/CodeSystem/encounter-type","code":"BD/BM-clin"}]}],"subject":{"reference":"Patient/b28566ab-de3d-475e-ae24-145df800e254"},"period":{"start":"2022-11-13T00:00:00+00:00","end":"2022-11-22T00:00:00+00:00"}},"request":{"method":"POST","url":"Encounter"}},{"fullUrl":"Encounter/22acb33f-f3e8-481f-b5f4-739aede45242","resource":{"resourceType":"Encounter","id":"22acb33f-f3e8-481f-b5f4-739aede45242","status":"finished","class":{"system":"http://terminology.hl7.org/CodeSystem/v3-ActCode","code":"IMP","display":"inpatient encounter"},"type":[{"coding":[{"system":"http://terminology.hl7.org/CodeSystem/encounter-type","code":"OKI"}]}],"subject":{"reference":"Patient/b28566ab-de3d-475e-ae24-145df800e254"},"period":{"start":"2022-07-24T00:00:00+00:00","end":"2022-07-27T00:00:00+00:00"}},"request":{"method":"POST","url":"Encounter"}},{"fullUrl":"Encounter/0fcf9a66-1c58-4d76-9e22-91704ae7c6d1","resource":{"resourceType":"Encounter","id":"0fcf9a66-1c58-4d76-9e22-91704ae7c6d1","status":"finished","class":{"system":"http://terminology.hl7.org/CodeSystem/v3-ActCode","code":"FLD","display":"field"},"type":[{"coding":[{"system":"http://terminology.hl7.org/CodeSystem/encounter-type","code":"BD/BM-clin"}]}],"subject":{"reference":"Patient/b28566ab-de3d-475e-ae24-145df800e254"},"period":{"start":"2022-04-22T00:00:00+00:00","end":"2022-04-28T00:00:00+00:00"}},"request":{"method":"POST","url":"Encounter"}},{"fullUrl":"Encounter/ef594f3c-439e-440a-81c6-25accfdd6b22","resource":{"resourceType":"Encounter","id":"ef594f3c-439e-440a-81c6-25accfdd6b22","status":"finished","class":{"system":"http://terminology.hl7.org/CodeSystem/v3-ActCode","code":"ACUTE","display":"inpatient acute"},"type":[{"coding":[{"system":"http://terminology.hl7.org/CodeSystem/encounter-type","code":"ADMS"}]}],"subject":{"reference":"Patient/b28566ab-de3d-475e-ae24-145df800e254"},"period":{"start":"2022-01-14T00:00:00+00:00","end":"2022-01-19T00:00:00+00:00"}},"request":{"method":"POST","url":"Encounter"}},{"fullUrl":"Patient/daaec007-fa64-4241-bdfc-9d8a63e7262f","resource":{"resourceType":"Patient","id":"daaec007-fa64-4241-bdfc-9d8a63e7262f","identifier":[{"type":{"coding":[{"system":"http://terminology.hl7.org/CodeSystem/v2-0203","code":"MR"}]},"system":"urn:fhirgen:mrn","value":"605-39-1499"}],"name":[{"family":"Johnson","given":["Christopher"]}],"gender":"other","birthDate":"1998-05-05","address":[{"line":["80933 Danielle Prairie"],"city":"Johnsonmouth","state":"Maine"}]},"request":{"method":"POST","url":"Patient"}},{"fullUrl":"Observation/5c6137e3-654f-42fb-9a8e-d29475c80112","resource":{"resourceType":"Observation","id":"5c6137e3-654f-42fb-9a8e-d29475c80112","status":"final","code":{"coding":[{"system":"http://loinc.org","code":"22590-4"}]},"subject":{"reference":"Patient/daaec007-fa64-4241-bdfc-9d8a63e7262f"},"effectiveDateTime":"2022-05-27T00:00:00+00:00","valueRatio":{"numerator":{"value":1.0},"denominator":{"value":64.0}}},"request":{"method":"POST","url":"Observation"}},{"fullUrl":"Observation/15adfbab-65eb-432f-8c1e-01852f9351fd","resource":{"resourceType":"Observation","id":"15adfbab-65eb-432f-8c1e-01852f9351fd","status":"final","code":{"coding":[{"system":"http://loinc.org","code":"50695-6"}]},"subject":{"reference":"Patient/daaec007-fa64-4241-bdfc-9d8a63e7262f"},"effectiveDateTime":"2022-12-29T00:00:00+00:00","valueRatio":{"numerator":{"value":1.0},"denominator":{"value":64.0}}},"request":{"method":"POST","url":"Observation"}},{"fullUrl":"Condition/e8cd94ff-aef3-42a3-b2a6-29b0e8e1af8e","resource":{"resourceType":"Condition","id":"e8cd94ff-aef3-42a3-b2a6-29b0e8e1af8e","code":{"coding":[{"system":"http://snomed.info/sct","code":"91554004"}]},"subject":{"reference":"Patient/daaec007-fa64-4241-bdfc-9d8a63e7262f"},"onsetDateTime":"2022-11-20T00:00:00+00:00"},"request":{"method":"POST","url":"Condition"}},{"fullUrl":"Condition/e57b5ddc-f3e6-4b81-9234-50f0e0ecf18b","resource":{"resourceType":"Condition","id":"e57b5ddc-f3e6-4b81-9234-50f0e0ecf18b","code":{"coding":[{"system":"http://snomed.info/sct","code":"386661006"}]},"subject":{"reference":"Patient/daaec007-fa64-4241-bdfc-9d8a63e7262f"},"onsetDateTime":"2022-02-15T00:00:00+00:00"},"request":{"method":"POST","url":"Condition"}},{"fullUrl":"Condition/1c15b545-9c27-4a11-9b39-9b36a34b5686","resource":{"resourceType":"Condition","id":"1c15b545-9c27-4a11-9b39-9b36a34b5686","code":{"coding":[{"system":"http://snomed.info/sct","code":"709977002"}]},"subject":{"reference":"Patient/daaec007-fa64-4241-bdfc-9d8a63e7262f"},"onsetDateTime":"2022-05-20T00:00:00+00:00"},"request":{"method":"POST","url":"Condition"}},{"fullUrl":"Observation/d3134fd6-bceb-4628-86dd-b85cbabfb6e1","resource":{"resourceType":"Observation","id":"d3134fd6-bceb-4628-86dd-b85cbabfb6e1","status":"final","code":{"coding":[{"system":"http://loinc.org","code":"804-5"}]},"subject":{"reference":"Patient/daaec007-fa64-4241-bdfc-9d8a63e7262f"},"effectiveDateTime":"2022-06-26T00:00:00+00:00","valueQuantity":{"value":4.7}},"request":{"method":"POST","url":"Observation"}},{"fullUrl":"Observation/563deace-fd1e-4872-989a-cd12911ad4af","resource":{"resourceType":"Observation","id":"563deace-fd1e-4872-989a-cd12911ad4af","status":"final","code":{"coding":[{"system":"http://loinc.org","code":"804-5"}]},"subject":{"reference":"Patient/daaec007-fa64-4241-bdfc-9d8a63e7262f"},"effectiveDateTime":"2022-07-31T00:00:00+00:00","valueQuantity":{"value":10.0}},"request":{"method":"POST","url":"Observation"}},{"fullUrl":"Observation/6392343b-27b9-4de8-a8d9-ac3ca4fdf851","resource":{"resourceType":"Observation","id":"6392343b-27b9-4de8-a8d9-ac3ca4fdf851","status":"final","code":{"coding":[{"system":"http://loinc.org","code":"26464-8"}]},"subject":{"reference":"Patient/daaec007-fa64-4241-bdfc-9d8a63e7262f"},"effectiveDateTime":"2022-09-20T00:00:00+00:00","valueQuantity":{"value":9.8}},"request":{"method":"POST","url":"Observation"}},{"fullUrl":"Observation/e54012da-706c-4e19-8396-42982f2bc014","resource":{"resourceType":"Observation","id":"e54012da-706c-4e19-8396-42982f2bc014","status":"final","code":{"coding":[{"system":"http://loinc.org","code":"49498-9"}]},"subject":{"reference":"Patient/daaec007-fa64-4241-bdfc-9d8a63e7262f"},"effectiveDateTime":"2022-11-22T00:00:00+00:00"},"request":{"method":"POST","url":"Observation"}},{"fullUrl":"Observation/de0330eb-b24e-46b5-afea-7e22b2b5644d","resource":{"resourceType":"Observation","id":"de0330eb-b24e-46b5-afea-7e22b2b5644d","status":"final","code":{"coding":[{"system":"http://loinc.org","code":"49498-9"}]},"subject":{"reference":"Patient/daaec007-fa64-4241-bdfc-9d8a63e7262f"},"effectiveDateTime":"2022-10-01T00:00:00+00:00"},"request":{"method":"POST","url":"Observation"}},{"fullUrl":"Procedure/77b37aa6-e414-46b4-8e45-f689e1eae154","resource":{"resourceType":"Procedure","id":"77b37aa6-e414-46b4-8e45-f689e1eae154","status":"completed","code":{"coding":[{"system":"http://snomed.info/sct","code":"104001"}]},"subject":{"reference":"Patient/daaec007-fa64-4241-bdfc-9d8a63e7262f"},"performedDateTime":"2022-06-20T00:00:00+00:00"},"request":{"method":"POST","url":"Procedure"}},{"fullUrl":"Procedure/490a61e2-4e3e-4e2a-98aa-60406508c0ba","resource":{"resourceType":"Procedure","id":"490a61e2-4e3e-4e2a-98aa-60406508c0ba","status":"completed","code":{"coding":[{"system":"http://snomed.info/sct","code":"146005"}]},"subject":{"reference":"Patient/daaec007-fa64-4241-bdfc-9d8a63e7262f"},"performedDateTime":"2022-06-27T00:00:00+00:00"},"request":{"method":"POST","url":"Procedure"}},{"fullUrl":"Procedure/022d5d0b-f833-49ff-a38b-39c0f7d9dc57","resource":{"resourceType":"Procedure","id":"022d5d0b-f833-49ff-a38b-39c0f7d9dc57","status":"completed","code":{"coding":[{"system":"http://snomed.info/sct","code":"647000"}]},"subject":{"reference":"Patient/daaec007-fa64-4241-bdfc-9d8a63e7262f"},"performedDateTime":"2022-08-03T00:00:00+00:00"},"request":{"method":"POST","url":"Procedure"}},{"fullUrl":"MedicationStatement/0af89231-5164-4263-a3be-d02549d23845","resource":{"resourceType":"MedicationStatement","id":"0af89231-5164-4263-a3be-d02549d23845","status":"completed","medicationCodeableConcept":{"coding":[{"system":"http://www.nlm.nih.gov/research/umls/rxnorm","code":"3640"}]},"subject":{"reference":"Patient/daaec007-fa64-4241-bdfc-9d8a63e7262f"},"effectiveDateTime":"2022-11-01T00:00:00+00:00","dosage":[{"doseAndRate":[{"doseQuantity":{"value":2.0,"unit":"TAB","system":"http://terminology.hl7.org/CodeSystem/v3-orderableDrugForm","code":"TAB"}}]}]},"request":{"method":"POST","url":"MedicationStatement"}},{"fullUrl":"MedicationStatement/362bc9d0-aa20-48dd-8117-c5e8d6e08a23","resource":{"resourceType":"MedicationStatement","id":"362bc9d0-aa20-48dd-8117-c5e8d6e08a23","status":"completed","medicationCodeableConcept":{"coding":[{"system":"http://www.nlm.nih.gov/research/umls/rxnorm","code":"8698"}]},"subject":{"reference":"Patient/daaec007-fa64-4241-bdfc-9d8a63e7262f"},"effectiveDateTime":"2022-11-25T00:00:00+00:00","dosage":[{"doseAndRate":[{"doseQuantity":{"value":1.0,"unit":"TAB","system":"http://terminology.hl7.org/CodeSystem/v3-orderableDrugForm","code":"TAB"}}]}]},"request":{"method":"POST","url":"MedicationStatement"}},{"fullUrl":"MedicationStatement/c037cabc-b4b9-4cb1-96b0-3283ac56f810","resource":{"resourceType":"MedicationStatement","id":"c037cabc-b4b9-4cb1-96b0-3283ac56f810","status":"completed","medicationCodeableConcept":{"coding":[{"system":"http://www.nlm.nih.gov/research/umls/rxnorm","code":"18631"}]},"subject":{"reference":"Patient/daaec007-fa64-4241-bdfc-9d8a63e7262f"},"effectiveDateTime":"2022-10-05T00:00:00+00:00","dosage":[{"doseAndRate":[{"doseQuantity":{"value":5.8,"unit":"TAB","system":"http://terminology.hl7.org/CodeSystem/v3-orderableDrugForm","code":"TAB"}}]}]},"request":{"method":"POST","url":"MedicationStatement"}},{"fullUrl":"MedicationStatement/7b82e612-e0eb-4a71-acd0-843a3ea844da","resource":{"resourceType":"MedicationStatement","id":"7b82e612-e0eb-4a71-acd0-843a3ea844da","status":"completed","medicationCodeableConcept":{"coding":[{"system":"http://www.nlm.nih.gov/research/umls/rxnorm","code":"18631"}]},"subject":{"reference":"Patient/daaec007-fa64-4241-bdfc-9d8a63e7262f"},"effectiveDateTime":"2022-07-02T00:00:00+00:00","dosage":[{"doseAndRate":[{"doseQuantity":{"value":4.2,"unit":"TAB","system":"http://terminology.hl7.org/CodeSystem/v3-orderableDrugForm","code":"TAB"}}]}]},"request":{"method":"POST","url":"MedicationStatement"}},{"fullUrl":"MedicationStatement/82d06ec7-422d-4a04-8b01-c6a0ca56669f","resource":{"resourceType":"MedicationStatement","id":"82d06ec7-422d-4a04-8b01-c6a0ca56669f","status":"completed","medicationCodeableConcept":{"coding":[{"system":"http://www.nlm.nih.gov/research/umls/rxnorm","code":"3640"}]},"subject":{"reference":"Patient/daaec007-fa64-4241-bdfc-9d8a63e7262f"},"effectiveDateTime":"2022-11-17T00:00:00+00:00","dosage":[{"doseAndRate":[{"doseQuantity":{"value":5.8,"unit":"TAB","system":"http://terminology.hl7.org/CodeSystem/v3-orderableDrugForm","code":"TAB"}}]}]},"request":{"method":"POST","url":"MedicationStatement"}},{"fullUrl":"MedicationStatement/d68a7ded-4fd3-439f-9d41-ad2554f11f3c","resource":{"resourceType":"MedicationStatement","id":"d68a7ded-4fd3-439f-9d41-ad2554f11f3c","status":"completed","medicationCodeableConcept":{"coding":[{"system":"http://www.nlm.nih.gov/research/umls/rxnorm","code":"3640"}]},"subject":{"reference":"Patient/daaec007-fa64-4241-bdfc-9d8a63e7262f"},"effectiveDateTime":"2022-09-10T00:00:00+00:00","dosage":[{"doseAndRate":[{"doseQuantity":{"value":6.2,"unit":"TAB","system":"http://terminology.hl7.org/CodeSystem/v3-orderableDrugForm","code":"TAB"}}]}]},"request":{"method":"POST","url":"MedicationStatement"}},{"fullUrl":"MedicationStatement/a922c61d-c53d-454f-b36b-3c83c529e557","resource":{"resourceType":"MedicationStatement","id":"a922c61d-c53d-454f-b36b-3c83c529e557","status":"completed","medicationCodeableConcept":{"coding":[{"system":"http://www.nlm.nih.gov/research/umls/rxnorm","code":"8698"}]},"subject":{"reference":"Patient/daaec007-fa64-4241-bdfc-9d8a63e7262f"},"effectiveDateTime":"2022-12-09T00:00:00+00:00","dosage":[{"doseAndRate":[{"doseQuantity":{"value":4.2,"unit":"TAB","system":"http://terminology.hl7.org/CodeSystem/v3-orderableDrugForm","code":"TAB"}}]}]},"request":{"method":"POST","url":"MedicationStatement"}},{"fullUrl":"MedicationStatement/5e53c4de-384a-46cc-a996-08f216fabd8b","resource":{"resourceType":"MedicationStatement","id":"5e53c4de-384a-46cc-a996-08f216fabd8b","status":"completed","medicationCodeableConcept":{"coding":[{"system":"http://www.nlm.nih.gov/research/umls/rxnorm","code":"7984"}]},"subject":{"reference":"Patient/daaec007-fa64-4241-bdfc-9d8a63e7262f"},"effectiveDateTime":"2022-11-28T00:00:00+00:00","dosage":[{"doseAndRate":[{"doseQuantity":{"value":3.7,"unit":"TAB","system":"http://terminology.hl7.org/CodeSystem/v3-orderableDrugForm","code":"TAB"}}]}]},"request":{"method":"POST","url":"MedicationStatement"}},{"fullUrl":"MedicationStatement/f71bb293-a92d-48ce-91c9-2050646f2ec6","resource":{"resourceType":"MedicationStatement","id":"f71bb293-a92d-48ce-91c9-2050646f2ec6","status":"completed","medicationCodeableConcept":{"coding":[{"system":"http://www.nlm.nih.gov/research/umls/rxnorm","code":"7984"}]},"subject":{"reference":"Patient/daaec007-fa64-4241-bdfc-9d8a63e7262f"},"effectiveDateTime":"2022-04-03T00:00:00+00:00","dosage":[{"doseAndRate":[{"doseQuantity":{"value":4.9,"unit":"TAB","system":"http://terminology.hl7.org/CodeSystem/v3-orderableDrugForm","code":"TAB"}}]}]},"request":{"method":"POST","url":"MedicationStatement"}},{"fullUrl":"MedicationStatement/27baec7a-8fe1-4d16-b719-c8343b32b2dc","resource":{"resourceType":"MedicationStatement","id":"27baec7a-8fe1-4d16-b719-c8343b32b2dc","status":"completed","medicationCodeableConcept":{"coding":[{"system":"http://www.nlm.nih.gov/research/umls/rxnorm","code":"10395"}]},"subject":{"reference":"Patient/daaec007-fa64-4241-bdfc-9d8a63e7262f"},"effectiveDateTime":"2022-07-07T00:00:00+00:00","dosage":[{"doseAndRate":[{"doseQuantity":{"value":3.9,"unit":"TAB","system":"http://terminology.hl7.org/CodeSystem/v3-orderableDrugForm","code":"TAB"}}]}]},"request":{"method":"POST","url":"MedicationStatement"}},{"fullUrl":"Encounter/f8f3f8c3-047a-488a-b956-6b7f50877e5c","resource":{"resourceType":"Encounter","id":"f8f3f8c3-047a-488a-b956-6b7f50877e5c","status":"finished","class":{"system":"http://terminology.hl7.org/CodeSystem/v3-ActCode","code":"IMP","display":"inpatient encounter"},"type":[{"coding":[{"system":"http://terminology.hl7.org/CodeSystem/encounter-type","code":"BD/BM-clin"}]}],"subject":{"reference":"Patient/daaec007-fa64-4241-bdfc-9d8a63e7262f"},"period":{"start":"2022-09-02T00:00:00+00:00","end":"2022-09-02T00:00:00+00:00"}},"request":{"method":"POST","url":"Encounter"}},{"fullUrl":"Encounter/c331016c-e223-4314-8a20-f6bf457fe77c","resource":{"resourceType":"Encounter","id":"c331016c-e223-4314-8a20-f6bf457fe77c","status":"finished","class":{"system":"http://terminology.hl7.org/CodeSystem/v3-ActCode","code":"IMP","display":"inpatient encounter"},"type":[{"coding":[{"system":"http://terminology.hl7.org/CodeSystem/encounter-type","code":"CCS60"}]}],"subject":{"reference":"Patient/daaec007-fa64-4241-bdfc-9d8a63e7262f"},"period":{"start":"2022-07-21T00:00:00+00:00","end":"2022-07-22T00:00:00+00:00"}},"request":{"method":"POST","url":"Encounter"}},{"fullUrl":"Encounter/740a228f-6c20-455a-b3d0-e9613541a1bf","resource":{"resourceType":"Encounter","id":"740a228f-6c20-455a-b3d0-e9613541a1bf","status":"finished","class":{"system":"http://terminology.hl7.org/CodeSystem/v3-ActCode","code":"IMP","display":"inpatient encounter"},"type":[{"coding":[{"system":"http://terminology.hl7.org/CodeSystem/encounter-type","code":"OKI"}]}],"subject":{"reference":"Patient/daaec007-fa64-4241-bdfc-9d8a63e7262f"},"period":{"start":"2022-03-23T00:00:00+00:00","end":"2022-03-27T00:00:00+00:00"}},"request":{"method":"POST","url":"Encounter"}},{"fullUrl":"Encounter/aef22c04-64c7-40ff-b0e6-ba63582e7c4b","resource":{"resourceType":"Encounter","id":"aef22c04-64c7-40ff-b0e6-ba63582e7c4b","status":"finished","class":{"system":"http://terminology.hl7.org/CodeSystem/v3-ActCode","code":"FLD","display":"field"},"type":[{"coding":[{"system":"http://terminology.hl7.org/CodeSystem/encounter-type","code":"BD/BM-clin"}]}],"subject":{"reference":"Patient/daaec007-fa64-4241-bdfc-9d8a63e7262f"},"period":{"start":"2022-05-21T00:00:00+00:00","end":"2022-05-29T00:00:00+00:00"}},"request":{"method":"POST","url":"Encounter"}},{"fullUrl":"Encounter/4ad6530d-1ebb-46b6-a5e3-fa932e1092d5","resource":{"resourceType":"Encounter","id":"4ad6530d-1ebb-46b6-a5e3-fa932e1092d5","status":"finished","class":{"system":"http://terminology.hl7.org/CodeSystem/v3-ActCode","code":"FLD","display":"field"},"type":[{"coding":[{"system":"http://terminology.hl7.org/CodeSystem/encounter-type","code":"CCS60"}]}],"subject":{"reference":"Patient/daaec007-fa64-4241-bdfc-9d8a63e7262f"},"period":{"start":"2022-01-07T00:00:00+00:00","end":"2022-01-16T00:00:00+00:00"}},"request":{"method":"POST","url":"Encounter"}},{"fullUrl":"Encounter/76600dec-8374-481d-867f-09127618db31","resource":{"resourceType":"Encounter","id":"76600dec-8374-481d-867f-09127618db31","status":"finished","class":{"system":"http://terminology.hl7.org/CodeSystem/v3-ActCode","code":"IMP","display":"inpatient encounter"},"type":[{"coding":[{"system":"http://terminology.hl7.org/CodeSystem/encounter-type","code":"OKI"}]}],"subject":{"reference":"Patient/daaec007-fa64-4241-bdfc-9d8a63e7262f"},"period":{"start":"2022-12-22T00:00:00+00:00","end":"2022-12-23T00:00:00+00:00"}},"request":{"method":"POST","url":"Encounter"}}]}