{"resourceType":"Bundle","id":"31bef434-6c09-47b0-abd1-8a27170b28d6","type":"collection","entry":[{"fullUrl":"Patient/8d5f4ae6-6503-4fcc-ba92-2821cdf69e43","resource":{"resourceType":"Patient","id":"8d5f4ae6-6503-4fcc-ba92-2821cdf69e43","meta":{"profile":["http://hl7.org/fhir/us/core/StructureDefinition/us-core-patient"]},"extension":[{"extension":[{"url":"ombCategory","valueCoding":{"system":"http://terminology.hl7.org/CodeSystem/v3-NullFlavor","code":"ASKU","display":"asked but unknown"}},{"url":"text","valueString":"asked but unknown"}],"url":"http://hl7.org/fhir/us/core/StructureDefinition/us-core-race"},{"extension":[{"url":"ombCategory","valueCoding":{"system":"urn:oid:2.16.840.1.113883.6.238","code":"2135-2","display":"Hispanic or Latino"}},{"url":"text","valueString":"Hispanic or Latino"}],"url":"http://hl7.org/fhir/us/core/StructureDefinition/us-core-ethnicity"}],"identifier":[{"type":{"coding":[{"system":"http://terminology.hl7.org/CodeSystem/v2-0203","code":"MR"}]},"system":"urn:fhirgen:mrn","value":"557-02-3489"}],"name":[{"use":"official","family":"Wilcox","given":["Tracy"]},{"use":"maiden","family":"Cannon"}],"telecom":[{"system":"phone","value":"631-865-9293x993","use":"work"},{"system":"email","value":"harnold@yahoo.com","use":"work"}],"gender":"male","birthDate":"1949-02-02","address":[{"use":"home","line":["263 Powell Center Suite 682"],"city":"East Victoriaburgh","state":"WI","postalCode":"83605"},{"use":"old","line":["35740 Luis Bypass"],"city":"Port Yolandatown","state":"NJ","postalCode":"48632"}]}},{"fullUrl":"Observation/a1764742-96b1-42d1-b1c6-b3916aaf5b95","resource":{"resourceType":"Observation","id":"a1764742-96b1-42d1-b1c6-b3916aaf5b95","meta":{"profile":["http://hl7.org/fhir/us/core/StructureDefinition/us-core-observation-lab"]},"status":"final","category":[{"coding":[{"system":"http://terminology.hl7.org/CodeSystem/observation-category","code":"laboratory","display":"Laboratory"}]}],"code":{"coding":[{"system":"http://loinc.org","code":"26009-1"}]},"subject":{"reference":"Patient/8d5f4ae6-6503-4fcc-ba92-2821cdf69e43"},"effectiveDateTime":"2022-07-05T00:00:00+00:00","valueRatio":{"numerator":{"value":1},"denominator":{"value":4}}}},{"fullUrl":"Observation/128ab85b-9d86-4263-8c7d-d0bce03979d2","resource":{"resourceType":"Observation","id":"128ab85b-9d86-4263-8c7d-d0bce03979d2","meta":{"profile":["http://hl7.org/fhir/us/core/StructureDefinition/us-core-observation-lab"]},"status":"final","category":[{"coding":[{"system":"http://terminology.hl7.org/CodeSystem/observation-category","code":"laboratory","display":"Laboratory"}]}],"code":{"coding":[{"system":"http://loinc.org","code":"34382-2"}]},"subject":{"reference":"Patient/8d5f4ae6-6503-4fcc-ba92-2821cdf69e43"},"effectiveDateTime":"2022-08-01T00:00:00+00:00","valueRatio":{"numerator":{"value":1},"denominator":{"value":32}}}},{"fullUrl":"Condition/a23458c8-857a-40a4-b92c-4c4c68bc9161","resource":{"resourceType":"Condition","id":"a23458c8-857a-40a4-b92c-4c4c68bc9161","meta":{"profile":["http://hl7.org/fhir/us/core/StructureDefinition/us-core-condition"]},"clinicalStatus":{"coding":[{"system":"http://terminology.hl7.org/CodeSystem/condition-clinical","code":"active","display":"Active"}]},"category":[{"coding":[{"system":"http://terminology.hl7.org/CodeSystem/condition-category","code":"problem-list-item"}]}],"code":{"coding":[{"system":"http://snomed.info/sct","code":"709977002"}]},"subject":{"reference":"Patient/8d5f4ae6-6503-4fcc-ba92-2821cdf69e43"},"onsetDateTime":"2022-05-26T00:00:00+00:00"}},{"fullUrl":"Condition/897fc897-3d37-4069-bc0d-dd11407b04c7","resource":{"resourceType":"Condition","id":"897fc897-3d37-4069-bc0d-dd11407b04c7","meta":{"profile":["http://hl7.org/fhir/us/core/StructureDefinition/us-core-condition"]},"clinicalStatus":{"coding":[{"system":"http://terminology.hl7.org/CodeSystem/condition-clinical","code":"active","display":"Active"}]},"category":[{"coding":[{"system":"http://terminology.hl7.org/CodeSystem/condition-category","code":"problem-list-item"}]}],"code":{"coding":[{"system":"http://snomed.info/sct","code":"709977002"}]},"subject":{"reference":"Patient/8d5f4ae6-6503-4fcc-ba92-2821cdf69e43"},"onsetDateTime":"2022-09-16T00:00:00+00:00"}},{"fullUrl":"Condition/7232414c-d4ec-4bd5-aaee-20b58f990da1","resource":{"resourceType":"Condition","id":"7232414c-d4ec-4bd5-aaee-20b58f990da1","meta":{"profile":["http://hl7.org/fhir/us/core/StructureDefinition/us-core-condition"]},"clinicalStatus":{"coding":[{"system":"http://terminology.hl7.org/CodeSystem/condition-clinical","code":"active","display":"Active"}]},"category":[{"coding":[{"system":"http://terminology.hl7.org/CodeSystem/condition-category","code":"problem-list-item"}]}],"code":{"coding":[{"system":"http://snomed.info/sct","code":"418290006"}]},"subject":{"reference":"Patient/8d5f4ae6-6503-4fcc-ba92-2821cdf69e43"},"onsetDateTime":"2022-02-03T00:00:00+00:00"}},{"fullUrl":"Condition/def0a9d0-f96a-408d-ab09-030264bbdd73","resource":{"resourceType":"Condition","id":"def0a9d0-f96a-408d-ab09-030264bbdd73","meta":{"profile":["http://hl7.org/fhir/us/core/StructureDefinition/us-core-condition"]},"clinicalStatus":{"coding":[{"system":"http://terminology.hl7.org/CodeSystem/condition-clinical","code":"active","display":"Active"}]},"category":[{"coding":[{"system":"http://terminology.hl7.org/CodeSystem/condition-category","code":"problem-list-item"}]}],"code":{"coding":[{"system":"http://snomed.info/sct","code":"709977002"}]},"subject":{"reference":"Patient/8d5f4ae6-6503-4fcc-ba92-2821cdf69e43"},"onsetDateTime":"2022-06-16T00:00:00+00:00"}},{"fullUrl":"Condition/5dd54278-c4ee-4a1e-9741-cc3f4c450213","resource":{"resourceType":"Condition","id":"5dd54278-c4ee-4a1e-9741-cc3f4c450213","meta":{"profile":["http://hl7.org/fhir/us/core/StructureDefinition/us-core-condition"]},"clinicalStatus":{"coding":[{"system":"http://terminology.hl7.org/CodeSystem/condition-clinical","code":"active","display":"Active"}]},"category":[{"coding":[{"system":"http://terminology.hl7.org/CodeSystem/condition-category","code":"problem-list-item"}]}],"code":{"coding":[{"system":"http://snomed.info/sct","code":"91554004"}]},"subject":{"reference":"Patient/8d5f4ae6-6503-4fcc-ba92-2821cdf69e43"},"onsetDateTime":"2022-07-15T00:00:00+00:00"}},{"fullUrl":"Condition/7a57bc29-5fd4-49db-a0e2-8393cc34976f","resource":{"resourceType":"Condition","id":"7a57bc29-5fd4-49db-a0e2-8393cc34976f","meta":{"profile":["http://hl7.org/fhir/us/core/StructureDefinition/us-core-condition"]},"clinicalStatus":{"coding":[{"system":"http://terminology.hl7.org/CodeSystem/condition-clinical","code":"active","display":"Active"}]},"category":[{"coding":[{"system":"http://terminology.hl7.org/CodeSystem/condition-category","code":"problem-list-item"}]}],"code":{"coding":[{"system":"http://snomed.info/sct","code":"736686006"}]},"subject":{"reference":"Patient/8d5f4ae6-6503-4fcc-ba92-2821cdf69e43"},"onsetDateTime":"2022-06-29T00:00:00+00:00"}},{"fullUrl":"Condition/3a16bf73-e227-40b5-9cce-4232d46056d1","resource":{"resourceType":"Condition","id":"3a16bf73-e227-40b5-9cce-4232d46056d1","meta":{"profile":["http://hl7.org/fhir/us/core/StructureDefinition/us-core-condition"]},"clinicalStatus":{"coding":[{"system":"http://terminology.hl7.org/CodeSystem/condition-clinical","code":"active","display":"Active"}]},"category":[{"coding":[{"system":"http://terminology.hl7.org/CodeSystem/condition-category","code":"problem-list-item"}]}],"code":{"coding":[{"system":"http://snomed.info/sct","code":"91554004"}]},"subject":{"reference":"Patient/8d5f4ae6-6503-4fcc-ba92-2821cdf69e43"},"onsetDateTime":"2022-01-27T00:00:00+00:00"}},{"fullUrl":"Observation/5be70c05-2c77-4bdf-b127-a344ccb7a342","resource":{"resourceType":"Observation","id":"5be70c05-2c77-4bdf-b127-a344ccb7a342","meta":{"profile":["http://hl7.org/fhir/us/core/StructureDefinition/us-core-observation-lab"]},"status":"final","category":[{"coding":[{"system":"http://terminology.hl7.org/CodeSystem/observation-category","code":"laboratory","display":"Laboratory"}]}],"code":{"coding":[{"system":"http://loinc.org","code":"26464-8"}]},"subject":{"reference":"Patient/8d5f4ae6-6503-4fcc-ba92-2821cdf69e43"},"effectiveDateTime":"2022-06-14T00:00:00+00:00","valueQuantity":{"value":7.8}}},{"fullUrl":"Observation/943bccf7-9a94-4f6b-bc3a-97cfa692cfca","resource":{"resourceType":"Observation","id":"943bccf7-9a94-4f6b-bc3a-97cfa692cfca","meta":{"profile":["http://hl7.org/fhir/us/core/StructureDefinition/us-core-observation-lab"]},"status":"final","category":[{"coding":[{"system":"http://terminology.hl7.org/CodeSystem/observation-category","code":"laboratory","display":"Laboratory"}]}],"code":{"coding":[{"system":"http://loinc.org","code":"49498-9"}]},"subject":{"reference":"Patient/8d5f4ae6-6503-4fcc-ba92-2821cdf69e43"},"effectiveDateTime":"2022-11-09T00:00:00+00:00","valueQuantity":{"value":5.6}}},{"fullUrl":"Observation/968dbcd5-15e3-4452-aa0f-ea98d7c1bb93","resource":{"resourceType":"Observation","id":"968dbcd5-15e3-4452-aa0f-ea98d7c1bb93","meta":{"profile":["http://hl7.org/fhir/us/core/StructureDefinition/us-core-bmi"]},"status":"final","category":[{"coding":[{"system":"http://terminology.hl7.org/CodeSystem/observation-category","code":"vital-signs","display":"Vital Signs"}]}],"code":{"coding":[{"system":"http://loinc.org","code":"39156-5"}]},"subject":{"reference":"Patient/8d5f4ae6-6503-4fcc-ba92-2821cdf69e43"},"effectiveDateTime":"2022-10-29T00:00:00+00:00","valueQuantity":{"value":15.18,"unit":"kg/m2","system":"http://unitsofmeasure.org","code":"kg/m2"}}},{"fullUrl":"Observation/2887ab0b-8264-43a3-acc2-cf22aa5eacba","resource":{"resourceType":"Observation","id":"2887ab0b-8264-43a3-acc2-cf22aa5eacba","meta":{"profile":["http://hl7.org/fhir/us/core/StructureDefinition/us-core-bmi"]},"status":"final","category":[{"coding":[{"system":"http://terminology.hl7.org/CodeSystem/observation-category","code":"vital-signs","display":"Vital Signs"}]}],"code":{"coding":[{"system":"http://loinc.org","code":"39156-5"}]},"subject":{"reference":"Patient/8d5f4ae6-6503-4fcc-ba92-2821cdf69e43"},"effectiveDateTime":"2022-10-06T00:00:00+00:00","valueQuantity":{"value":12.61,"unit":"kg/m2","system":"http://unitsofmeasure.org","code":"kg/m2"}}},{"fullUrl":"Observation/418ad4d3-cd01-40bb-9de8-2cf4e64ba79d","resource":{"resourceType":"Observation","id":"418ad4d3-cd01-40bb-9de8-2cf4e64ba79d","meta":{"profile":["http://hl7.org/fhir/us/core/StructureDefinition/us-core-head-circumference"]},"status":"final","category":[{"coding":[{"system":"http://terminology.hl7.org/CodeSystem/observation-category","code":"vital-signs","display":"Vital Signs"}]}],"code":{"coding":[{"system":"http://loinc.org","code":"9843-4"}]},"subject":{"reference":"Patient/8d5f4ae6-6503-4fcc-ba92-2821cdf69e43"},"effectiveDateTime":"2022-04-06T00:00:00+00:00","valueQuantity":{"value":5.8,"unit":"Inch","system":"http://unitsofmeasure.org","code":"[in_i]"}}},{"fullUrl":"Observation/62b63918-fbbe-44b9-988a-efd4274f55f7","resource":{"resourceType":"Observation","id":"62b63918-fbbe-44b9-988a-efd4274f55f7","meta":{"profile":["http://hl7.org/fhir/us/core/StructureDefinition/us-core-body-height"]},"status":"final","category":[{"coding":[{"system":"http://terminology.hl7.org/CodeSystem/observation-category","code":"vital-signs","display":"Vital Signs"}]}],"code":{"coding":[{"system":"http://loinc.org","code":"8302-2"}]},"subject":{"reference":"Patient/8d5f4ae6-6503-4fcc-ba92-2821cdf69e43"},"effectiveDateTime":"2022-05-16T00:00:00+00:00","valueQuantity":{"value":75.7,"unit":"Inch","system":"http://unitsofmeasure.org","code":"[in_i]"}}},{"fullUrl":"Observation/0b8a9a04-fe85-4a08-83a4-26b40481d899","resource":{"resourceType":"Observation","id":"0b8a9a04-fe85-4a08-83a4-26b40481d899","meta":{"profile":["http://hl7.org/fhir/us/core/StructureDefinition/us-core-body-height"]},"status":"final","category":[{"coding":[{"system":"http://terminology.hl7.org/CodeSystem/observation-category","code":"vital-signs","display":"Vital Signs"}]}],"code":{"coding":[{"system":"http://loinc.org","code":"8302-2"}]},"subject":{"reference":"Patient/8d5f4ae6-6503-4fcc-ba92-2821cdf69e43"},"effectiveDateTime":"2022-05-06T00:00:00+00:00","valueQuantity":{"value":83.2,"unit":"Inch","system":"http://unitsofmeasure.org","code":"[in_i]"}}},{"fullUrl":"Observation/df993ddf-5882-4c81-a989-b2611f6b45ba","resource":{"resourceType":"Observation","id":"df993ddf-5882-4c81-a989-b2611f6b45ba","meta":{"profile":["http://hl7.org/fhir/us/core/StructureDefinition/us-core-body-weight"]},"status":"final","category":[{"coding":[{"system":"http://terminology.hl7.org/CodeSystem/observation-category","code":"vital-signs","display":"Vital Signs"}]}],"code":{"coding":[{"system":"http://loinc.org","code":"29463-7"}]},"subject":{"reference":"Patient/8d5f4ae6-6503-4fcc-ba92-2821cdf69e43"},"effectiveDateTime":"2022-07-06T00:00:00+00:00","valueQuantity":{"value":74.21,"unit":"kilogram","system":"http://unitsofmeasure.org","code":"kg"}}},{"fullUrl":"Observation/77850795-aeea-404d-954d-e51639344c9a","resource":{"resourceType":"Observation","id":"77850795-aeea-404d-954d-e51639344c9a","meta":{"profile":["http://hl7.org/fhir/us/core/StructureDefinition/us-core-body-temperature"]},"status":"final","category":[{"coding":[{"system":"http://terminology.hl7.org/CodeSystem/observation-category","code":"vital-signs","display":"Vital Signs"}]}],"code":{"coding":[{"system":"http://loinc.org","code":"8310-5"}]},"subject":{"reference":"Patient/8d5f4ae6-6503-4fcc-ba92-2821cdf69e43"},"effectiveDateTime":"2022-01-22T00:00:00+00:00","valueQuantity":{"value":72.65,"unit":"Degrees Fahrenheit","system":"http://unitsofmeasure.org","code":"[degF]"}}},{"fullUrl":"Observation/deb2880e-e2d7-4a3c-9bc6-7c76349df633","resource":{"resourceType":"Observation","id":"deb2880e-e2d7-4a3c-9bc6-7c76349df633","meta":{"profile":["http://hl7.org/fhir/us/core/StructureDefinition/us-core-body-temperature"]},"status":"final","category":[{"coding":[{"system":"http://terminology.hl7.org/CodeSystem/observation-category","code":"vital-signs","display":"Vital Signs"}]}],"code":{"coding":[{"system":"http://loinc.org","code":"8310-5"}]},"subject":{"reference":"Patient/8d5f4ae6-6503-4fcc-ba92-2821cdf69e43"},"effectiveDateTime":"2022-10-04T00:00:00+00:00","valueQuantity":{"value":95.13,"unit":"Degrees Fahrenheit","system":"http://unitsofmeasure.org","code":"[degF]"}}},{"fullUrl":"Observation/5159564e-3d8e-407d-8563-be137845f505","resource":{"resourceType":"Observation","id":"5159564e-3d8e-407d-8563-be137845f505","meta":{"profile":["http://hl7.org/fhir/us/core/StructureDefinition/us-core-heart-rate"]},"status":"final","category":[{"coding":[{"system":"http://terminology.hl7.org/CodeSystem/observation-category","code":"vital-signs","display":"Vital Signs"}]}],"code":{"coding":[{"system":"http://loinc.org","code":"8867-4"}]},"subject":{"reference":"Patient/8d5f4ae6-6503-4fcc-ba92-2821cdf69e43"},"effectiveDateTime":"2022-10-14T00:00:00+00:00","valueQuantity":{"value":100.4,"unit":"Per Minute","system":"http://unitsofmeasure.org","code":"/min"}}},{"fullUrl":"Observation/f506a1b7-2763-42c0-b4dc-76e349169daf","resource":{"resourceType":"Observation","id":"f506a1b7-2763-42c0-b4dc-76e349169daf","meta":{"profile":["http://hl7.org/fhir/us/core/StructureDefinition/us-core-heart-rate"]},"status":"final","category":[{"coding":[{"system":"http://terminology.hl7.org/CodeSystem/observation-category","code":"vital-signs","display":"Vital Signs"}]}],"code":{"coding":[{"system":"http://loinc.org","code":"8867-4"}]},"subject":{"reference":"Patient/8d5f4ae6-6503-4fcc-ba92-2821cdf69e43"},"effectiveDateTime":"2022-06-02T00:00:00+00:00","valueQuantity":{"value":95.3,"unit":"Per Minute","system":"http://unitsofmeasure.org","code":"/min"}}},{"fullUrl":"Patient/83345990-03d3-47bb-8ed6-6f44a9938ef6","resource":{"resourceType":"Patient","id":"83345990-03d3-47bb-8ed6-6f44a9938ef6","meta":{"profile":["http://hl7.org/fhir/us/core/StructureDefinition/us-core-patient"]},"extension":[{"extension":[{"url":"ombCategory","valueCoding":{"system":"urn:oid:2.16.840.1.113883.6.238","code":"2028-9","display":"Asian"}},{"url":"text","valueString":"Asian"}],"url":"http://hl7.org/fhir/us/core/StructureDefinition/us-core-race"},{"extension":[{"url":"ombCategory","valueCoding":{"system":"urn:oid:2.16.840.1.113883.6.238","code":"2135-2","display":"Hispanic or Latino"}},{"url":"text","valueString":"Hispanic or Latino"}],"url":"http://hl7.org/fhir/us/core/StructureDefinition/us-core-ethnicity"}],"identifier":[{"type":{"coding":[{"system":"http://terminology.hl7.org/CodeSystem/v2-0203","code":"MR"}]},"system":"urn:fhirgen:mrn","value":"831-85-5846"}],"name":[{"use":"official","family":"Williams","given":["Keith"]},{"use":"maiden","family":"Schultz"}],"telecom":[{"system":"phone","value":"057.860.5623x854","use":"work"},{"system":"email","value":"josephpham@hotmail.com","use":"work"}],"gender":"male","birthDate":"1992-12-12","address":[{"use":"home","line":["8957 Erika Walks Apt. 093"],"city":"East Christopher","state":"NH","postalCode":"23940"},{"use":"old","line":["547 Thompson Neck"],"city":"North Bryan","state":"GA","postalCode":"95145"}]}},{"fullUrl":"Observation/c9d72f9c-2a5b-4bd9-8957-c06d88671fa7","resource":{"resourceType":"Observation","id":"c9d72f9c-2a5b-4bd9-8957-c06d88671fa7","meta":{"profile":["http://hl7.org/fhir/us/core/StructureDefinition/us-core-observation-lab"]},"status":"final","category":[{"coding":[{"system":"http://terminology.hl7.org/CodeSystem/observation-category","code":"laboratory","display":"Laboratory"}]}],"code":{"coding":[{"system":"http://loinc.org","code":"71793-4"}]},"subject":{"reference":"Patient/83345990-03d3-47bb-8ed6-6f44a9938ef6"},"effectiveDateTime":"2022-12-31T00:00:00+00:00","valueRatio":{"numerator":{"value":1},"denominator":{"value":4}}}},{"fullUrl":"Observation/297f1b48-922d-4ab0-a5a2-12175788a01d","resource":{"resourceType":"Observation","id":"297f1b48-922d-4ab0-a5a2-12175788a01d","meta":{"profile":["http://hl7.org/fhir/us/core/StructureDefinition/us-core-observation-lab"]},"status":"final","category":[{"coding":[{"system":"http://terminology.hl7.org/CodeSystem/observation-category","code":"laboratory","display":"Laboratory"}]}],"code":{"coding":[{"system":"http://loinc.org","code":"47235-7"}]},"subject":{"reference":"Patient/83345990-03d3-47bb-8ed6-6f44a9938ef6"},"effectiveDateTime":"2022-11-13T00:00:00+00:00","valueRatio":{"numerator":{"value":1},"denominator":{"value":32}}}},{"fullUrl":"Condition/ae02add4-31b3-4eea-8f46-9ede9081a5f9","resource":{"resourceType":"Condition","id":"ae02add4-31b3-4eea-8f46-9ede9081a5f9","meta":{"profile":["http://hl7.org/fhir/us/core/StructureDefinition/us-core-condition"]},"clinicalStatus":{"coding":[{"system":"http://terminology.hl7.org/CodeSystem/condition-clinical","code":"active","display":"Active"}]},"category":[{"coding":[{"system":"http://terminology.hl7.org/CodeSystem/condition-category","code":"problem-list-item"}]}],"code":{"coding":[{"system":"http://snomed.info/sct","code":"91554004"}]},"subject":{"reference":"Patient/83345990-03d3-47bb-8ed6-6f44a9938ef6"},"onsetDateTime":"2022-07-11T00:00:00+00:00"}},{"fullUrl":"Condition/1b675065-94f6-4e63-af04-b46bf449862e","resource":{"resourceType":"Condition","id":"1b675065-94f6-4e63-af04-b46bf449862e","meta":{"profile":["http://hl7.org/fhir/us/core/StructureDefinition/us-core-condition"]},"clinicalStatus":{"coding":[{"system":"http://terminology.hl7.org/CodeSystem/condition-clinical","code":"active","display":"Active"}]},"category":[{"coding":[{"system":"http://terminology.hl7.org/CodeSystem/condition-category","code":"problem-list-item"}]}],"code":{"coding":[{"system":"http://snomed.info/sct","code":"736686006"}]},"subject":{"reference":"Patient/83345990-03d3-47bb-8ed6-6f44a9938ef6"},"onsetDateTime":"2022-01-23T00:00:00+00:00"}},{"fullUrl":"Condition/483cc46f-9331-43e4-96bf-46324f5c7396","resource":{"resourceType":"Condition","id":"483cc46f-9331-43e4-96bf-46324f5c7396","meta":{"profile":["http://hl7.org/fhir/us/core/StructureDefinition/us-core-condition"]},"clinicalStatus":{"coding":[{"system":"http://terminology.hl7.org/CodeSystem/condition-clinical","code":"active","display":"Active"}]},"category":[{"coding":[{"system":"http://terminology.hl7.org/CodeSystem/condition-category","code":"problem-list-item"}]}],"code":{"coding":[{"system":"http://snomed.info/sct","code":"418290006"}]},"subject":{"reference":"Patient/83345990-03d3-47bb-8ed6-6f44a9938ef6"},"onsetDateTime":"2022-04-24T00:00:00+00:00"}},{"fullUrl":"Condition/bad39077-1a0d-46b6-b426-e96505e27de8","resource":{"resourceType":"Condition","id":"bad39077-1a0d-46b6-b426-e96505e27de8","meta":{"profile":["http://hl7.org/fhir/us/core/StructureDefinition/us-core-condition"]},"clinicalStatus":{"coding":[{"system":"http://terminology.hl7.org/CodeSystem/condition-clinical","code":"active","display":"Active"}]},"category":[{"coding":[{"system":"http://terminology.hl7.org/CodeSystem/condition-category","code":"problem-list-item"}]}],"code":{"coding":[{"system":"http://snomed.info/sct","code":"44882003"}]},"subject":{"reference":"Patient/83345990-03d3-47bb-8ed6-6f44a9938ef6"},"onsetDateTime":"2022-10-19T00:00:00+00:00"}},{"fullUrl":"Condition/f3d88f89-05ae-43d4-b0a0-8e158a0d0fd9","resource":{"resourceType":"Condition","id":"f3d88f89-05ae-43d4-b0a0-8e158a0d0fd9","meta":{"profile":["http://hl7.org/fhir/us/core/StructureDefinition/us-core-condition"]},"clinicalStatus":{"coding":[{"system":"http://terminology.hl7.org/CodeSystem/condition-clinical","code":"active","display":"Active"}]},"category":[{"coding":[{"system":"http://terminology.hl7.org/CodeSystem/condition-category","code":"problem-list-item"}]}],"code":{"coding":[{"system":"http://snomed.info/sct","code":"91554004"}]},"subject":{"reference":"Patient/83345990-03d3-47bb-8ed6-6f44a9938ef6"},"onsetDateTime":"2022-04-24T00:00:00+00:00"}},{"fullUrl":"Observation/3c338415-04dc-42a6-b2fd-17b26381a1d0","resource":{"resourceType":"Observation","id":"3c338415-04dc-42a6-b2fd-17b26381a1d0","meta":{"profile":["http://hl7.org/fhir/us/core/StructureDefinition/us-core-observation-lab"]},"status":"final","category":[{"coding":[{"system":"http://terminology.hl7.org/CodeSystem/observation-category","code":"laboratory","display":"Laboratory"}]}],"code":{"coding":[{"system":"http://loinc.org","code":"26464-8"}]},"subject":{"reference":"Patient/83345990-03d3-47bb-8ed6-6f44a9938ef6"},"effectiveDateTime":"2022-06-18T00:00:00+00:00","valueQuantity":{"value":5.2}}},{"fullUrl":"Observation/3d89fc5b-261b-4297-8660-05ae4a80e398","resource":{"resourceType":"Observation","id":"3d89fc5b-261b-4297-8660-05ae4a80e398","meta":{"profile":["http://hl7.org/fhir/us/core/StructureDefinition/us-core-observation-lab"]},"status":"final","category":[{"coding":[{"system":"http://terminology.hl7.org/CodeSystem/observation-category","code":"laboratory","display":"Laboratory"}]}],"code":{"coding":[{"system":"http://loinc.org","code":"26464-8"}]},"subject":{"reference":"Patient/83345990-03d3-47bb-8ed6-6f44a9938ef6"},"effectiveDateTime":"2022-06-02T00:00:00+00:00","valueQuantity":{"value":10.4}}},{"fullUrl":"Observation/533c4250-c968-4095-b70c-c2c80a2712bd","resource":{"resourceType":"Observation","id":"533c4250-c968-4095-b70c-c2c80a2712bd","meta":{"profile":["http://hl7.org/fhir/us/core/StructureDefinition/us-core-bmi"]},"status":"final","category":[{"coding":[{"system":"http://terminology.hl7.org/CodeSystem/observation-category","code":"vital-signs","display":"Vital Signs"}]}],"code":{"coding":[{"system":"http://loinc.org","code":"39156-5"}]},"subject":{"reference":"Patient/83345990-03d3-47bb-8ed6-6f44a9938ef6"},"effectiveDateTime":"2022-01-09T00:00:00+00:00","valueQuantity":{"value":18.56,"unit":"kg/m2","system":"http://unitsofmeasure.org","code":"kg/m2"}}},{"fullUrl":"Observation/7be111b0-9a46-43e6-b0da-c300b5b55243","resource":{"resourceType":"Observation","id":"7be111b0-9a46-43e6-b0da-c300b5b55243","meta":{"profile":["http://hl7.org/fhir/us/core/StructureDefinition/us-core-head-circumference"]},"status":"final","category":[{"coding":[{"system":"http://terminology.hl7.org/CodeSystem/observation-category","code":"vital-signs","display":"Vital Signs"}]}],"code":{"coding":[{"system":"http://loinc.org","code":"9843-4"}]},"subject":{"reference":"Patient/83345990-03d3-47bb-8ed6-6f44a9938ef6"},"effectiveDateTime":"2022-02-25T00:00:00+00:00","valueQuantity":{"value":2.2,"unit":"Inch","system":"http://unitsofmeasure.org","code":"[in_i]"}}},{"fullUrl":"Observation/ca423071-bbef-4caa-b427-c97de8f6c83d","resource":{"resourceType":"Observation","id":"ca423071-bbef-4caa-b427-c97de8f6c83d","meta":{"profile":["http://hl7.org/fhir/us/core/StructureDefinition/us-core-body-height"]},"status":"final","category":[{"coding":[{"system":"http://terminology.hl7.org/CodeSystem/observation-category","code":"vital-signs","display":"Vital Signs"}]}],"code":{"coding":[{"system":"http://loinc.org","code":"8302-2"}]},"subject":{"reference":"Patient/83345990-03d3-47bb-8ed6-6f44a9938ef6"},"effectiveDateTime":"2022-01-05T00:00:00+00:00","valueQuantity":{"value":76.1,"unit":"Inch","system":"http://unitsofmeasure.org","code":"[in_i]"}}},{"fullUrl":"Observation/886c30f3-bada-4970-9feb-17a6df90ed12","resource":{"resourceType":"Observation","id":"886c30f3-bada-4970-9feb-17a6df90ed12","meta":{"profile":["http://hl7.org/fhir/us/core/StructureDefinition/us-core-body-height"]},"status":"final","category":[{"coding":[{"system":"http://terminology.hl7.org/CodeSystem/observation-category","code":"vital-signs","display":"Vital Signs"}]}],"code":{"coding":[{"system":"http://loinc.org","code":"8302-2"}]},"subject":{"reference":"Patient/83345990-03d3-47bb-8ed6-6f44a9938ef6"},"effectiveDateTime":"2022-04-09T00:00:00+00:00","valueQuantity":{"value":78.6,"unit":"Inch","system":"http://unitsofmeasure.org","code":"[in_i]"}}},{"fullUrl":"Observation/415ad1cf-5c07-408e-9a52-96438dbf95e9","resource":{"resourceType":"Observation","id":"415ad1cf-5c07-408e-9a52-96438dbf95e9","meta":{"profile":["http://hl7.org/fhir/us/core/StructureDefinition/us-core-body-weight"]},"status":"final","category":[{"coding":[{"system":"http://terminology.hl7.org/CodeSystem/observation-category","code":"vital-signs","display":"Vital Signs"}]}],"code":{"coding":[{"system":"http://loinc.org","code":"29463-7"}]},"subject":{"reference":"Patient/83345990-03d3-47bb-8ed6-6f44a9938ef6"},"effectiveDateTime":"2022-08-18T00:00:00+00:00","valueQuantity":{"value":132.1,"unit":"kilogram","system":"http://unitsofmeasure.org","code":"kg"}}},{"fullUrl":"Observation/16350145-4bfc-4a7d-b85c-006e456a5c94","resource":{"resourceType":"Observation","id":"16350145-4bfc-4a7d-b85c-006e456a5c94","meta":{"profile":["http://hl7.org/fhir/us/core/StructureDefinition/us-core-body-weight"]},"status":"final","category":[{"coding":[{"system":"http://terminology.hl7.org/CodeSystem/observation-category","code":"vital-signs","display":"Vital Signs"}]}],"code":{"coding":[{"system":"http://loinc.org","code":"29463-7"}]},"subject":{"reference":"Patient/83345990-03d3-47bb-8ed6-6f44a9938ef6"},"effectiveDateTime":"2022-07-12T00:00:00+00:00","valueQuantity":{"value":149.16,"unit":"kilogram","system":"http://unitsofmeasure.org","code":"kg"}}},{"fullUrl":"Observation/ccd0fe53-216c-41ce-a1c2-32f744906d3b","resource":{"resourceType":"Observation","id":"ccd0fe53-216c-41ce-a1c2-32f744906d3b","meta":{"profile":["http://hl7.org/fhir/us/core/StructureDefinition/us-core-body-temperature"]},"status":"final","category":[{"coding":[{"system":"http://terminology.hl7.org/CodeSystem/observation-category","code":"vital-signs","display":"Vital Signs"}]}],"code":{"coding":[{"system":"http://loinc.org","code":"8310-5"}]},"subject":{"reference":"Patient/83345990-03d3-47bb-8ed6-6f44a9938ef6"},"effectiveDateTime":"2022-08-28T00:00:00+00:00","valueQuantity":{"value":39.36,"unit":"Degrees Fahrenheit","system":"http://unitsofmeasure.org","code":"[degF]"}}},{"fullUrl":"Observation/5753a3fb-1cbb-4591-a380-5073aeac2de8","resource":{"resourceType":"Observation","id":"5753a3fb-1cbb-4591-a380-5073aeac2de8","meta":{"profile":["http://hl7.org/fhir/us/core/StructureDefinition/us-core-body-temperature"]},"status":"final","category":[{"coding":[{"system":"http://terminology.hl7.org/CodeSystem/observation-category","code":"vital-signs","display":"Vital Signs"}]}],"code":{"coding":[{"system":"http://loinc.org","code":"8310-5"}]},"subject":{"reference":"Patient/83345990-03d3-47bb-8ed6-6f44a9938ef6"},"effectiveDateTime":"2022-02-05T00:00:00+00:00","valueQuantity":{"value":99.43,"unit":"Degrees Fahrenheit","system":"http://unitsofmeasure.org","code":"[degF]"}}},{"fullUrl":"Observation/19e2835e-4b1a-4d92-9f2c-cd2600ea9085","resource":{"resourceType":"Observation","id":"19e2835e-4b1a-4d92-9f2c-cd2600ea9085","meta":{"profile":["http://hl7.org/fhir/us/core/StructureDefinition/us-core-heart-rate"]},"status":"final","category":[{"coding":[{"system":"http://terminology.hl7.org/CodeSystem/observation-category","code":"vital-signs","display":"Vital Signs"}]}],"code":{"coding":[{"system":"http://loinc.org","code":"8867-4"}]},"subject":{"reference":"Patient/83345990-03d3-47bb-8ed6-6f44a9938ef6"},"effectiveDateTime":"2022-07-28T00:00:00+00:00","valueQuantity":{"value":95.7,"unit":"Per Minute","system":"http://unitsofmeasure.org","code":"/min"}}},{"fullUrl":"Observation/55032975-bddd-4386-9918-1b74a34bcf51","resource":{"resourceType":"Observation","id":"55032975-bddd-4386-9918-1b74a34bcf51","meta":{"profile":["http://hl7.org/fhir/us/core/StructureDefinition/us-core-heart-rate"]},"status":"final","category":[{"coding":[{"system":"http://terminology.hl7.org/CodeSystem/observation-category","code":"vital-signs","display":"Vital Signs"}]}],"code":{"coding":[{"system":"http://loinc.org","code":"8867-4"}]},"subject":{"reference":"Patient/83345990-03d3-47bb-8ed6-6f44a9938ef6"},"effectiveDateTime":"2022-03-04T00:00:00+00:00","valueQuantity":{"value":101.6,"unit":"Per Minute","system":"http://unitsofmeasure.org","code":"/min"}}},{"fullUrl":"Patient/eafd95ab-52bc-4cf9-94d6-47c378b28a41","resource":{"resourceType":"Patient","id":"eafd95ab-52bc-4cf9-94d6-47c378b28a41","meta":{"profile":["http://hl7.org/fhir/us/core/StructureDefinition/us-core-patient"]},"extension":[{"extension":[{"url":"ombCategory","valueCoding":{"system":"http://terminology.hl7.org/CodeSystem/v3-NullFlavor","code":"ASKU","display":"asked but unknown"}},{"url":"text","valueString":"asked but unknown"}],"url":"http://hl7.org/fhir/us/core/StructureDefinition/us-core-race"},{"extension":[{"url":"ombCategory","valueCoding":{"system":"urn:oid:2.16.840.1.113883.6.238","code":"2186-5","display":"Non Hispanic or Latino"}},{"url":"text","valueString":"Non Hispanic or Latino"}],"url":"http://hl7.org/fhir/us/core/StructureDefinition/us-core-ethnicity"}],"identifier":[{"type":{"coding":[{"system":"http://terminology.hl7.org/CodeSystem/v2-0203","code":"MR"}]},"system":"urn:fhirgen:mrn","value":"479-72-9251"}],"name":[{"use":"official","family":"Hanson","given":["Megan"]},{"use":"maiden","family":"Schaefer"}],"telecom":[{"system":"phone","value":"956-125-5187","use":"mobile"},{"system":"email","value":"srobinson@gmail.com","use":"work"}],"gender":"female","birthDate":"2003-01-02","address":[{"use":"home","line":["3999 Gonzalez Street"],"city":"New Ricky","state":"UT","postalCode":"66862"},{"use":"old","line":["118 Wendy Causeway"],"city":"North Matthewhaven","state":"MN","postalCode":"68199"}]}},{"fullUrl":"Observation/493b633d-e520-4358-b7fc-7d0e84487f36","resource":{"resourceType":"Observation","id":"493b633d-e520-4358-b7fc-7d0e84487f36","meta":{"profile":["http://hl7.org/fhir/us/core/StructureDefinition/us-core-observation-lab"]},"status":"final","category":[{"coding":[{"system":"http://terminology.hl7.org/CodeSystem/observation-category","code":"laboratory","display":"Laboratory"}]}],"code":{"coding":[{"system":"http://loinc.org","code":"31146-4"}]},"subject":{"reference":"Patient/eafd95ab-52bc-4cf9-94d6-47c378b28a41"},"effectiveDateTime":"2022-01-29T00:00:00+00:00","valueRatio":{"numerator":{"value":1},"denominator":{"value":4}}}},{"fullUrl":"Observation/e8708a5d-c6d9-4042-b0f9-07312e4e60ff","resource":{"resourceType":"Observation","id":"e8708a5d-c6d9-4042-b0f9-07312e4e60ff","meta":{"profile":["http://hl7.org/fhir/us/core/StructureDefinition/us-core-observation-lab"]},"status":"final","category":[{"coding":[{"system":"http://terminology.hl7.org/CodeSystem/observation-category","code":"laboratory","display":"Laboratory"}]}],"code":{"coding":[{"system":"http://loinc.org","code":"50695-6"}]},"subject":{"reference":"Patient/eafd95ab-52bc-4cf9-94d6-47c378b28a41"},"effectiveDateTime":"2022-05-15T00:00:00+00:00","valueRatio":{"numerator":{"value":1},"denominator":{"value":4}}}},{"fullUrl":"Observation/d15cf88a-a770-4162-bd23-d410e7bfb3c0","resource":{"resourceType":"Observation","id":"d15cf88a-a770-4162-bd23-d410e7bfb3c0","meta":{"profile":["http://hl7.org/fhir/us/core/StructureDefinition/us-core-observation-lab"]},"status":"final","category":[{"coding":[{"system":"http://terminology.hl7.org/CodeSystem/observation-category","code":"laboratory","display":"Laboratory"}]}],"code":{"coding":[{"system":"http://loinc.org","code":"47476-7"}]},"subject":{"reference":"Patient/eafd95ab-52bc-4cf9-94d6-47c378b28a41"},"effectiveDateTime":"2022-10-25T00:00:00+00:00","valueRatio":{"numerator":{"value":1},"denominator":{"value":64}}}},{"fullUrl":"Condition/04d367ef-25a0-406d-bba4-07453ddd9f47","resource":{"resourceType":"Condition","id":"04d367ef-25a0-406d-bba4-07453ddd9f47","meta":{"profile":["http://hl7.org/fhir/us/core/StructureDefinition/us-core-condition"]},"clinicalStatus":{"coding":[{"system":"http://terminology.hl7.org/CodeSystem/condition-clinical","code":"active","display":"Active"}]},"category":[{"coding":[{"system":"http://terminology.hl7.org/CodeSystem/condition-category","code":"problem-list-item"}]}],"code":{"coding":[{"system":"http://snomed.info/sct","code":"44882003"}]},"subject":{"reference":"Patient/eafd95ab-52bc-4cf9-94d6-47c378b28a41"},"onsetDateTime":"2022-09-16T00:00:00+00:00"}},{"fullUrl":"Condition/b0a2e657-1e3f-4073-bba6-5183ba85155c","resource":{"resourceType":"Condition","id":"b0a2e657-1e3f-4073-bba6-5183ba85155c","meta":{"profile":["http://hl7.org/fhir/us/core/StructureDefinition/us-core-condition"]},"clinicalStatus":{"coding":[{"system":"http://terminology.hl7.org/CodeSystem/condition-clinical","code":"active","display":"Active"}]},"category":[{"coding":[{"system":"http://terminology.hl7.org/CodeSystem/condition-category","code":"problem-list-item"}]}],"code":{"coding":[{"system":"http://snomed.info/sct","code":"91554004"}]},"subject":{"reference":"Patient/eafd95ab-52bc-4cf9-94d6-47c378b28a41"},"onsetDateTime":"2022-07-30T00:00:00+00:00"}},{"fullUrl":"Condition/9bd21eca-9ce4-424d-aabb-77e395e52644","resource":{"resourceType":"Condition","id":"9bd21eca-9ce4-424d-aabb-77e395e52644","meta":{"profile":["http://hl7.org/fhir/us/core/StructureDefinition/us-core-condition"]},"clinicalStatus":{"coding":[{"system":"http://terminology.hl7.org/CodeSystem/condition-clinical","code":"active","display":"Active"}]},"category":[{"coding":[{"system":"http://terminology.hl7.org/CodeSystem/condition-category","code":"problem-list-item"}]}],"code":{"coding":[{"system":"http://snomed.info/sct","code":"44882003"}]},"subject":{"reference":"Patient/eafd95ab-52bc-4cf9-94d6-47c378b28a41"},"onsetDateTime":"2022-09-22T00:00:00+00:00"}},{"fullUrl":"Condition/0025f378-9a1f-4c8d-946d-ec8bdf6f9f04","resource":{"resourceType":"Condition","id":"0025f378-9a1f-4c8d-946d-ec8bdf6f9f04","meta":{"profile":["http://hl7.org/fhir/us/core/StructureDefinition/us-core-condition"]},"clinicalStatus":{"coding":[{"system":"http://terminology.hl7.org/CodeSystem/condition-clinical","code":"active","display":"Active"}]},"category":[{"coding":[{"system":"http://terminology.hl7.org/CodeSystem/condition-category","code":"problem-list-item"}]}],"code":{"coding":[{"system":"http://snomed.info/sct","code":"736686006"}]},"subject":{"reference":"Patient/eafd95ab-52bc-4cf9-94d6-47c378b28a41"},"onsetDateTime":"2022-10-26T00:00:00+00:00"}},{"fullUrl":"Condition/f6ecb9db-ca0b-4232-aa9c-198802eaf688","resource":{"resourceType":"Condition","id":"f6ecb9db-ca0b-4232-aa9c-198802eaf688","meta":{"profile":["http://hl7.org/fhir/us/core/StructureDefinition/us-core-condition"]},"clinicalStatus":{"coding":[{"system":"http://terminology.hl7.org/CodeSystem/condition-clinical","code":"active","display":"Active"}]},"category":[{"coding":[{"system":"http://terminology.hl7.org/CodeSystem/condition-category","code":"problem-list-item"}]}],"code":{"coding":[{"system":"http://snomed.info/sct","code":"709977002"}]},"subject":{"reference":"Patient/eafd95ab-52bc-4cf9-94d6-47c378b28a41"},"onsetDateTime":"2022-04-29T00:00:00+00:00"}},{"fullUrl":"Condition/3299bdda-3bba-48c2-b653-0cd4d4dd6bd8","resource":{"resourceType":"Condition","id":"3299bdda-3bba-48c2-b653-0cd4d4dd6bd8","meta":{"profile":["http://hl7.org/fhir/us/core/StructureDefinition/us-core-condition"]},"clinicalStatus":{"coding":[{"system":"http://terminology.hl7.org/CodeSystem/condition-clinical","code":"active","display":"Active"}]},"category":[{"coding":[{"system":"http://terminology.hl7.org/CodeSystem/condition-category","code":"problem-list-item"}]}],"code":{"coding":[{"system":"http://snomed.info/sct","code":"709977002"}]},"subject":{"reference":"Patient/eafd95ab-52bc-4cf9-94d6-47c378b28a41"},"onsetDateTime":"2022-10-01T00:00:00+00:00"}},{"fullUrl":"Condition/8edc1eca-d0b5-476d-b0e6-03640a3e673d","resource":{"resourceType":"Condition","id":"8edc1eca-d0b5-476d-b0e6-03640a3e673d","meta":{"profile":["http://hl7.org/fhir/us/core/StructureDefinition/us-core-condition"]},"clinicalStatus":{"coding":[{"system":"http://terminology.hl7.org/CodeSystem/condition-clinical","code":"active","display":"Active"}]},"category":[{"coding":[{"system":"http://terminology.hl7.org/CodeSystem/condition-category","code":"problem-list-item"}]}],"code":{"coding":[{"system":"http://snomed.info/sct","code":"418290006"}]},"subject":{"reference":"Patient/eafd95ab-52bc-4cf9-94d6-47c378b28a41"},"onsetDateTime":"2022-08-02T00:00:00+00:00"}},{"fullUrl":"Condition/e2c479e4-5991-4ebb-867b-040503059dbd","resource":{"resourceType":"Condition","id":"e2c479e4-5991-4ebb-867b-040503059dbd","meta":{"profile":["http://hl7.org/fhir/us/core/StructureDefinition/us-core-condition"]},"clinicalStatus":{"coding":[{"system":"http://terminology.hl7.org/CodeSystem/condition-clinical","code":"active","display":"Active"}]},"category":[{"coding":[{"system":"http://terminology.hl7.org/CodeSystem/condition-category","code":"problem-list-item"}]}],"code":{"coding":[{"system":"http://snomed.info/sct","code":"44882003"}]},"subject":{"reference":"Patient/eafd95ab-52bc-4cf9-94d6-47c378b28a41"},"onsetDateTime":"2022-05-17T00:00:00+00:00"}},{"fullUrl":"Observation/53b72175-107f-4628-ba14-46a1e3299d1a","resource":{"resourceType":"Observation","id":"53b72175-107f-4628-ba14-46a1e3299d1a","meta":{"profile":["http://hl7.org/fhir/us/core/StructureDefinition/us-core-observation-lab"]},"status":"final","category":[{"coding":[{"system":"http://terminology.hl7.org/CodeSystem/observation-category","code":"laboratory","display":"Laboratory"}]}],"code":{"coding":[{"system":"http://loinc.org","code":"804-5"}]},"subject":{"reference":"Patient/eafd95ab-52bc-4cf9-94d6-47c378b28a41"},"effectiveDateTime":"2022-01-01T00:00:00+00:00","valueQuantity":{"value":8.3}}},{"fullUrl":"Observation/6872a24a-4f00-44e5-9ae1-c7b9ed6d47e8","resource":{"resourceType":"Observation","id":"6872a24a-4f00-44e5-9ae1-c7b9ed6d47e8","meta":{"profile":["http://hl7.org/fhir/us/core/StructureDefinition/us-core-observation-lab"]},"status":"final","category":[{"coding":[{"system":"http://terminology.hl7.org/CodeSystem/observation-category","code":"laboratory","display":"Laboratory"}]}],"code":{"coding":[{"system":"http://loinc.org","code":"26464-8"}]},"subject":{"reference":"Patient/eafd95ab-52bc-4cf9-94d6-47c378b28a41"},"effectiveDateTime":"2022-07-05T00:00:00+00:00","valueQuantity":{"value":7.3}}},{"fullUrl":"Observation/40498014-4a19-4083-97d6-2f0c31afa34e","resource":{"resourceType":"Observation","id":"40498014-4a19-4083-97d6-2f0c31afa34e","meta":{"profile":["http://hl7.org/fhir/us/core/StructureDefinition/us-core-observation-lab"]},"status":"final","category":[{"coding":[{"system":"http://terminology.hl7.org/CodeSystem/observation-category","code":"laboratory","display":"Laboratory"}]}],"code":{"coding":[{"system":"http://loinc.org","code":"26464-8"}]},"subject":{"reference":"Patient/eafd95ab-52bc-4cf9-94d6-47c378b28a41"},"effectiveDateTime":"2022-05-13T00:00:00+00:00","valueQuantity":{"value":6.5}}},{"fullUrl":"Observation/5584f67e-065c-43e0-a0cc-7404ec515091","resource":{"resourceType":"Observation","id":"5584f67e-065c-43e0-a0cc-7404ec515091","meta":{"profile":["http://hl7.org/fhir/us/core/StructureDefinition/us-core-bmi"]},"status":"final","category":[{"coding":[{"system":"http://terminology.hl7.org/CodeSystem/observation-category","code":"vital-signs","display":"Vital Signs"}]}],"code":{"coding":[{"system":"http://loinc.org","code":"39156-5"}]},"subject":{"reference":"Patient/eafd95ab-52bc-4cf9-94d6-47c378b28a41"},"effectiveDateTime":"2022-04-06T00:00:00+00:00","valueQuantity":{"value":11.18,"unit":"kg/m2","system":"http://unitsofmeasure.org","code":"kg/m2"}}},{"fullUrl":"Observation/0e1fca07-6e65-40fd-a101-401338804c79","resource":{"resourceType":"Observation","id":"0e1fca07-6e65-40fd-a101-401338804c79","meta":{"profile":["http://hl7.org/fhir/us/core/StructureDefinition/us-core-head-circumference"]},"status":"final","category":[{"coding":[{"system":"http://terminology.hl7.org/CodeSystem/observation-category","code":"vital-signs","display":"Vital Signs"}]}],"code":{"coding":[{"system":"http://loinc.org","code":"9843-4"}]},"subject":{"reference":"Patient/eafd95ab-52bc-4cf9-94d6-47c378b28a41"},"effectiveDateTime":"2022-05-06T00:00:00+00:00","valueQuantity":{"value":1.4,"unit":"Inch","system":"http://unitsofmeasure.org","code":"[in_i]"}}},{"fullUrl":"Observation/cd22a8cf-0867-409a-be7a-d2c5705b6c33","resource":{"resourceType":"Observation","id":"cd22a8cf-0867-409a-be7a-d2c5705b6c33","meta":{"profile":["http://hl7.org/fhir/us/core/StructureDefinition/us-core-head-circumference"]},"status":"final","category":[{"coding":[{"system":"http://terminology.hl7.org/CodeSystem/observation-category","code":"vital-signs","display":"Vital Signs"}]}],"code":{"coding":[{"system":"http://loinc.org","code":"9843-4"}]},"subject":{"reference":"Patient/eafd95ab-52bc-4cf9-94d6-47c378b28a41"},"effectiveDateTime":"2022-11-02T00:00:00+00:00","valueQuantity":{"value":6,"unit":"Inch","system":"http://unitsofmeasure.org","code":"[in_i]"}}},{"fullUrl":"Observation/f1eed160-2bc6-4f72-8bb9-83aaa8cac13f","resource":{"resourceType":"Observation","id":"f1eed160-2bc6-4f72-8bb9-83aaa8cac13f","meta":{"profile":["http://hl7.org/fhir/us/core/StructureDefinition/us-core-body-height"]},"status":"final","category":[{"coding":[{"system":"http://terminology.hl7.org/CodeSystem/observation-category","code":"vital-signs","display":"Vital Signs"}]}],"code":{"coding":[{"system":"http://loinc.org","code":"8302-2"}]},"subject":{"reference":"Patient/eafd95ab-52bc-4cf9-94d6-47c378b28a41"},"effectiveDateTime":"2022-12-15T00:00:00+00:00","valueQuantity":{"value":66.8,"unit":"Inch","system":"http://unitsofmeasure.org","code":"[in_i]"}}},{"fullUrl":"Observation/578ca8ac-60c9-4b4f-b36a-c410a18a8538","resource":{"resourceType":"Observation","id":"578ca8ac-60c9-4b4f-b36a-c410a18a8538","meta":{"profile":["http://hl7.org/fhir/us/core/StructureDefinition/us-core-body-height"]},"status":"final","category":[{"coding":[{"system":"http://terminology.hl7.org/CodeSystem/observation-category","code":"vital-signs","display":"Vital Signs"}]}],"code":{"coding":[{"system":"http://loinc.org","code":"8302-2"}]},"subject":{"reference":"Patient/eafd95ab-52bc-4cf9-94d6-47c378b28a41"},"effectiveDateTime":"2022-10-10T00:00:00+00:00","valueQuantity":{"value":60.6,"unit":"Inch","system":"http://unitsofmeasure.org","code":"[in_i]"}}},{"fullUrl":"Observation/745d8709-d719-4380-ba9e-5d91f6346fe6","resource":{"resourceType":"Observation","id":"745d8709-d719-4380-ba9e-5d91f6346fe6","meta":{"profile":["http://hl7.org/fhir/us/core/StructureDefinition/us-core-body-weight"]},"status":"final","category":[{"coding":[{"system":"http://terminology.hl7.org/CodeSystem/observation-category","code":"vital-signs","display":"Vital Signs"}]}],"code":{"coding":[{"system":"http://loinc.org","code":"29463-7"}]},"subject":{"reference":"Patient/eafd95ab-52bc-4cf9-94d6-47c378b28a41"},"effectiveDateTime":"2022-05-23T00:00:00+00:00","valueQuantity":{"value":99.74,"unit":"kilogram","system":"http://unitsofmeasure.org","code":"kg"}}},{"fullUrl":"Observation/dc308cb3-f2ce-4e6a-8478-0ba13e3ecb31","resource":{"resourceType":"Observation","id":"dc308cb3-f2ce-4e6a-8478-0ba13e3ecb31","meta":{"profile":["http://hl7.org/fhir/us/core/StructureDefinition/us-core-body-temperature"]},"status":"final","category":[{"coding":[{"system":"http://terminology.hl7.org/CodeSystem/observation-category","code":"vital-signs","display":"Vital Signs"}]}],"code":{"coding":[{"system":"http://loinc.org","code":"8310-5"}]},"subject":{"reference":"Patient/eafd95ab-52bc-4cf9-94d6-47c378b28a41"},"effectiveDateTime":"2022-12-07T00:00:00+00:00","valueQuantity":{"value":136.59,"unit":"Degrees Fahrenheit","system":"http://unitsofmeasure.org","code":"[degF]"}}},{"fullUrl":"Observation/a9d33122-7b42-42b0-9878-524257299626","resource":{"resourceType":"Observation","id":"a9d33122-7b42-42b0-9878-524257299626","meta":{"profile":["http://hl7.org/fhir/us/core/StructureDefinition/us-core-body-temperature"]},"status":"final","category":[{"coding":[{"system":"http://terminology.hl7.org/CodeSystem/observation-category","code":"vital-signs","display":"Vital Signs"}]}],"code":{"coding":[{"system":"http://loinc.org","code":"8310-5"}]},"subject":{"reference":"Patient/eafd95ab-52bc-4cf9-94d6-47c378b28a41"},"effectiveDateTime":"2022-07-30T00:00:00+00:00","valueQuantity":{"value":75.92,"unit":"Degrees Fahrenheit","system":"http://unitsofmeasure.org","code":"[degF]"}}},{"fullUrl":"Observation/87054308-93c2-4a09-a5ff-74e45a8bf773","resource":{"resourceType":"Observation","id":"87054308-93c2-4a09-a5ff-74e45a8bf773","meta":{"profile":["http://hl7.org/fhir/us/core/StructureDefinition/us-core-heart-rate"]},"status":"final","category":[{"coding":[{"system":"http://terminology.hl7.org/CodeSystem/observation-category","code":"vital-signs","display":"Vital Signs"}]}],"code":{"coding":[{"system":"http://loinc.org","code":"8867-4"}]},"subject":{"reference":"Patient/eafd95ab-52bc-4cf9-94d6-47c378b28a41"},"effectiveDateTime":"2022-11-20T00:00:00+00:00","valueQuantity":{"value":98.8,"unit":"Per Minute","system":"http://unitsofmeasure.org","code":"/min"}}},{"fullUrl":"Patient/c5ea56f0-2bea-4412-ad4b-fe949c81effa","resource":{"resourceType":"Patient","id":"c5ea56f0-2bea-4412-ad4b-fe949c81effa","meta":{"profile":["http://hl7.org/fhir/us/core/StructureDefinition/us-core-patient"]},"extension":[{"extension":[{"url":"ombCategory","valueCoding":{"system":"urn:oid:2.16.840.1.113883.6.238","code":"2076-8","display":"Native Hawaiian or Other Pacific Islander"}},{"url":"text","valueString":"Native Hawaiian or Other Pacific Islander"}],"url":"http://hl7.org/fhir/us/core/StructureDefinition/us-core-race"},{"extension":[{"url":"ombCategory","valueCoding":{"system":"urn:oid:2.16.840.1.113883.6.238","code":"2186-5","display":"Non Hispanic or Latino"}},{"url":"text","valueString":"Non Hispanic or Latino"}],"url":"http://hl7.org/fhir/us/core/StructureDefinition/us-core-ethnicity"}],"identifier":[{"type":{"coding":[{"system":"http://terminology.hl7.org/CodeSystem/v2-0203","code":"MR"}]},"system":"urn:fhirgen:mrn","value":"136-64-7589"}],"name":[{"use":"official","family":"Roth","given":["Kayla"]},{"use":"maiden","family":"Gordon"}],"telecom":[{"system":"phone","value":"686.025.3212x56909","use":"home"},{"system":"email","value":"mitchellchristopher@gmail.com","use":"home"}],"gender":"female","birthDate":"1994-05-13","address":[{"use":"home","line":["6985 Wright Lodge"],"city":"Johnstonfurt","state":"OK","postalCode":"37744"},{"use":"old","line":["113 Victoria Camp Suite 266"],"city":"East Joseview","state":"CO","postalCode":"94526"}]}},{"fullUrl":"Observation/ba7d2815-6d5f-4bbf-9990-6f43e8bf1300","resource":{"resourceType":"Observation","id":"ba7d2815-6d5f-4bbf-9990-6f43e8bf1300","meta":{"profile":["http://hl7.org/fhir/us/core/StructureDefinition/us-core-observation-lab"]},"status":"final","category":[{"coding":[{"system":"http://terminology.hl7.org/CodeSystem/observation-category","code":"laboratory","display":"Laboratory"}]}],"code":{"coding":[{"system":"http://loinc.org","code":"26009-1"}]},"subject":{"reference":"Patient/c5ea56f0-2bea-4412-ad4b-fe949c81effa"},"effectiveDateTime":"2022-11-11T00:00:00+00:00","valueRatio":{"numerator":{"value":1},"denominator":{"value":32}}}},{"fullUrl":"Observation/49ad7884-60a0-498b-9239-347cd16cf81a","resource":{"resourceType":"Observation","id":"49ad7884-60a0-498b-9239-347cd16cf81a","meta":{"profile":["http://hl7.org/fhir/us/core/StructureDefinition/us-core-observation-lab"]},"status":"final","category":[{"coding":[{"system":"http://terminology.hl7.org/CodeSystem/observation-category","code":"laboratory","display":"Laboratory"}]}],"code":{"coding":[{"system":"http://loinc.org","code":"31147-2"}]},"subject":{"reference":"Patient/c5ea56f0-2bea-4412-ad4b-fe949c81effa"},"effectiveDateTime":"2022-05-07T00:00:00+00:00","valueRatio":{"numerator":{"value":1},"denominator":{"value":32}}}},{"fullUrl":"Observation/c994a575-5012-4634-b756-c5269ff20920","resource":{"resourceType":"Observation","id":"c994a575-5012-4634-b756-c5269ff20920","meta":{"profile":["http://hl7.org/fhir/us/core/StructureDefinition/us-core-observation-lab"]},"status":"final","category":[{"coding":[{"system":"http://terminology.hl7.org/CodeSystem/observation-category","code":"laboratory","display":"Laboratory"}]}],"code":{"coding":[{"system":"http://loinc.org","code":"71793-4"}]},"subject":{"reference":"Patient/c5ea56f0-2bea-4412-ad4b-fe949c81effa"},"effectiveDateTime":"2022-01-09T00:00:00+00:00","valueRatio":{"numerator":{"value":1},"denominator":{"value":4}}}},{"fullUrl":"Condition/823d6dea-38a3-4e34-b3bb-17a128bb98ac","resource":{"resourceType":"Condition","id":"823d6dea-38a3-4e34-b3bb-17a128bb98ac","meta":{"profile":["http://hl7.org/fhir/us/core/StructureDefinition/us-core-condition"]},"clinicalStatus":{"coding":[{"system":"http://terminology.hl7.org/CodeSystem/condition-clinical","code":"active","display":"Active"}]},"category":[{"coding":[{"system":"http://terminology.hl7.org/CodeSystem/condition-category","code":"problem-list-item"}]}],"code":{"coding":[{"system":"http://snomed.info/sct","code":"91554004"}]},"subject":{"reference":"Patient/c5ea56f0-2bea-4412-ad4b-fe949c81effa"},"onsetDateTime":"2022-03-23T00:00:00+00:00"}},{"fullUrl":"Condition/a0003fb3-e8f9-4ac1-b636-2e0d5922175b","resource":{"resourceType":"Condition","id":"a0003fb3-e8f9-4ac1-b636-2e0d5922175b","meta":{"profile":["http://hl7.org/fhir/us/core/StructureDefinition/us-core-condition"]},"clinicalStatus":{"coding":[{"system":"http://terminology.hl7.org/CodeSystem/condition-clinical","code":"active","display":"Active"}]},"category":[{"coding":[{"system":"http://terminology.hl7.org/CodeSystem/condition-category","code":"problem-list-item"}]}],"code":{"coding":[{"system":"http://snomed.info/sct","code":"736686006"}]},"subject":{"reference":"Patient/c5ea56f0-2bea-4412-ad4b-fe949c81effa"},"onsetDateTime":"2022-02-18T00:00:00+00:00"}},{"fullUrl":"Condition/f906bf5b-bec7-4ae9-b614-54bf79f6007b","resource":{"resourceType":"Condition","id":"f906bf5b-bec7-4ae9-b614-54bf79f6007b","meta":{"profile":["http://hl7.org/fhir/us/core/StructureDefinition/us-core-condition"]},"clinicalStatus":{"coding":[{"system":"http://terminology.hl7.org/CodeSystem/condition-clinical","code":"active","display":"Active"}]},"category":[{"coding":[{"system":"http://terminology.hl7.org/CodeSystem/condition-category","code":"problem-list-item"}]}],"code":{"coding":[{"system":"http://snomed.info/sct","code":"709977002"}]},"subject":{"reference":"Patient/c5ea56f0-2bea-4412-ad4b-fe949c81effa"},"onsetDateTime":"2022-06-20T00:00:00+00:00"}},{"fullUrl":"Condition/4f3ab376-bc89-418d-b589-ff23b2daeacc","resource":{"resourceType":"Condition","id":"4f3ab376-bc89-418d-b589-ff23b2daeacc","meta":{"profile":["http://hl7.org/fhir/us/core/StructureDefinition/us-core-condition"]},"clinicalStatus":{"coding":[{"system":"http://terminology.hl7.org/CodeSystem/condition-clinical","code":"active","display":"Active"}]},"category":[{"coding":[{"system":"http://terminology.hl7.org/CodeSystem/condition-category","code":"problem-list-item"}]}],"code":{"coding":[{"system":"http://snomed.info/sct","code":"91554004"}]},"subject":{"reference":"Patient/c5ea56f0-2bea-4412-ad4b-fe949c81effa"},"onsetDateTime":"2022-03-22T00:00:00+00:00"}},{"fullUrl":"Condition/df1eee37-ee8e-4815-8066-3e3202b5b44f","resource":{"resourceType":"Condition","id":"df1eee37-ee8e-4815-8066-3e3202b5b44f","meta":{"profile":["http://hl7.org/fhir/us/core/StructureDefinition/us-core-condition"]},"clinicalStatus":{"coding":[{"system":"http://terminology.hl7.org/CodeSystem/condition-clinical","code":"active","display":"Active"}]},"category":[{"coding":[{"system":"http://terminology.hl7.org/CodeSystem/condition-category","code":"problem-list-item"}]}],"code":{"coding":[{"system":"http://snomed.info/sct","code":"709977002"}]},"subject":{"reference":"Patient/c5ea56f0-2bea-4412-ad4b-fe949c81effa"},"onsetDateTime":"2022-02-21T00:00:00+00:00"}},{"fullUrl":"Condition/c63905e1-c42b-4565-9801-d7b1dfc2f1e3","resource":{"resourceType":"Condition","id":"c63905e1-c42b-4565-9801-d7b1dfc2f1e3","meta":{"profile":["http://hl7.org/fhir/us/core/StructureDefinition/us-core-condition"]},"clinicalStatus":{"coding":[{"system":"http://terminology.hl7.org/CodeSystem/condition-clinical","code":"active","display":"Active"}]},"category":[{"coding":[{"system":"http://terminology.hl7.org/CodeSystem/condition-category","code":"problem-list-item"}]}],"code":{"coding":[{"system":"http://snomed.info/sct","code":"91554004"}]},"subject":{"reference":"Patient/c5ea56f0-2bea-4412-ad4b-fe949c81effa"},"onsetDateTime":"2022-04-30T00:00:00+00:00"}},{"fullUrl":"Observation/e60d0028-27ff-4246-8a6d-f2b90de33096","resource":{"resourceType":"Observation","id":"e60d0028-27ff-4246-8a6d-f2b90de33096","meta":{"profile":["http://hl7.org/fhir/us/core/StructureDefinition/us-core-observation-lab"]},"status":"final","category":[{"coding":[{"system":"http://terminology.hl7.org/CodeSystem/observation-category","code":"laboratory","display":"Laboratory"}]}],"code":{"coding":[{"system":"http://loinc.org","code":"49498-9"}]},"subject":{"reference":"Patient/c5ea56f0-2bea-4412-ad4b-fe949c81effa"},"effectiveDateTime":"2022-03-28T00:00:00+00:00","valueQuantity":{"value":7.3}}},{"fullUrl":"Observation/a67f1cff-7ef9-4afd-8a91-3dd5605abad9","resource":{"resourceType":"Observation","id":"a67f1cff-7ef9-4afd-8a91-3dd5605abad9","meta":{"profile":["http://hl7.org/fhir/us/core/StructureDefinition/us-core-observation-lab"]},"status":"final","category":[{"coding":[{"system":"http://terminology.hl7.org/CodeSystem/observation-category","code":"laboratory","display":"Laboratory"}]}],"code":{"coding":[{"system":"http://loinc.org","code":"49498-9"}]},"subject":{"reference":"Patient/c5ea56f0-2bea-4412-ad4b-fe949c81effa"},"effectiveDateTime":"2022-01-07T00:00:00+00:00","valueQuantity":{"value":6}}},{"fullUrl":"Observation/0e105a86-a52f-494d-8d3f-4e5aba554165","resource":{"resourceType":"Observation","id":"0e105a86-a52f-494d-8d3f-4e5aba554165","meta":{"profile":["http://hl7.org/fhir/us/core/StructureDefinition/us-core-bmi"]},"status":"final","category":[{"coding":[{"system":"http://terminology.hl7.org/CodeSystem/observation-category","code":"vital-signs","display":"Vital Signs"}]}],"code":{"coding":[{"system":"http://loinc.org","code":"39156-5"}]},"subject":{"reference":"Patient/c5ea56f0-2bea-4412-ad4b-fe949c81effa"},"effectiveDateTime":"2022-08-29T00:00:00+00:00","valueQuantity":{"value":13.22,"unit":"kg/m2","system":"http://unitsofmeasure.org","code":"kg/m2"}}},{"fullUrl":"Observation/c2fb9d52-f5b2-4b05-9f4e-ed8f5a90854c","resource":{"resourceType":"Observation","id":"c2fb9d52-f5b2-4b05-9f4e-ed8f5a90854c","meta":{"profile":["http://hl7.org/fhir/us/core/StructureDefinition/us-core-bmi"]},"status":"final","category":[{"coding":[{"system":"http://terminology.hl7.org/CodeSystem/observation-category","code":"vital-signs","display":"Vital Signs"}]}],"code":{"coding":[{"system":"http://loinc.org","code":"39156-5"}]},"subject":{"reference":"Patient/c5ea56f0-2bea-4412-ad4b-fe949c81effa"},"effectiveDateTime":"2022-02-02T00:00:00+00:00","valueQuantity":{"value":25.24,"unit":"kg/m2","system":"http://unitsofmeasure.org","code":"kg/m2"}}},{"fullUrl":"Observation/5958ca6d-1056-40bf-b17b-24eef9f0e158","resource":{"resourceType":"Observation","id":"5958ca6d-1056-40bf-b17b-24eef9f0e158","meta":{"profile":["http://hl7.org/fhir/us/core/StructureDefinition/us-core-head-circumference"]},"status":"final","category":[{"coding":[{"system":"http://terminology.hl7.org/CodeSystem/observation-category","code":"vital-signs","display":"Vital Signs"}]}],"code":{"coding":[{"system":"http://loinc.org","code":"9843-4"}]},"subject":{"reference":"Patient/c5ea56f0-2bea-4412-ad4b-fe949c81effa"},"effectiveDateTime":"2022-08-06T00:00:00+00:00","valueQuantity":{"value":2.7,"unit":"Inch","system":"http://unitsofmeasure.org","code":"[in_i]"}}},{"fullUrl":"Observation/e62c2b3f-278a-4d02-9c1a-e506cc677e16","resource":{"resourceType":"Observation","id":"e62c2b3f-278a-4d02-9c1a-e506cc677e16","meta":{"profile":["http://hl7.org/fhir/us/core/StructureDefinition/us-core-head-circumference"]},"status":"final","category":[{"coding":[{"system":"http://terminology.hl7.org/CodeSystem/observation-category","code":"vital-signs","display":"Vital Signs"}]}],"code":{"coding":[{"system":"http://loinc.org","code":"9843-4"}]},"subject":{"reference":"Patient/c5ea56f0-2bea-4412-ad4b-fe949c81effa"},"effectiveDateTime":"2022-04-03T00:00:00+00:00","valueQuantity":{"value":1.5,"unit":"Inch","system":"http://unitsofmeasure.org","code":"[in_i]"}}},{"fullUrl":"Observation/8fd4b6ca-8dc7-4bde-90c4-2df20b0534c4","resource":{"resourceType":"Observation","id":"8fd4b6ca-8dc7-4bde-90c4-2df20b0534c4","meta":{"profile":["http://hl7.org/fhir/us/core/StructureDefinition/us-core-body-height"]},"status":"final","category":[{"coding":[{"system":"http://terminology.hl7.org/CodeSystem/observation-category","code":"vital-signs","display":"Vital Signs"}]}],"code":{"coding":[{"system":"http://loinc.org","code":"8302-2"}]},"subject":{"reference":"Patient/c5ea56f0-2bea-4412-ad4b-fe949c81effa"},"effectiveDateTime":"2022-11-15T00:00:00+00:00","valueQuantity":{"value":66.3,"unit":"Inch","system":"http://unitsofmeasure.org","code":"[in_i]"}}},{"fullUrl":"Observation/9279e529-9a7a-4c77-9455-25c4760547a4","resource":{"resourceType":"Observation","id":"9279e529-9a7a-4c77-9455-25c4760547a4","meta":{"profile":["http://hl7.org/fhir/us/core/StructureDefinition/us-core-body-weight"]},"status":"final","category":[{"coding":[{"system":"http://terminology.hl7.org/CodeSystem/observation-category","code":"vital-signs","display":"Vital Signs"}]}],"code":{"coding":[{"system":"http://loinc.org","code":"29463-7"}]},"subject":{"reference":"Patient/c5ea56f0-2bea-4412-ad4b-fe949c81effa"},"effectiveDateTime":"2022-04-03T00:00:00+00:00","valueQuantity":{"value":30.31,"unit":"kilogram","system":"http://unitsofmeasure.org","code":"kg"}}},{"fullUrl":"Observation/4cc28fb6-f776-4ffc-bed4-0d8d7b3981d8","resource":{"resourceType":"Observation","id":"4cc28fb6-f776-4ffc-bed4-0d8d7b3981d8","meta":{"profile":["http://hl7.org/fhir/us/core/StructureDefinition/us-core-body-weight"]},"status":"final","category":[{"coding":[{"system":"http://terminology.hl7.org/CodeSystem/observation-category","code":"vital-signs","display":"Vital Signs"}]}],"code":{"coding":[{"system":"http://loinc.org","code":"29463-7"}]},"subject":{"reference":"Patient/c5ea56f0-2bea-4412-ad4b-fe949c81effa"},"effectiveDateTime":"2022-11-24T00:00:00+00:00","valueQuantity":{"value":92.49,"unit":"kilogram","system":"http://unitsofmeasure.org","code":"kg"}}},{"fullUrl":"Observation/a09c40e1-7148-4c0b-a8cc-630ec76ac45e","resource":{"resourceType":"Observation","id":"a09c40e1-7148-4c0b-a8cc-630ec76ac45e","meta":{"profile":["http://hl7.org/fhir/us/core/StructureDefinition/us-core-body-temperature"]},"status":"final","category":[{"coding":[{"system":"http://terminology.hl7.org/CodeSystem/observation-category","code":"vital-signs","display":"Vital Signs"}]}],"code":{"coding":[{"system":"http://loinc.org","code":"8310-5"}]},"subject":{"reference":"Patient/c5ea56f0-2bea-4412-ad4b-fe949c81effa"},"effectiveDateTime":"2022-06-22T00:00:00+00:00","valueQuantity":{"value":44.86,"unit":"Degrees Fahrenheit","system":"http://unitsofmeasure.org","code":"[degF]"}}},{"fullUrl":"Observation/b8ad936b-24cb-4186-b264-c73fada39084","resource":{"resourceType":"Observation","id":"b8ad936b-24cb-4186-b264-c73fada39084","meta":{"profile":["http://hl7.org/fhir/us/core/StructureDefinition/us-core-heart-rate"]},"status":"final","category":[{"coding":[{"system":"http://terminology.hl7.org/CodeSystem/observation-category","code":"vital-signs","display":"Vital Signs"}]}],"code":{"coding":[{"system":"http://loinc.org","code":"8867-4"}]},"subject":{"reference":"Patient/c5ea56f0-2bea-4412-ad4b-fe949c81effa"},"effectiveDateTime":"2022-02-25T00:00:00+00:00","valueQuantity":{"value":97.4,"unit":"Per Minute","system":"http://unitsofmeasure.org","code":"/min"}}},{"fullUrl":"Observation/aeb88535-9dcd-4c72-92ef-1141a4f5be17","resource":{"resourceType":"Observation","id":"aeb88535-9dcd-4c72-92ef-1141a4f5be17","meta":{"profile":["http://hl7.org/fhir/us/core/StructureDefinition/us-core-heart-rate"]},"status":"final","category":[{"coding":[{"system":"http://terminology.hl7.org/CodeSystem/observation-category","code":"vital-signs","display":"Vital Signs"}]}],"code":{"coding":[{"system":"http://loinc.org","code":"8867-4"}]},"subject":{"reference":"Patient/c5ea56f0-2bea-4412-ad4b-fe949c81effa"},"effectiveDateTime":"2022-06-02T00:00:00+00:00","valueQuantity":{"value":99.9,"unit":"Per Minute","system":"http://unitsofmeasure.org","code":"/min"}}},{"fullUrl":"Patient/2e3fc83e-8691-4c22-8b4c-dff9c138a133","resource":{"resourceType":"Patient","id":"2e3fc83e-8691-4c22-8b4c-dff9c138a133","meta":{"profile":["http://hl7.org/fhir/us/core/StructureDefinition/us-core-patient"]},"extension":[{"extension":[{"url":"ombCategory","valueCoding":{"system":"urn:oid:2.16.840.1.113883.6.238","code":"2076-8","display":"Native Hawaiian or Other Pacific Islander"}},{"url":"text","valueString":"Native Hawaiian or Other Pacific Islander"}],"url":"http://hl7.org/fhir/us/core/StructureDefinition/us-core-race"},{"extension":[{"url":"ombCategory","valueCoding":{"system":"urn:oid:2.16.840.1.113883.6.238","code":"2135-2","display":"Hispanic or Latino"}},{"url":"text","valueString":"Hispanic or Latino"}],"url":"http://hl7.org/fhir/us/core/StructureDefinition/us-core-ethnicity"}],"identifier":[{"type":{"coding":[{"system":"http://terminology.hl7.org/CodeSystem/v2-0203","code":"MR"}]},"system":"urn:fhirgen:mrn","value":"524-89-4990"}],"name":[{"use":"official","family":"Richardson","given":["Kimberly"]},{"use":"maiden","family":"Lewis"}],"telecom":[{"system":"phone","value":"001-601-194-7282x3587","use":"mobile"},{"system":"email","value":"marythomas@yahoo.com","use":"mobile"}],"gender":"other","birthDate":"1971-08-30","address":[{"use":"home","line":["164 Jackson Expressway Suite 137"],"city":"Shawnburgh","state":"NM","postalCode":"37623"},{"use":"old","line":["5957 Melanie Forges"],"city":"Michaelton","state":"IL","postalCode":"43676"}]}},{"fullUrl":"Observation/2c1fea3d-1fe0-4026-b23d-18fde2fbce7f","resource":{"resourceType":"Observation","id":"2c1fea3d-1fe0-4026-b23d-18fde2fbce7f","meta":{"profile":["http://hl7.org/fhir/us/core/StructureDefinition/us-core-observation-lab"]},"status":"final","category":[{"coding":[{"system":"http://terminology.hl7.org/CodeSystem/observation-category","code":"laboratory","display":"Laboratory"}]}],"code":{"coding":[{"system":"http://loinc.org","code":"26009-1"}]},"subject":{"reference":"Patient/2e3fc83e-8691-4c22-8b4c-dff9c138a133"},"effectiveDateTime":"2022-10-16T00:00:00+00:00","valueRatio":{"numerator":{"value":1},"denominator":{"value":32}}}},{"fullUrl":"Observation/0ac81a18-76a2-4bd5-aa94-075e33d7276a","resource":{"resourceType":"Observation","id":"0ac81a18-76a2-4bd5-aa94-075e33d7276a","meta":{"profile":["http://hl7.org/fhir/us/core/StructureDefinition/us-core-observation-lab"]},"status":"final","category":[{"coding":[{"system":"http://terminology.hl7.org/CodeSystem/observation-category","code":"laboratory","display":"Laboratory"}]}],"code":{"coding":[{"system":"http://loinc.org","code":"51475-2"}]},"subject":{"reference":"Patient/2e3fc83e-8691-4c22-8b4c-dff9c138a133"},"effectiveDateTime":"2022-05-25T00:00:00+00:00","valueRatio":{"numerator":{"value":1},"denominator":{"value":32}}}},{"fullUrl":"Condition/14d1fa69-e032-4ae4-850f-3e8cbe3f025b","resource":{"resourceType":"Condition","id":"14d1fa69-e032-4ae4-850f-3e8cbe3f025b","meta":{"profile":["http://hl7.org/fhir/us/core/StructureDefinition/us-core-condition"]},"clinicalStatus":{"coding":[{"system":"http://terminology.hl7.org/CodeSystem/condition-clinical","code":"active","display":"Active"}]},"category":[{"coding":[{"system":"http://terminology.hl7.org/CodeSystem/condition-category","code":"problem-list-item"}]}],"code":{"coding":[{"system":"http://snomed.info/sct","code":"44882003"}]},"subject":{"reference":"Patient/2e3fc83e-8691-4c22-8b4c-dff9c138a133"},"onsetDateTime":"2022-11-22T00:00:00+00:00"}},{"fullUrl":"Condition/28962bb0-3194-428e-96d0-db91fa0f17ae","resource":{"resourceType":"Condition","id":"28962bb0-3194-428e-96d0-db91fa0f17ae","meta":{"profile":["http://hl7.org/fhir/us/core/StructureDefinition/us-core-condition"]},"clinicalStatus":{"coding":[{"system":"http://terminology.hl7.org/CodeSystem/condition-clinical","code":"active","display":"Active"}]},"category":[{"coding":[{"system":"http://terminology.hl7.org/CodeSystem/condition-category","code":"problem-list-item"}]}],"code":{"coding":[{"system":"http://snomed.info/sct","code":"44882003"}]},"subject":{"reference":"Patient/2e3fc83e-8691-4c22-8b4c-dff9c138a133"},"onsetDateTime":"2022-11-03T00:00:00+00:00"}},{"fullUrl":"Condition/ea207e19-895c-4406-ae53-18ecf785f8a5","resource":{"resourceType":"Condition","id":"ea207e19-895c-4406-ae53-18ecf785f8a5","meta":{"profile":["http://hl7.org/fhir/us/core/StructureDefinition/us-core-condition"]},"clinicalStatus":{"coding":[{"system":"http://terminology.hl7.org/CodeSystem/condition-clinical","code":"active","display":"Active"}]},"category":[{"coding":[{"system":"http://terminology.hl7.org/CodeSystem/condition-category","code":"problem-list-item"}]}],"code":{"coding":[{"system":"http://snomed.info/sct","code":"709977002"}]},"subject":{"reference":"Patient/2e3fc83e-8691-4c22-8b4c-dff9c138a133"},"onsetDateTime":"2022-02-06T00:00:00+00:00"}},{"fullUrl":"Condition/37170a41-0226-4d51-a236-f344a5dfe3cb","resource":{"resourceType":"Condition","id":"37170a41-0226-4d51-a236-f344a5dfe3cb","meta":{"profile":["http://hl7.org/fhir/us/core/StructureDefinition/us-core-condition"]},"clinicalStatus":{"coding":[{"system":"http://terminology.hl7.org/CodeSystem/condition-clinical","code":"active","display":"Active"}]},"category":[{"coding":[{"system":"http://terminology.hl7.org/CodeSystem/condition-category","code":"problem-list-item"}]}],"code":{"coding":[{"system":"http://snomed.info/sct","code":"736686006"}]},"subject":{"reference":"Patient/2e3fc83e-8691-4c22-8b4c-dff9c138a133"},"onsetDateTime":"2022-06-06T00:00:00+00:00"}},{"fullUrl":"Condition/1bff10ff-e4ed-4ae0-9633-d2307fa803c6","resource":{"resourceType":"Condition","id":"1bff10ff-e4ed-4ae0-9633-d2307fa803c6","meta":{"profile":["http://hl7.org/fhir/us/core/StructureDefinition/us-core-condition"]},"clinicalStatus":{"coding":[{"system":"http://terminology.hl7.org/CodeSystem/condition-clinical","code":"active","display":"Active"}]},"category":[{"coding":[{"system":"http://terminology.hl7.org/CodeSystem/condition-category","code":"problem-list-item"}]}],"code":{"coding":[{"system":"http://snomed.info/sct","code":"736686006"}]},"subject":{"reference":"Patient/2e3fc83e-8691-4c22-8b4c-dff9c138a133"},"onsetDateTime":"2022-10-07T00:00:00+00:00"}},{"fullUrl":"Condition/34a723e3-17cb-4dae-9b3a-6dd2e61fe1eb","resource":{"resourceType":"Condition","id":"34a723e3-17cb-4dae-9b3a-6dd2e61fe1eb","meta":{"profile":["http://hl7.org/fhir/us/core/StructureDefinition/us-core-condition"]},"clinicalStatus":{"coding":[{"system":"http://terminology.hl7.org/CodeSystem/condition-clinical","code":"active","display":"Active"}]},"category":[{"coding":[{"system":"http://terminology.hl7.org/CodeSystem/condition-category","code":"problem-list-item"}]}],"code":{"coding":[{"system":"http://snomed.info/sct","code":"736686006"}]},"subject":{"reference":"Patient/2e3fc83e-8691-4c22-8b4c-dff9c138a133"},"onsetDateTime":"2022-07-09T00:00:00+00:00"}},{"fullUrl":"Observation/d3735717-e488-4ad3-9376-534ac9278eac","resource":{"resourceType":"Observation","id":"d3735717-e488-4ad3-9376-534ac9278eac","meta":{"profile":["http://hl7.org/fhir/us/core/StructureDefinition/us-core-observation-lab"]},"status":"final","category":[{"coding":[{"system":"http://terminology.hl7.org/CodeSystem/observation-category","code":"laboratory","display":"Laboratory"}]}],"code":{"coding":[{"system":"http://loinc.org","code":"26464-8"}]},"subject":{"reference":"Patient/2e3fc83e-8691-4c22-8b4c-dff9c138a133"},"effectiveDateTime":"2022-03-23T00:00:00+00:00","valueQuantity":{"value":5.1}}},{"fullUrl":"Observation/6c4b9788-e037-4ce4-8173-0d09b12f1ee3","resource":{"resourceType":"Observation","id":"6c4b9788-e037-4ce4-8173-0d09b12f1ee3","meta":{"profile":["http://hl7.org/fhir/us/core/StructureDefinition/us-core-observation-lab"]},"status":"final","category":[{"coding":[{"system":"http://terminology.hl7.org/CodeSystem/observation-category","code":"laboratory","display":"Laboratory"}]}],"code":{"coding":[{"system":"http://loinc.org","code":"49498-9"}]},"subject":{"reference":"Patient/2e3fc83e-8691-4c22-8b4c-dff9c138a133"},"effectiveDateTime":"2022-07-15T00:00:00+00:00","valueQuantity":{"value":9}}},{"fullUrl":"Observation/c4e10913-8a1d-4466-9762-e94f3c1e0df3","resource":{"resourceType":"Observation","id":"c4e10913-8a1d-4466-9762-e94f3c1e0df3","meta":{"profile":["http://hl7.org/fhir/us/core/StructureDefinition/us-core-observation-lab"]},"status":"final","category":[{"coding":[{"system":"http://terminology.hl7.org/CodeSystem/observation-category","code":"laboratory","display":"Laboratory"}]}],"code":{"coding":[{"system":"http://loinc.org","code":"26464-8"}]},"subject":{"reference":"Patient/2e3fc83e-8691-4c22-8b4c-dff9c138a133"},"effectiveDateTime":"2022-02-15T00:00:00+00:00","valueQuantity":{"value":6.8}}},{"fullUrl":"Observation/44bb9358-ba70-4146-9848-7c2a6f8b8e07","resource":{"resourceType":"Observation","id":"44bb9358-ba70-4146-9848-7c2a6f8b8e07","meta":{"profile":["http://hl7.org/fhir/us/core/StructureDefinition/us-core-bmi"]},"status":"final","category":[{"coding":[{"system":"http://terminology.hl7.org/CodeSystem/observation-category","code":"vital-signs","display":"Vital Signs"}]}],"code":{"coding":[{"system":"http://loinc.org","code":"39156-5"}]},"subject":{"reference":"Patient/2e3fc83e-8691-4c22-8b4c-dff9c138a133"},"effectiveDateTime":"2022-06-16T00:00:00+00:00","valueQuantity":{"value":21.78,"unit":"kg/m2","system":"http://unitsofmeasure.org","code":"kg/m2"}}},{"fullUrl":"Observation/6af26cd4-52ca-4fbe-a542-774b3cdfbff7","resource":{"resourceType":"Observation","id":"6af26cd4-52ca-4fbe-a542-774b3cdfbff7","meta":{"profile":["http://hl7.org/fhir/us/core/StructureDefinition/us-core-bmi"]},"status":"final","category":[{"coding":[{"system":"http://terminology.hl7.org/CodeSystem/observation-category","code":"vital-signs","display":"Vital Signs"}]}],"code":{"coding":[{"system":"http://loinc.org","code":"39156-5"}]},"subject":{"reference":"Patient/2e3fc83e-8691-4c22-8b4c-dff9c138a133"},"effectiveDateTime":"2022-10-25T00:00:00+00:00","valueQuantity":{"value":23.51,"unit":"kg/m2","system":"http://unitsofmeasure.org","code":"kg/m2"}}},{"fullUrl":"Observation/b0994234-2583-47e8-ad78-2dad069cbb93","resource":{"resourceType":"Observation","id":"b0994234-2583-47e8-ad78-2dad069cbb93","meta":{"profile":["http://hl7.org/fhir/us/core/StructureDefinition/us-core-head-circumference"]},"status":"final","category":[{"coding":[{"system":"http://terminology.hl7.org/CodeSystem/observation-category","code":"vital-signs","display":"Vital Signs"}]}],"code":{"coding":[{"system":"http://loinc.org","code":"9843-4"}]},"subject":{"reference":"Patient/2e3fc83e-8691-4c22-8b4c-dff9c138a133"},"effectiveDateTime":"2022-06-06T00:00:00+00:00","valueQuantity":{"value":6.6,"unit":"Inch","system":"http://unitsofmeasure.org","code":"[in_i]"}}},{"fullUrl":"Observation/79253a29-9342-4fbb-9192-9ac4139d59ce","resource":{"resourceType":"Observation","id":"79253a29-9342-4fbb-9192-9ac4139d59ce","meta":{"profile":["http://hl7.org/fhir/us/core/StructureDefinition/us-core-body-height"]},"status":"final","category":[{"coding":[{"system":"http://terminology.hl7.org/CodeSystem/observation-category","code":"vital-signs","display":"Vital Signs"}]}],"code":{"coding":[{"system":"http://loinc.org","code":"8302-2"}]},"subject":{"reference":"Patient/2e3fc83e-8691-4c22-8b4c-dff9c138a133"},"effectiveDateTime":"2022-01-15T00:00:00+00:00","valueQuantity":{"value":76.1,"unit":"Inch","system":"http://unitsofmeasure.org","code":"[in_i]"}}},{"fullUrl":"Observation/ddd8d82e-6624-4cbd-a1bd-ae7e9722fdae","resource":{"resourceType":"Observation","id":"ddd8d82e-6624-4cbd-a1bd-ae7e9722fdae","meta":{"profile":["http://hl7.org/fhir/us/core/StructureDefinition/us-core-body-height"]},"status":"final","category":[{"coding":[{"system":"http://terminology.hl7.org/CodeSystem/observation-category","code":"vital-signs","display":"Vital Signs"}]}],"code":{"coding":[{"system":"http://loinc.org","code":"8302-2"}]},"subject":{"reference":"Patient/2e3fc83e-8691-4c22-8b4c-dff9c138a133"},"effectiveDateTime":"2022-10-02T00:00:00+00:00","valueQuantity":{"value":64.7,"unit":"Inch","system":"http://unitsofmeasure.org","code":"[in_i]"}}},{"fullUrl":"Observation/b2bd0b42-21e7-4e08-b31a-bf16fb418324","resource":{"resourceType":"Observation","id":"b2bd0b42-21e7-4e08-b31a-bf16fb418324","meta":{"profile":["http://hl7.org/fhir/us/core/StructureDefinition/us-core-body-weight"]},"status":"final","category":[{"coding":[{"system":"http://terminology.hl7.org/CodeSystem/observation-category","code":"vital-signs","display":"Vital Signs"}]}],"code":{"coding":[{"system":"http://loinc.org","code":"29463-7"}]},"subject":{"reference":"Patient/2e3fc83e-8691-4c22-8b4c-dff9c138a133"},"effectiveDateTime":"2022-01-31T00:00:00+00:00","valueQuantity":{"value":104.09,"unit":"kilogram","system":"http://unitsofmeasure.org","code":"kg"}}},{"fullUrl":"Observation/d932355e-dc26-48b5-acc6-422fe3801cb4","resource":{"resourceType":"Observation","id":"d932355e-dc26-48b5-acc6-422fe3801cb4","meta":{"profile":["http://hl7.org/fhir/us/core/StructureDefinition/us-core-body-weight"]},"status":"final","category":[{"coding":[{"system":"http://terminology.hl7.org/CodeSystem/observation-category","code":"vital-signs","display":"Vital Signs"}]}],"code":{"coding":[{"system":"http://loinc.org","code":"29463-7"}]},"subject":{"reference":"Patient/2e3fc83e-8691-4c22-8b4c-dff9c138a133"},"effectiveDateTime":"2022-01-09T00:00:00+00:00","valueQuantity":{"value":149.28,"unit":"kilogram","system":"http://unitsofmeasure.org","code":"kg"}}},{"fullUrl":"Observation/8a11c319-77cb-4c7a-bed9-e57607d10eeb","resource":{"resourceType":"Observation","id":"8a11c319-77cb-4c7a-bed9-e57607d10eeb","meta":{"profile":["http://hl7.org/fhir/us/core/StructureDefinition/us-core-body-temperature"]},"status":"final","category":[{"coding":[{"system":"http://terminology.hl7.org/CodeSystem/observation-category","code":"vital-signs","display":"Vital Signs"}]}],"code":{"coding":[{"system":"http://loinc.org","code":"8310-5"}]},"subject":{"reference":"Patient/2e3fc83e-8691-4c22-8b4c-dff9c138a133"},"effectiveDateTime":"2022-12-08T00:00:00+00:00","valueQuantity":{"value":73.19,"unit":"Degrees Fahrenheit","system":"http://unitsofmeasure.org","code":"[degF]"}}},{"fullUrl":"Observation/b6a19cd1-f4e5-4d66-b084-7cc310a2dd71","resource":{"resourceType":"Observation","id":"b6a19cd1-f4e5-4d66-b084-7cc310a2dd71","meta":{"profile":["http://hl7.org/fhir/us/core/StructureDefinition/us-core-body-temperature"]},"status":"final","category":[{"coding":[{"system":"http://terminology.hl7.org/CodeSystem/observation-category","code":"vital-signs","display":"Vital Signs"}]}],"code":{"coding":[{"system":"http://loinc.org","code":"8310-5"}]},"subject":{"reference":"Patient/2e3fc83e-8691-4c22-8b4c-dff9c138a133"},"effectiveDateTime":"2022-10-02T00:00:00+00:00","valueQuantity":{"value":133.2,"unit":"Degrees Fahrenheit","system":"http://unitsofmeasure.org","code":"[degF]"}}},{"fullUrl":"Observation/5367682e-6ed3-4533-97db-188d58e34b28","resource":{"resourceType":"Observation","id":"5367682e-6ed3-4533-97db-188d58e34b28","meta":{"profile":["http://hl7.org/fhir/us/core/StructureDefinition/us-core-heart-rate"]},"status":"final","category":[{"coding":[{"system":"http://terminology.hl7.org/CodeSystem/observation-category","code":"vital-signs","display":"Vital Signs"}]}],"code":{"coding":[{"system":"http://loinc.org","code":"8867-4"}]},"subject":{"reference":"Patient/2e3fc83e-8691-4c22-8b4c-dff9c138a133"},"effectiveDateTime":"2022-07-19T00:00:00+00:00","valueQuantity":{"value":100.7,"unit":"Per Minute","system":"http://unitsofmeasure.org","code":"/min"}}},{"fullUrl":"Observation/efb3ba07-f4d6-40b6-9e2a-d2fd6d1ea059","resource":{"resourceType":"Observation","id":"efb3ba07-f4d6-40b6-9e2a-d2fd6d1ea059","meta":{"profile":["http://hl7.org/fhir/us/core/StructureDefinition/us-core-heart-rate"]},"status":"final","category":[{"coding":[{"system":"http://terminology.hl7.org/CodeSystem/observation-category","code":"vital-signs","display":"Vital Signs"}]}],"code":{"coding":[{"system":"http://loinc.org","code":"8867-4"}]},"subject":{"reference":"Patient/2e3fc83e-8691-4c22-8b4c-dff9c138a133"},"effectiveDateTime":"2022-11-29T00:00:00+00:00","valueQuantity":{"value":97.3,"unit":"Per Minute","system":"http://unitsofmeasure.org","code":"/min"}}}]}