{"resourceType":"Bundle","id":"a7f50137-b1ab-497c-a870-c98a157d7639","type":"transaction","entry":[{"fullUrl":"Patient/63d1051e-70ea-4039-850e-aa8780cfa688","resource":{"resourceType":"Patient","id":"63d1051e-70ea-4039-850e-aa8780cfa688","identifier":[{"type":{"coding":[{"system":"http://terminology.hl7.org/CodeSystem/v2-0203","code":"MR"}]},"system":"urn:fhirgen:mrn","value":"083-54-5179"}],"name":[{"use":"official","family":"Duffy","given":["Gregory"]},{"use":"maiden","family":"Hayden"}],"telecom":[{"system":"phone","value":"001-813-965-1853x3423","use":"home"},{"system":"email","value":"lindahudson@hotmail.com","use":"work"}],"gender":"male","birthDate":"1959-08-21","address":[{"use":"home","line":["93548 West Rapid Suite 408"],"city":"North Robert","state":"WA","postalCode":"34383"},{"use":"old","line":["788 Linda Mountains"],"city":"North Rebeccaborough","state":"CT","postalCode":"86088"}]},"request":{"method":"POST","url":"Patient"}},{"fullUrl":"Observation/059bf67e-0ecf-4316-9caf-22b76cad3710","resource":{"resourceType":"Observation","id":"059bf67e-0ecf-4316-9caf-22b76cad3710","status":"final","code":{"coding":[{"system":"http://loinc.org","code":"47476-7"}]},"subject":{"reference":"Patient/63d1051e-70ea-4039-850e-aa8780cfa688"},"effectiveDateTime":"2022-06-11T00:00:00+00:00","valueRatio":{"numerator":{"value":1},"denominator":{"value":4}}},"request":{"method":"POST","url":"Observation"}},{"fullUrl":"Observation/186014fb-c1d3-4d9f-aebd-7f42c6628c8a","resource":{"resourceType":"Observation","id":"186014fb-c1d3-4d9f-aebd-7f42c6628c8a","status":"final","code":{"coding":[{"system":"http://loinc.org","code":"50690-7"}]},"subject":{"reference":"Patient/63d1051e-70ea-4039-850e-aa8780cfa688"},"effectiveDateTime":"2022-12-05T00:00:00+00:00","valueRatio":{"numerator":{"value":1},"denominator":{"value":32}}},"request":{"method":"POST","url":"Observation"}},{"fullUrl":"Condition/25de9cf2-d1f0-4aea-9471-0fca1db562b9","resource":{"resourceType":"Condition","id":"25de9cf2-d1f0-4aea-9471-0fca1db562b9","code":{"coding":[{"system":"http://snomed.info/sct","code":"271939006"}]},"subject":{"reference":"Patient/63d1051e-70ea-4039-850e-aa8780cfa688"},"onsetDateTime":"2022-02-25T00:00:00+00:00"},"request":{"method":"POST","url":"Condition"}},{"fullUrl":"Condition/fe76d30d-93be-4ba7-88e7-bf270e09374f","resource":{"resourceType":"Condition","id":"fe76d30d-93be-4ba7-88e7-bf270e09374f","code":{"coding":[{"system":"http://snomed.info/sct","code":"18165001"}]},"subject":{"reference":"Patient/63d1051e-70ea-4039-850e-aa8780cfa688"},"onsetDateTime":"2022-02-10T00:00:00+00:00"},"request":{"method":"POST","url":"Condition"}},{"fullUrl":"Condition/95f9ef8a-1177-460e-89ae-192de71108ba","resource":{"resourceType":"Condition","id":"95f9ef8a-1177-460e-89ae-192de71108ba","code":{"coding":[{"system":"http://snomed.info/sct","code":"18165001"}]},"subject":{"reference":"Patient/63d1051e-70ea-4039-850e-aa8780cfa688"},"onsetDateTime":"2022-05-06T00:00:00+00:00"},"request":{"method":"POST","url":"Condition"}},{"fullUrl":"Observation/f94cb3cc-0a03-45ad-a60d-d7750c141f31","resource":{"resourceType":"Observation","id":"f94cb3cc-0a03-45ad-a60d-d7750c141f31","status":"final","code":{"coding":[{"system":"http://www.ama-assn.org/go/cpt","code":"85048"}]},"subject":{"reference":"Patient/63d1051e-70ea-4039-850e-aa8780cfa688"},"effectiveDateTime":"2022-10-18T00:00:00+00:00","valueQuantity":{"value":6.5}},"request":{"method":"POST","url":"Observation"}},{"fullUrl":"Observation/788549b1-e9db-4e76-8513-7cd6fc05c528","resource":{"resourceType":"Observation","id":"788549b1-e9db-4e76-8513-7cd6fc05c528","status":"final","code":{"coding":[{"system":"http://loinc.org","code":"6690-2"}]},"subject":{"reference":"Patient/63d1051e-70ea-4039-850e-aa8780cfa688"},"effectiveDateTime":"2022-07-13T00:00:00+00:00","valueQuantity":{"value":11}},"request":{"method":"POST","url":"Observation"}},{"fullUrl":"Observation/bfde3b9b-52d6-4667-8805-2603c0c3b8c9","resource":{"resourceType":"Observation","id":"bfde3b9b-52d6-4667-8805-2603c0c3b8c9","status":"final","code":{"coding":[{"system":"http://loinc.org","code":"49498-9"}]},"subject":{"reference":"Patient/63d1051e-70ea-4039-850e-aa8780cfa688"},"effectiveDateTime":"2022-09-12T00:00:00+00:00","valueQuantity":{"value":5.8}},"request":{"method":"POST","url":"Observation"}},{"fullUrl":"Observation/8581ce51-339e-46eb-a143-900ae5607e50","resource":{"resourceType":"Observation","id":"8581ce51-339e-46eb-a143-900ae5607e50","status":"final","code":{"coding":[{"system":"http://www.ama-assn.org/go/cpt","code":"85048"}]},"subject":{"reference":"Patient/63d1051e-70ea-4039-850e-aa8780cfa688"},"effectiveDateTime":"2022-11-12T00:00:00+00:00","valueCodeableConcept":{"coding":[{"system":"snomed","code":"123456","display":"fake snomed"}]}},"request":{"method":"POST","url":"Observation"}},{"fullUrl":"Observation/24a561e0-7497-4cbe-9d72-251257f8f699","resource":{"resourceType":"Observation","id":"24a561e0-7497-4cbe-9d72-251257f8f699","status":"final","code":{"coding":[{"system":"http://loinc.org","code":"26464-8"}]},"subject":{"reference":"Patient/63d1051e-70ea-4039-850e-aa8780cfa688"},"effectiveDateTime":"2022-09-08T00:00:00+00:00","valueCodeableConcept":{"coding":[{"system":"snomed","code":"123456","display":"fake snomed"}]}},"request":{"method":"POST","url":"Observation"}},{"fullUrl":"Observation/9b6db472-6dc1-4be7-bfec-6f1882ef375b","resource":{"resourceType":"Observation","id":"9b6db472-6dc1-4be7-bfec-6f1882ef375b","status":"final","code":{"coding":[{"system":"http://loinc.org","code":"49498-9"}]},"subject":{"reference":"Patient/63d1051e-70ea-4039-850e-aa8780cfa688"},"effectiveDateTime":"2022-03-27T00:00:00+00:00"},"request":{"method":"POST","url":"Observation"}},{"fullUrl":"Observation/909ff027-52ed-4325-ae19-9bf379ad9fd4","resource":{"resourceType":"Observation","id":"909ff027-52ed-4325-ae19-9bf379ad9fd4","status":"final","code":{"coding":[{"system":"http://loinc.org","code":"49498-9"}]},"subject":{"reference":"Patient/63d1051e-70ea-4039-850e-aa8780cfa688"},"effectiveDateTime":"2022-04-16T00:00:00+00:00"},"request":{"method":"POST","url":"Observation"}},{"fullUrl":"Observation/d6d90f8d-2120-4a1c-a8cb-7d06db6db5da","resource":{"resourceType":"Observation","id":"d6d90f8d-2120-4a1c-a8cb-7d06db6db5da","status":"final","code":{"coding":[{"system":"http://loinc.org","code":"49498-9"}]},"subject":{"reference":"Patient/63d1051e-70ea-4039-850e-aa8780cfa688"},"effectiveDateTime":"2022-12-15T00:00:00+00:00"},"request":{"method":"POST","url":"Observation"}},{"fullUrl":"Procedure/da2ab303-fd49-48df-8eae-3410ab6a9e71","resource":{"resourceType":"Procedure","id":"da2ab303-fd49-48df-8eae-3410ab6a9e71","status":"completed","code":{"coding":[{"system":"http://snomed.info/sct","code":"189009"}]},"subject":{"reference":"Patient/63d1051e-70ea-4039-850e-aa8780cfa688"},"performedDateTime":"2022-08-20T00:00:00+00:00"},"request":{"method":"POST","url":"Procedure"}},{"fullUrl":"Procedure/28a3ba7f-6559-4847-bec9-4022f77e16a2","resource":{"resourceType":"Procedure","id":"28a3ba7f-6559-4847-bec9-4022f77e16a2","status":"completed","code":{"coding":[{"system":"http://snomed.info/sct","code":"146005"}]},"subject":{"reference":"Patient/63d1051e-70ea-4039-850e-aa8780cfa688"},"performedDateTime":"2022-03-27T00:00:00+00:00"},"request":{"method":"POST","url":"Procedure"}},{"fullUrl":"Procedure/c927b353-7edf-4c0c-8cc5-33264b1acc00","resource":{"resourceType":"Procedure","id":"c927b353-7edf-4c0c-8cc5-33264b1acc00","status":"completed","code":{"coding":[{"system":"http://snomed.info/sct","code":"104001"}]},"subject":{"reference":"Patient/63d1051e-70ea-4039-850e-aa8780cfa688"},"performedDateTime":"2022-03-14T00:00:00+00:00"},"request":{"method":"POST","url":"Procedure"}},{"fullUrl":"MedicationStatement/c18693f2-4260-4578-849c-4383976733a7","resource":{"resourceType":"MedicationStatement","id":"c18693f2-4260-4578-849c-4383976733a7","status":"completed","medicationCodeableConcept":{"coding":[{"system":"http://www.nlm.nih.gov/research/umls/rxnorm","code":"8698"}]},"subject":{"reference":"Patient/63d1051e-70ea-4039-850e-aa8780cfa688"},"effectiveDateTime":"2022-06-02T00:00:00+00:00","dosage":[{"doseAndRate":[{"doseQuantity":{"value":1,"unit":"TAB","system":"http://terminology.hl7.org/CodeSystem/v3-orderableDrugForm","code":"TAB"}}]}]},"request":{"method":"POST","url":"MedicationStatement"}},{"fullUrl":"MedicationStatement/d0ad61cd-665a-46fc-aa10-51cee50baf8b","resource":{"resourceType":"MedicationStatement","id":"d0ad61cd-665a-46fc-aa10-51cee50baf8b","status":"completed","medicationCodeableConcept":{"coding":[{"system":"http://www.nlm.nih.gov/research/umls/rxnorm","code":"7980"}]},"subject":{"reference":"Patient/63d1051e-70ea-4039-850e-aa8780cfa688"},"effectiveDateTime":"2022-05-31T00:00:00+00:00","dosage":[{"doseAndRate":[{"doseQuantity":{"value":2,"unit":"TAB","system":"http://terminology.hl7.org/CodeSystem/v3-orderableDrugForm","code":"TAB"}}]}]},"request":{"method":"POST","url":"MedicationStatement"}},{"fullUrl":"MedicationStatement/c84c04c6-d7f5-441f-bfbd-06d7fc7f62ce","resource":{"resourceType":"MedicationStatement","id":"c84c04c6-d7f5-441f-bfbd-06d7fc7f62ce","status":"completed","medicationCodeableConcept":{"coding":[{"system":"http://www.nlm.nih.gov/research/umls/rxnorm","code":"7984"}]},"subject":{"reference":"Patient/63d1051e-70ea-4039-850e-aa8780cfa688"},"effectiveDateTime":"2022-12-03T00:00:00+00:00","dosage":[{"doseAndRate":[{"doseQuantity":{"value":1,"unit":"TAB","system":"http://terminology.hl7.org/CodeSystem/v3-orderableDrugForm","code":"TAB"}}]}]},"request":{"method":"POST","url":"MedicationStatement"}},{"fullUrl":"MedicationStatement/bc38700e-cfe9-462e-9cbb-62ac9f22ea6f","resource":{"resourceType":"MedicationStatement","id":"bc38700e-cfe9-462e-9cbb-62ac9f22ea6f","status":"completed","medicationCodeableConcept":{"coding":[{"system":"http://www.nlm.nih.gov/research/umls/rxnorm","code":"7984"}]},"subject":{"reference":"Patient/63d1051e-70ea-4039-850e-aa8780cfa688"},"effectiveDateTime":"2022-03-29T00:00:00+00:00","dosage":[{"doseAndRate":[{"doseQuantity":{"value":1,"unit":"TAB","system":"http://terminology.hl7.org/CodeSystem/v3-orderableDrugForm","code":"TAB"}}]}]},"request":{"method":"POST","url":"MedicationStatement"}},{"fullUrl":"MedicationStatement/0f4933ac-d73f-4685-8ab5-c895c553ca98","resource":{"resourceType":"MedicationStatement","id":"0f4933ac-d73f-4685-8ab5-c895c553ca98","status":"completed","medicationCodeableConcept":{"coding":[{"system":"http://www.nlm.nih.gov/research/umls/rxnorm","code":"8698"}]},"subject":{"reference":"Patient/63d1051e-70ea-4039-850e-aa8780cfa688"},"effectiveDateTime":"2022-06-09T00:00:00+00:00","dosage":[{"doseAndRate":[{"doseQuantity":{"value":1,"unit":"TAB","system":"http://terminology.hl7.org/CodeSystem/v3-orderableDrugForm","code":"TAB"}}]}]},"request":{"method":"POST","url":"MedicationStatement"}},{"fullUrl":"MedicationStatement/2dfd1bd1-f8e7-4779-82eb-f6a0100251d9","resource":{"resourceType":"MedicationStatement","id":"2dfd1bd1-f8e7-4779-82eb-f6a0100251d9","status":"completed","medicationCodeableConcept":{"coding":[{"system":"http://www.nlm.nih.gov/research/umls/rxnorm","code":"3640"}]},"subject":{"reference":"Patient/63d1051e-70ea-4039-850e-aa8780cfa688"},"effectiveDateTime":"2022-08-08T00:00:00+00:00","dosage":[{"doseAndRate":[{"doseQuantity":{"value":5.7,"unit":"TAB","system":"http://terminology.hl7.org/CodeSystem/v3-orderableDrugForm","code":"TAB"}}]}]},"request":{"method":"POST","url":"MedicationStatement"}},{"fullUrl":"MedicationStatement/9c6a9c3e-2642-445f-95b7-f609e913ba46","resource":{"resourceType":"MedicationStatement","id":"9c6a9c3e-2642-445f-95b7-f609e913ba46","status":"completed","medicationCodeableConcept":{"coding":[{"system":"http://www.nlm.nih.gov/research/umls/rxnorm","code":"7984"}]},"subject":{"reference":"Patient/63d1051e-70ea-4039-850e-aa8780cfa688"},"effectiveDateTime":"2022-11-16T00:00:00+00:00","dosage":[{"doseAndRate":[{"doseQuantity":{"value":4.9,"unit":"TAB","system":"http://terminology.hl7.org/CodeSystem/v3-orderableDrugForm","code":"TAB"}}]}]},"request":{"method":"POST","url":"MedicationStatement"}},{"fullUrl":"MedicationStatement/342634ad-e7fc-456e-8cd3-edd208836a5d","resource":{"resourceType":"MedicationStatement","id":"342634ad-e7fc-456e-8cd3-edd208836a5d","status":"completed","medicationCodeableConcept":{"coding":[{"system":"http://www.nlm.nih.gov/research/umls/rxnorm","code":"3640"}]},"subject":{"reference":"Patient/63d1051e-70ea-4039-850e-aa8780cfa688"},"effectiveDateTime":"2022-10-31T00:00:00+00:00","dosage":[{"doseAndRate":[{"doseQuantity":{"value":4.8,"unit":"TAB","system":"http://terminology.hl7.org/CodeSystem/v3-orderableDrugForm","code":"TAB"}}]}]},"request":{"method":"POST","url":"MedicationStatement"}},{"fullUrl":"MedicationStatement/6f75bbe5-c834-4a41-a515-1657ff3d35ce","resource":{"resourceType":"MedicationStatement","id":"6f75bbe5-c834-4a41-a515-1657ff3d35ce","status":"completed","medicationCodeableConcept":{"coding":[{"system":"http://www.nlm.nih.gov/research/umls/rxnorm","code":"2193"}]},"subject":{"reference":"Patient/63d1051e-70ea-4039-850e-aa8780cfa688"},"effectiveDateTime":"2022-05-27T00:00:00+00:00","dosage":[{"doseAndRate":[{"doseQuantity":{"value":5.7,"unit":"TAB","system":"http://terminology.hl7.org/CodeSystem/v3-orderableDrugForm","code":"TAB"}}]}]},"request":{"method":"POST","url":"MedicationStatement"}},{"fullUrl":"MedicationStatement/3890a169-32e0-43e3-ad87-29d2985dd11f","resource":{"resourceType":"MedicationStatement","id":"3890a169-32e0-43e3-ad87-29d2985dd11f","status":"completed","medicationCodeableConcept":{"coding":[{"system":"http://www.nlm.nih.gov/research/umls/rxnorm","code":"8698"}]},"subject":{"reference":"Patient/63d1051e-70ea-4039-850e-aa8780cfa688"},"effectiveDateTime":"2022-01-08T00:00:00+00:00","dosage":[{"doseAndRate":[{"doseQuantity":{"value":4.2,"unit":"TAB","system":"http://terminology.hl7.org/CodeSystem/v3-orderableDrugForm","code":"TAB"}}]}]},"request":{"method":"POST","url":"MedicationStatement"}},{"fullUrl":"MedicationStatement/889ae8cb-5c74-45ef-99c3-67644ce4d9e4","resource":{"resourceType":"MedicationStatement","id":"889ae8cb-5c74-45ef-99c3-67644ce4d9e4","status":"completed","medicationCodeableConcept":{"coding":[{"system":"http://www.nlm.nih.gov/research/umls/rxnorm","code":"10395"}]},"subject":{"reference":"Patient/63d1051e-70ea-4039-850e-aa8780cfa688"},"effectiveDateTime":"2022-12-05T00:00:00+00:00","dosage":[{"doseAndRate":[{"doseQuantity":{"value":4.6,"unit":"TAB","system":"http://terminology.hl7.org/CodeSystem/v3-orderableDrugForm","code":"TAB"}}]}]},"request":{"method":"POST","url":"MedicationStatement"}},{"fullUrl":"MedicationStatement/8d9e960d-7f44-48d2-8b64-6604c4f490d9","resource":{"resourceType":"MedicationStatement","id":"8d9e960d-7f44-48d2-8b64-6604c4f490d9","status":"completed","medicationCodeableConcept":{"coding":[{"system":"http://www.nlm.nih.gov/research/umls/rxnorm","code":"2193"}]},"subject":{"reference":"Patient/63d1051e-70ea-4039-850e-aa8780cfa688"},"effectiveDateTime":"2022-04-06T00:00:00+00:00","dosage":[{"doseAndRate":[{"doseQuantity":{"value":5.8,"unit":"TAB","system":"http://terminology.hl7.org/CodeSystem/v3-orderableDrugForm","code":"TAB"}}]}]},"request":{"method":"POST","url":"MedicationStatement"}},{"fullUrl":"MedicationStatement/cdc152a5-f145-4ece-8e1b-8f5a556780ab","resource":{"resourceType":"MedicationStatement","id":"cdc152a5-f145-4ece-8e1b-8f5a556780ab","status":"completed","medicationCodeableConcept":{"coding":[{"system":"http://www.nlm.nih.gov/research/umls/rxnorm","code":"7980"}]},"subject":{"reference":"Patient/63d1051e-70ea-4039-850e-aa8780cfa688"},"effectiveDateTime":"2022-10-16T00:00:00+00:00","dosage":[{"doseAndRate":[{"doseQuantity":{"value":3.3,"unit":"TAB","system":"http://terminology.hl7.org/CodeSystem/v3-orderableDrugForm","code":"TAB"}}]}]},"request":{"method":"POST","url":"MedicationStatement"}},{"fullUrl":"Encounter/46c975bb-4c6c-4e23-80c4-9f24d9d0ec05","resource":{"resourceType":"Encounter","id":"46c975bb-4c6c-4e23-80c4-9f24d9d0ec05","status":"finished","class":{"system":"http://terminology.hl7.org/CodeSystem/v3-ActCode","code":"IMP","display":"inpatient encounter"},"type":[{"coding":[{"system":"http://terminology.hl7.org/CodeSystem/encounter-type","code":"CCS60"}]}],"subject":{"reference":"Patient/63d1051e-70ea-4039-850e-aa8780cfa688"},"period":{"start":"2022-12-14T00:00:00+00:00","end":"2022-12-15T00:00:00+00:00"}},"request":{"method":"POST","url":"Encounter"}},{"fullUrl":"Encounter/b315914f-62d6-447c-90ca-defe7cf85b11","resource":{"resourceType":"Encounter","id":"b315914f-62d6-447c-90ca-defe7cf85b11","status":"finished","class":{"system":"http://terminology.hl7.org/CodeSystem/v3-ActCode","code":"IMP","display":"inpatient encounter"},"type":[{"coding":[{"system":"http://terminology.hl7.org/CodeSystem/encounter-type","code":"CCS60"}]}],"subject":{"reference":"Patient/63d1051e-70ea-4039-850e-aa8780cfa688"},"period":{"start":"2022-05-09T00:00:00+00:00","end":"2022-05-13T00:00:00+00:00"}},"request":{"method":"POST","url":"Encounter"}},{"fullUrl":"Encounter/3943fdc3-520f-4389-b72b-6005498d5930","resource":{"resourceType":"Encounter","id":"3943fdc3-520f-4389-b72b-6005498d5930","status":"finished","class":{"system":"http://terminology.hl7.org/CodeSystem/v3-ActCode","code":"IMP","display":"inpatient encounter"},"type":[{"coding":[{"system":"http://terminology.hl7.org/CodeSystem/encounter-type","code":"BD/BM-clin"}]}],"subject":{"reference":"Patient/63d1051e-70ea-4039-850e-aa8780cfa688"},"period":{"start":"2022-11-30T00:00:00+00:00","end":"2022-12-06T00:00:00+00:00"}},"request":{"method":"POST","url":"Encounter"}},{"fullUrl":"Encounter/30483afa-b734-4880-a8f3-d6089cbf917c","resource":{"resourceType":"Encounter","id":"30483afa-b734-4880-a8f3-d6089cbf917c","status":"finished","class":{"system":"http://terminology.hl7.org/CodeSystem/v3-ActCode","code":"NONAC","display":"inpatient non-acute"},"type":[{"coding":[{"system":"http://terminology.hl7.org/CodeSystem/encounter-type","code":"CCS60"}]}],"subject":{"reference":"Patient/63d1051e-70ea-4039-850e-aa8780cfa688"},"period":{"start":"2022-09-16T00:00:00+00:00","end":"2022-09-17T00:00:00+00:00"}},"request":{"method":"POST","url":"Encounter"}},{"fullUrl":"Encounter/ed348d3b-c72e-4ea3-9819-8b68d0eeef3c","resource":{"resourceType":"Encounter","id":"ed348d3b-c72e-4ea3-9819-8b68d0eeef3c","status":"finished","class":{"system":"http://terminology.hl7.org/CodeSystem/v3-ActCode","code":"NONAC","display":"inpatient non-acute"},"type":[{"coding":[{"system":"http://terminology.hl7.org/CodeSystem/encounter-type","code":"BD/BM-clin"}]}],"subject":{"reference":"Patient/63d1051e-70ea-4039-850e-aa8780cfa688"},"period":{"start":"2022-09-02T00:00:00+00:00","end":"2022-09-08T00:00:00+00:00"}},"request":{"method":"POST","url":"Encounter"}},{"fullUrl":"Patient/fbe69573-4034-4105-aae7-1117cf1d77e9","resource":{"resourceType":"Patient","id":"fbe69573-4034-4105-aae7-1117cf1d77e9","identifier":[{"type":{"coding":[{"system":"http://terminology.hl7.org/CodeSystem/v2-0203","code":"MR"}]},"system":"urn:fhirgen:mrn","value":"854-23-4126"}],"name":[{"use":"official","family":"Cherry","given":["Daniel"]},{"use":"maiden","family":"Webb"}],"telecom":[{"system":"phone","value":"192-355-7687x3572","use":"work"},{"system":"email","value":"jesusmichael@gmail.com","use":"home"}],"gender":"male","birthDate":"1977-03-05","address":[{"use":"home","line":["27876 Fernando Coves Apt. 968"],"city":"New Jeffreyside","state":"GA","postalCode":"84928"},{"use":"old","line":["725 Daniel Mountain Apt. 754"],"city":"Colinport","state":"IN","postalCode":"20898"}]},"request":{"method":"POST","url":"Patient"}},{"fullUrl":"Observation/a2adea0a-b873-4d3b-b277-84ee78d54cc6","resource":{"resourceType":"Observation","id":"a2adea0a-b873-4d3b-b277-84ee78d54cc6","status":"final","code":{"coding":[{"system":"http://loinc.org","code":"31147-2"}]},"subject":{"reference":"Patient/fbe69573-4034-4105-aae7-1117cf1d77e9"},"effectiveDateTime":"2022-08-08T00:00:00+00:00","valueRatio":{"numerator":{"value":1},"denominator":{"value":64}}},"request":{"method":"POST","url":"Observation"}},{"fullUrl":"Observation/5da22f76-e158-4ff0-9b02-46151cad9623","resource":{"resourceType":"Observation","id":"5da22f76-e158-4ff0-9b02-46151cad9623","status":"final","code":{"coding":[{"system":"http://loinc.org","code":"50695-6"}]},"subject":{"reference":"Patient/fbe69573-4034-4105-aae7-1117cf1d77e9"},"effectiveDateTime":"2022-03-25T00:00:00+00:00","valueRatio":{"numerator":{"value":1},"denominator":{"value":4}}},"request":{"method":"POST","url":"Observation"}},{"fullUrl":"Observation/68929ccf-6fcd-4141-938b-f9a86e24b26d","resource":{"resourceType":"Observation","id":"68929ccf-6fcd-4141-938b-f9a86e24b26d","status":"final","code":{"coding":[{"system":"http://loinc.org","code":"31147-2"}]},"subject":{"reference":"Patient/fbe69573-4034-4105-aae7-1117cf1d77e9"},"effectiveDateTime":"2022-05-13T00:00:00+00:00","valueRatio":{"numerator":{"value":1},"denominator":{"value":64}}},"request":{"method":"POST","url":"Observation"}},{"fullUrl":"Condition/aa4658fa-fbb2-4dd4-b81d-aa8d0754322a","resource":{"resourceType":"Condition","id":"aa4658fa-fbb2-4dd4-b81d-aa8d0754322a","code":{"coding":[{"system":"http://snomed.info/sct","code":"91554004"}]},"subject":{"reference":"Patient/fbe69573-4034-4105-aae7-1117cf1d77e9"},"onsetDateTime":"2022-03-08T00:00:00+00:00"},"request":{"method":"POST","url":"Condition"}},{"fullUrl":"Condition/9dffe805-17fe-43c5-a1f8-1ff7dc340d5e","resource":{"resourceType":"Condition","id":"9dffe805-17fe-43c5-a1f8-1ff7dc340d5e","code":{"coding":[{"system":"http://snomed.info/sct","code":"198199009"}]},"subject":{"reference":"Patient/fbe69573-4034-4105-aae7-1117cf1d77e9"},"onsetDateTime":"2022-08-25T00:00:00+00:00"},"request":{"method":"POST","url":"Condition"}},{"fullUrl":"Condition/6ab360e9-8571-4be0-8c98-da0edec2b2d8","resource":{"resourceType":"Condition","id":"6ab360e9-8571-4be0-8c98-da0edec2b2d8","code":{"coding":[{"system":"http://snomed.info/sct","code":"198199009"}]},"subject":{"reference":"Patient/fbe69573-4034-4105-aae7-1117cf1d77e9"},"onsetDateTime":"2022-04-11T00:00:00+00:00"},"request":{"method":"POST","url":"Condition"}},{"fullUrl":"Condition/9f559cfe-3adc-4768-8949-1b9d22ba939e","resource":{"resourceType":"Condition","id":"9f559cfe-3adc-4768-8949-1b9d22ba939e","code":{"coding":[{"system":"http://snomed.info/sct","code":"405737000"}]},"subject":{"reference":"Patient/fbe69573-4034-4105-aae7-1117cf1d77e9"},"onsetDateTime":"2022-01-20T00:00:00+00:00"},"request":{"method":"POST","url":"Condition"}},{"fullUrl":"Condition/3b0fc207-6a9b-4857-8752-b561ec6ca3c5","resource":{"resourceType":"Condition","id":"3b0fc207-6a9b-4857-8752-b561ec6ca3c5","code":{"coding":[{"system":"http://snomed.info/sct","code":"3951002"}]},"subject":{"reference":"Patient/fbe69573-4034-4105-aae7-1117cf1d77e9"},"onsetDateTime":"2022-09-22T00:00:00+00:00"},"request":{"method":"POST","url":"Condition"}},{"fullUrl":"Condition/d365e82b-bdd7-4669-b36d-4d6940586f25","resource":{"resourceType":"Condition","id":"d365e82b-bdd7-4669-b36d-4d6940586f25","code":{"coding":[{"system":"http://snomed.info/sct","code":"297123002"}]},"subject":{"reference":"Patient/fbe69573-4034-4105-aae7-1117cf1d77e9"},"onsetDateTime":"2022-08-23T00:00:00+00:00"},"request":{"method":"POST","url":"Condition"}},{"fullUrl":"Condition/0effb2ea-d755-43e8-8a2b-3fbc956e1bdc","resource":{"resourceType":"Condition","id":"0effb2ea-d755-43e8-8a2b-3fbc956e1bdc","code":{"coding":[{"system":"http://snomed.info/sct","code":"56317004"}]},"subject":{"reference":"Patient/fbe69573-4034-4105-aae7-1117cf1d77e9"},"onsetDateTime":"2022-11-08T00:00:00+00:00"},"request":{"method":"POST","url":"Condition"}},{"fullUrl":"Condition/c7155a20-20dd-465e-8b83-aca135bf64aa","resource":{"resourceType":"Condition","id":"c7155a20-20dd-465e-8b83-aca135bf64aa","code":{"coding":[{"system":"http://snomed.info/sct","code":"271807003"}]},"subject":{"reference":"Patient/fbe69573-4034-4105-aae7-1117cf1d77e9"},"onsetDateTime":"2022-05-11T00:00:00+00:00"},"request":{"method":"POST","url":"Condition"}},{"fullUrl":"Observation/6d39862f-be16-416e-bcbd-557e0eb61dfa","resource":{"resourceType":"Observation","id":"6d39862f-be16-416e-bcbd-557e0eb61dfa","status":"final","code":{"coding":[{"system":"http://loinc.org","code":"49498-9"}]},"subject":{"reference":"Patient/fbe69573-4034-4105-aae7-1117cf1d77e9"},"effectiveDateTime":"2022-04-12T00:00:00+00:00","valueQuantity":{"value":6.8}},"request":{"method":"POST","url":"Observation"}},{"fullUrl":"Observation/751a08e2-481c-4646-8d7e-da415dc14268","resource":{"resourceType":"Observation","id":"751a08e2-481c-4646-8d7e-da415dc14268","status":"final","code":{"coding":[{"system":"http://loinc.org","code":"6690-2"}]},"subject":{"reference":"Patient/fbe69573-4034-4105-aae7-1117cf1d77e9"},"effectiveDateTime":"2022-04-20T00:00:00+00:00","valueQuantity":{"value":8.2}},"request":{"method":"POST","url":"Observation"}},{"fullUrl":"Observation/d01966c5-56f7-47f5-a67a-238a2085007c","resource":{"resourceType":"Observation","id":"d01966c5-56f7-47f5-a67a-238a2085007c","status":"final","code":{"coding":[{"system":"http://loinc.org","code":"804-5"}]},"subject":{"reference":"Patient/fbe69573-4034-4105-aae7-1117cf1d77e9"},"effectiveDateTime":"2022-06-21T00:00:00+00:00","valueQuantity":{"value":9.3}},"request":{"method":"POST","url":"Observation"}},{"fullUrl":"Observation/3d8524da-c67c-4399-90a5-4ede67ec0c3c","resource":{"resourceType":"Observation","id":"3d8524da-c67c-4399-90a5-4ede67ec0c3c","status":"final","code":{"coding":[{"system":"http://loinc.org","code":"804-5"}]},"subject":{"reference":"Patient/fbe69573-4034-4105-aae7-1117cf1d77e9"},"effectiveDateTime":"2022-03-23T00:00:00+00:00","valueCodeableConcept":{"coding":[{"system":"snomed","code":"123456","display":"fake snomed"}]}},"request":{"method":"POST","url":"Observation"}},{"fullUrl":"Observation/cda95287-5a58-4daf-b260-df53427cf7b7","resource":{"resourceType":"Observation","id":"cda95287-5a58-4daf-b260-df53427cf7b7","status":"final","code":{"coding":[{"system":"http://loinc.org","code":"49498-9"}]},"subject":{"reference":"Patient/fbe69573-4034-4105-aae7-1117cf1d77e9"},"effectiveDateTime":"2022-03-23T00:00:00+00:00","valueCodeableConcept":{"coding":[{"system":"snomed","code":"123456","display":"fake snomed"}]}},"request":{"method":"POST","url":"Observation"}},{"fullUrl":"Observation/8676a864-a7c7-4b62-8790-4cce07722706","resource":{"resourceType":"Observation","id":"8676a864-a7c7-4b62-8790-4cce07722706","status":"final","code":{"coding":[{"system":"http://loinc.org","code":"6690-2"}]},"subject":{"reference":"Patient/fbe69573-4034-4105-aae7-1117cf1d77e9"},"effectiveDateTime":"2022-03-27T00:00:00+00:00","valueCodeableConcept":{"coding":[{"system":"snomed","code":"123456","display":"fake snomed"}]}},"request":{"method":"POST","url":"Observation"}},{"fullUrl":"Observation/1a7ebe2e-248c-49b5-b2b3-0adf62d5ba1d","resource":{"resourceType":"Observation","id":"1a7ebe2e-248c-49b5-b2b3-0adf62d5ba1d","status":"final","code":{"coding":[{"system":"http://loinc.org","code":"49498-9"}]},"subject":{"reference":"Patient/fbe69573-4034-4105-aae7-1117cf1d77e9"},"effectiveDateTime":"2022-02-12T00:00:00+00:00"},"request":{"method":"POST","url":"Observation"}},{"fullUrl":"Observation/0da4d687-bd1c-4bbc-a74d-93dfe86cb724","resource":{"resourceType":"Observation","id":"0da4d687-bd1c-4bbc-a74d-93dfe86cb724","status":"final","code":{"coding":[{"system":"http://loinc.org","code":"49498-9"}]},"subject":{"reference":"Patient/fbe69573-4034-4105-aae7-1117cf1d77e9"},"effectiveDateTime":"2022-01-17T00:00:00+00:00"},"request":{"method":"POST","url":"Observation"}},{"fullUrl":"Procedure/f29f019b-a9cd-4791-9069-e0e1bc41b772","resource":{"resourceType":"Procedure","id":"f29f019b-a9cd-4791-9069-e0e1bc41b772","status":"completed","code":{"coding":[{"system":"http://snomed.info/sct","code":"189009"}]},"subject":{"reference":"Patient/fbe69573-4034-4105-aae7-1117cf1d77e9"},"performedDateTime":"2022-10-10T00:00:00+00:00"},"request":{"method":"POST","url":"Procedure"}},{"fullUrl":"Procedure/92571c32-9a3b-484d-8bf5-99e4c16b1118","resource":{"resourceType":"Procedure","id":"92571c32-9a3b-484d-8bf5-99e4c16b1118","status":"completed","code":{"coding":[{"system":"http://snomed.info/sct","code":"115006"}]},"subject":{"reference":"Patient/fbe69573-4034-4105-aae7-1117cf1d77e9"},"performedDateTime":"2022-04-30T00:00:00+00:00"},"request":{"method":"POST","url":"Procedure"}},{"fullUrl":"Procedure/773b66c0-c1e9-4f4c-8786-84713bef976a","resource":{"resourceType":"Procedure","id":"773b66c0-c1e9-4f4c-8786-84713bef976a","status":"completed","code":{"coding":[{"system":"http://snomed.info/sct","code":"189009"}]},"subject":{"reference":"Patient/fbe69573-4034-4105-aae7-1117cf1d77e9"},"performedDateTime":"2022-01-14T00:00:00+00:00"},"request":{"method":"POST","url":"Procedure"}},{"fullUrl":"MedicationStatement/e962e216-8dd0-440d-bd02-2c1fa7955574","resource":{"resourceType":"MedicationStatement","id":"e962e216-8dd0-440d-bd02-2c1fa7955574","status":"completed","medicationCodeableConcept":{"coding":[{"system":"http://www.nlm.nih.gov/research/umls/rxnorm","code":"3640"}]},"subject":{"reference":"Patient/fbe69573-4034-4105-aae7-1117cf1d77e9"},"effectiveDateTime":"2022-12-25T00:00:00+00:00","dosage":[{"doseAndRate":[{"doseQuantity":{"value":1,"unit":"TAB","system":"http://terminology.hl7.org/CodeSystem/v3-orderableDrugForm","code":"TAB"}}]}]},"request":{"method":"POST","url":"MedicationStatement"}},{"fullUrl":"MedicationStatement/08a34019-1d51-41ae-b181-f98a54e2d388","resource":{"resourceType":"MedicationStatement","id":"08a34019-1d51-41ae-b181-f98a54e2d388","status":"completed","medicationCodeableConcept":{"coding":[{"system":"http://www.nlm.nih.gov/research/umls/rxnorm","code":"2193"}]},"subject":{"reference":"Patient/fbe69573-4034-4105-aae7-1117cf1d77e9"},"effectiveDateTime":"2022-08-04T00:00:00+00:00","dosage":[{"doseAndRate":[{"doseQuantity":{"value":1,"unit":"TAB","system":"http://terminology.hl7.org/CodeSystem/v3-orderableDrugForm","code":"TAB"}}]}]},"request":{"method":"POST","url":"MedicationStatement"}},{"fullUrl":"MedicationStatement/00664b52-af73-4b5f-9387-1517e56180a7","resource":{"resourceType":"MedicationStatement","id":"00664b52-af73-4b5f-9387-1517e56180a7","status":"completed","medicationCodeableConcept":{"coding":[{"system":"http://www.nlm.nih.gov/research/umls/rxnorm","code":"18631"}]},"subject":{"reference":"Patient/fbe69573-4034-4105-aae7-1117cf1d77e9"},"effectiveDateTime":"2022-01-08T00:00:00+00:00","dosage":[{"doseAndRate":[{"doseQuantity":{"value":1,"unit":"TAB","system":"http://terminology.hl7.org/CodeSystem/v3-orderableDrugForm","code":"TAB"}}]}]},"request":{"method":"POST","url":"MedicationStatement"}},{"fullUrl":"MedicationStatement/ad508623-341f-40a1-9f4f-e887d7f203f7","resource":{"resourceType":"MedicationStatement","id":"ad508623-341f-40a1-9f4f-e887d7f203f7","status":"completed","medicationCodeableConcept":{"coding":[{"system":"http://www.nlm.nih.gov/research/umls/rxnorm","code":"7980"}]},"subject":{"reference":"Patient/fbe69573-4034-4105-aae7-1117cf1d77e9"},"effectiveDateTime":"2022-10-05T00:00:00+00:00","dosage":[{"doseAndRate":[{"doseQuantity":{"value":1,"unit":"TAB","system":"http://terminology.hl7.org/CodeSystem/v3-orderableDrugForm","code":"TAB"}}]}]},"request":{"method":"POST","url":"MedicationStatement"}},{"fullUrl":"MedicationStatement/c9afdd5c-ab73-4959-8e55-e2c595359562","resource":{"resourceType":"MedicationStatement","id":"c9afdd5c-ab73-4959-8e55-e2c595359562","status":"completed","medicationCodeableConcept":{"coding":[{"system":"http://www.nlm.nih.gov/research/umls/rxnorm","code":"2193"}]},"subject":{"reference":"Patient/fbe69573-4034-4105-aae7-1117cf1d77e9"},"effectiveDateTime":"2022-07-21T00:00:00+00:00","dosage":[{"doseAndRate":[{"doseQuantity":{"value":1,"unit":"TAB","system":"http://terminology.hl7.org/CodeSystem/v3-orderableDrugForm","code":"TAB"}}]}]},"request":{"method":"POST","url":"MedicationStatement"}},{"fullUrl":"MedicationStatement/2a89d18b-c532-43b2-9df4-33e72652b7c1","resource":{"resourceType":"MedicationStatement","id":"2a89d18b-c532-43b2-9df4-33e72652b7c1","status":"completed","medicationCodeableConcept":{"coding":[{"system":"http://www.nlm.nih.gov/research/umls/rxnorm","code":"2193"}]},"subject":{"reference":"Patient/fbe69573-4034-4105-aae7-1117cf1d77e9"},"effectiveDateTime":"2022-05-01T00:00:00+00:00","dosage":[{"doseAndRate":[{"doseQuantity":{"value":2,"unit":"TAB","system":"http://terminology.hl7.org/CodeSystem/v3-orderableDrugForm","code":"TAB"}}]}]},"request":{"method":"POST","url":"MedicationStatement"}},{"fullUrl":"MedicationStatement/02258fb5-e12c-4200-8fc4-e7f92158e3ca","resource":{"resourceType":"MedicationStatement","id":"02258fb5-e12c-4200-8fc4-e7f92158e3ca","status":"completed","medicationCodeableConcept":{"coding":[{"system":"http://www.nlm.nih.gov/research/umls/rxnorm","code":"18631"}]},"subject":{"reference":"Patient/fbe69573-4034-4105-aae7-1117cf1d77e9"},"effectiveDateTime":"2022-10-21T00:00:00+00:00","dosage":[{"doseAndRate":[{"doseQuantity":{"value":2,"unit":"TAB","system":"http://terminology.hl7.org/CodeSystem/v3-orderableDrugForm","code":"TAB"}}]}]},"request":{"method":"POST","url":"MedicationStatement"}},{"fullUrl":"MedicationStatement/0fcc1ab0-45e1-4144-9677-345ad65da8be","resource":{"resourceType":"MedicationStatement","id":"0fcc1ab0-45e1-4144-9677-345ad65da8be","status":"completed","medicationCodeableConcept":{"coding":[{"system":"http://www.nlm.nih.gov/research/umls/rxnorm","code":"18631"}]},"subject":{"reference":"Patient/fbe69573-4034-4105-aae7-1117cf1d77e9"},"effectiveDateTime":"2022-09-30T00:00:00+00:00","dosage":[{"doseAndRate":[{"doseQuantity":{"value":6.7,"unit":"TAB","system":"http://terminology.hl7.org/CodeSystem/v3-orderableDrugForm","code":"TAB"}}]}]},"request":{"method":"POST","url":"MedicationStatement"}},{"fullUrl":"MedicationStatement/57cc93af-7f15-402a-a44e-f88da4f8446f","resource":{"resourceType":"MedicationStatement","id":"57cc93af-7f15-402a-a44e-f88da4f8446f","status":"completed","medicationCodeableConcept":{"coding":[{"system":"http://www.nlm.nih.gov/research/umls/rxnorm","code":"10395"}]},"subject":{"reference":"Patient/fbe69573-4034-4105-aae7-1117cf1d77e9"},"effectiveDateTime":"2022-10-23T00:00:00+00:00","dosage":[{"doseAndRate":[{"doseQuantity":{"value":4.7,"unit":"TAB","system":"http://terminology.hl7.org/CodeSystem/v3-orderableDrugForm","code":"TAB"}}]}]},"request":{"method":"POST","url":"MedicationStatement"}},{"fullUrl":"MedicationStatement/b2d454a6-e071-4a53-b52b-d5fd020bbcef","resource":{"resourceType":"MedicationStatement","id":"b2d454a6-e071-4a53-b52b-d5fd020bbcef","status":"completed","medicationCodeableConcept":{"coding":[{"system":"http://www.nlm.nih.gov/research/umls/rxnorm","code":"18631"}]},"subject":{"reference":"Patient/fbe69573-4034-4105-aae7-1117cf1d77e9"},"effectiveDateTime":"2022-10-24T00:00:00+00:00","dosage":[{"doseAndRate":[{"doseQuantity":{"value":5.7,"unit":"TAB","system":"http://terminology.hl7.org/CodeSystem/v3-orderableDrugForm","code":"TAB"}}]}]},"request":{"method":"POST","url":"MedicationStatement"}},{"fullUrl":"MedicationStatement/ea10a5ba-835d-4e30-af77-728a59dfc236","resource":{"resourceType":"MedicationStatement","id":"ea10a5ba-835d-4e30-af77-728a59dfc236","status":"completed","medicationCodeableConcept":{"coding":[{"system":"http://www.nlm.nih.gov/research/umls/rxnorm","code":"7980"}]},"subject":{"reference":"Patient/fbe69573-4034-4105-aae7-1117cf1d77e9"},"effectiveDateTime":"2022-07-03T00:00:00+00:00","dosage":[{"doseAndRate":[{"doseQuantity":{"value":3.5,"unit":"TAB","system":"http://terminology.hl7.org/CodeSystem/v3-orderableDrugForm","code":"TAB"}}]}]},"request":{"method":"POST","url":"MedicationStatement"}},{"fullUrl":"Encounter/08c02b6f-dd94-449d-8d1d-8591b0195ffd","resource":{"resourceType":"Encounter","id":"08c02b6f-dd94-449d-8d1d-8591b0195ffd","status":"finished","class":{"system":"http://terminology.hl7.org/CodeSystem/v3-ActCode","code":"IMP","display":"inpatient encounter"},"type":[{"coding":[{"system":"http://terminology.hl7.org/CodeSystem/encounter-type","code":"ADMS"}]}],"subject":{"reference":"Patient/fbe69573-4034-4105-aae7-1117cf1d77e9"},"period":{"start":"2022-05-17T00:00:00+00:00","end":"2022-05-19T00:00:00+00:00"}},"request":{"method":"POST","url":"Encounter"}},{"fullUrl":"Encounter/b351695a-8a72-44d6-aacc-fdbe4fb71326","resource":{"resourceType":"Encounter","id":"b351695a-8a72-44d6-aacc-fdbe4fb71326","status":"finished","class":{"system":"http://terminology.hl7.org/CodeSystem/v3-ActCode","code":"IMP","display":"inpatient encounter"},"type":[{"coding":[{"system":"http://terminology.hl7.org/CodeSystem/encounter-type","code":"ADMS"}]}],"subject":{"reference":"Patient/fbe69573-4034-4105-aae7-1117cf1d77e9"},"period":{"start":"2022-01-20T00:00:00+00:00","end":"2022-01-21T00:00:00+00:00"}},"request":{"method":"POST","url":"Encounter"}},{"fullUrl":"Encounter/3bead966-e9c2-4924-a452-a1659b13cbf2","resource":{"resourceType":"Encounter","id":"3bead966-e9c2-4924-a452-a1659b13cbf2","status":"finished","class":{"system":"http://terminology.hl7.org/CodeSystem/v3-ActCode","code":"ACUTE","display":"inpatient acute"},"type":[{"coding":[{"system":"http://terminology.hl7.org/CodeSystem/encounter-type","code":"CCS60"}]}],"subject":{"reference":"Patient/fbe69573-4034-4105-aae7-1117cf1d77e9"},"period":{"start":"2022-09-08T00:00:00+00:00","end":"2022-09-16T00:00:00+00:00"}},"request":{"method":"POST","url":"Encounter"}},{"fullUrl":"Encounter/71c282a2-0016-47e5-9116-528a9d6e7423","resource":{"resourceType":"Encounter","id":"71c282a2-0016-47e5-9116-528a9d6e7423","status":"finished","class":{"system":"http://terminology.hl7.org/CodeSystem/v3-ActCode","code":"AMB","display":"ambulatory"},"type":[{"coding":[{"system":"http://terminology.hl7.org/CodeSystem/encounter-type","code":"OKI"}]}],"subject":{"reference":"Patient/fbe69573-4034-4105-aae7-1117cf1d77e9"},"period":{"start":"2022-09-20T00:00:00+00:00","end":"2022-09-25T00:00:00+00:00"}},"request":{"method":"POST","url":"Encounter"}},{"fullUrl":"Encounter/68b2eea5-da02-4ddb-a6c0-d8196a9140d6","resource":{"resourceType":"Encounter","id":"68b2eea5-da02-4ddb-a6c0-d8196a9140d6","status":"finished","class":{"system":"http://terminology.hl7.org/CodeSystem/v3-ActCode","code":"NONAC","display":"inpatient non-acute"},"type":[{"coding":[{"system":"http://terminology.hl7.org/CodeSystem/encounter-type","code":"ADMS"}]}],"subject":{"reference":"Patient/fbe69573-4034-4105-aae7-1117cf1d77e9"},"period":{"start":"2022-10-28T00:00:00+00:00","end":"2022-11-06T00:00:00+00:00"}},"request":{"method":"POST","url":"Encounter"}},{"fullUrl":"Patient/11c5c605-2bcf-42bb-b1bd-48713eaef53e","resource":{"resourceType":"Patient","id":"11c5c605-2bcf-42bb-b1bd-48713eaef53e","identifier":[{"type":{"coding":[{"system":"http://terminology.hl7.org/CodeSystem/v2-0203","code":"MR"}]},"system":"urn:fhirgen:mrn","value":"492-87-8237"}],"name":[{"use":"official","family":"Goodman","given":["Kimberly"]},{"use":"maiden","family":"Riggs"}],"telecom":[{"system":"phone","value":"613-003-0563","use":"home"},{"system":"email","value":"brian74@yahoo.com","use":"home"}],"gender":"female","birthDate":"1949-07-06","address":[{"use":"home","line":["54382 Smith Crescent Apt. 029"],"city":"New Stevenborough","state":"MT","postalCode":"87988"},{"use":"old","line":["9065 Collins Road"],"city":"Brennanton","state":"MT","postalCode":"34485"}]},"request":{"method":"POST","url":"Patient"}},{"fullUrl":"Observation/4fecd82a-bd7e-4c26-a080-c7e440130a91","resource":{"resourceType":"Observation","id":"4fecd82a-bd7e-4c26-a080-c7e440130a91","status":"final","code":{"coding":[{"system":"http://loinc.org","code":"47476-7"}]},"subject":{"reference":"Patient/11c5c605-2bcf-42bb-b1bd-48713eaef53e"},"effectiveDateTime":"2022-06-02T00:00:00+00:00","valueRatio":{"numerator":{"value":1},"denominator":{"value":64}}},"request":{"method":"POST","url":"Observation"}},{"fullUrl":"Observation/1618c41e-3f3b-4d72-92c1-86871d217fbf","resource":{"resourceType":"Observation","id":"1618c41e-3f3b-4d72-92c1-86871d217fbf","status":"final","code":{"coding":[{"system":"http://loinc.org","code":"34382-2"}]},"subject":{"reference":"Patient/11c5c605-2bcf-42bb-b1bd-48713eaef53e"},"effectiveDateTime":"2022-06-02T00:00:00+00:00","valueRatio":{"numerator":{"value":1},"denominator":{"value":64}}},"request":{"method":"POST","url":"Observation"}},{"fullUrl":"Observation/325659f7-a6cc-4b26-be92-d79fbf7f6073","resource":{"resourceType":"Observation","id":"325659f7-a6cc-4b26-be92-d79fbf7f6073","status":"final","code":{"coding":[{"system":"http://loinc.org","code":"5394-2"}]},"subject":{"reference":"Patient/11c5c605-2bcf-42bb-b1bd-48713eaef53e"},"effectiveDateTime":"2022-12-11T00:00:00+00:00","valueRatio":{"numerator":{"value":1},"denominator":{"value":4}}},"request":{"method":"POST","url":"Observation"}},{"fullUrl":"Condition/6e3376ac-2f5a-40a6-90f5-695536b473b2","resource":{"resourceType":"Condition","id":"6e3376ac-2f5a-40a6-90f5-695536b473b2","code":{"coding":[{"system":"http://snomed.info/sct","code":"30746006"}]},"subject":{"reference":"Patient/11c5c605-2bcf-42bb-b1bd-48713eaef53e"},"onsetDateTime":"2022-10-27T00:00:00+00:00"},"request":{"method":"POST","url":"Condition"}},{"fullUrl":"Condition/803f989a-9636-4398-bd7d-1239e934f3e3","resource":{"resourceType":"Condition","id":"803f989a-9636-4398-bd7d-1239e934f3e3","code":{"coding":[{"system":"http://snomed.info/sct","code":"21522001"}]},"subject":{"reference":"Patient/11c5c605-2bcf-42bb-b1bd-48713eaef53e"},"onsetDateTime":"2022-05-18T00:00:00+00:00"},"request":{"method":"POST","url":"Condition"}},{"fullUrl":"Condition/415cfe4a-d905-4d51-952d-cfad2b108c41","resource":{"resourceType":"Condition","id":"415cfe4a-d905-4d51-952d-cfad2b108c41","code":{"coding":[{"system":"http://snomed.info/sct","code":"248980004"}]},"subject":{"reference":"Patient/11c5c605-2bcf-42bb-b1bd-48713eaef53e"},"onsetDateTime":"2022-07-28T00:00:00+00:00"},"request":{"method":"POST","url":"Condition"}},{"fullUrl":"Condition/0982d217-e46d-4fcf-bad1-dd8e113eb44a","resource":{"resourceType":"Condition","id":"0982d217-e46d-4fcf-bad1-dd8e113eb44a","code":{"coding":[{"system":"http://snomed.info/sct","code":"198199009"}]},"subject":{"reference":"Patient/11c5c605-2bcf-42bb-b1bd-48713eaef53e"},"onsetDateTime":"2022-03-06T00:00:00+00:00"},"request":{"method":"POST","url":"Condition"}},{"fullUrl":"Condition/a54cbe5d-3c43-4bf5-b276-842ac63ab754","resource":{"resourceType":"Condition","id":"a54cbe5d-3c43-4bf5-b276-842ac63ab754","code":{"coding":[{"system":"http://snomed.info/sct","code":"405737000"}]},"subject":{"reference":"Patient/11c5c605-2bcf-42bb-b1bd-48713eaef53e"},"onsetDateTime":"2022-05-24T00:00:00+00:00"},"request":{"method":"POST","url":"Condition"}},{"fullUrl":"Condition/daef41c2-b9d6-4c11-aaae-507d4dd2e248","resource":{"resourceType":"Condition","id":"daef41c2-b9d6-4c11-aaae-507d4dd2e248","code":{"coding":[{"system":"http://snomed.info/sct","code":"297123002"}]},"subject":{"reference":"Patient/11c5c605-2bcf-42bb-b1bd-48713eaef53e"},"onsetDateTime":"2022-11-07T00:00:00+00:00"},"request":{"method":"POST","url":"Condition"}},{"fullUrl":"Observation/ad33b262-23b6-4ef9-ae74-8d597879b276","resource":{"resourceType":"Observation","id":"ad33b262-23b6-4ef9-ae74-8d597879b276","status":"final","code":{"coding":[{"system":"http://loinc.org","code":"6690-2"}]},"subject":{"reference":"Patient/11c5c605-2bcf-42bb-b1bd-48713eaef53e"},"effectiveDateTime":"2022-03-17T00:00:00+00:00","valueQuantity":{"value":9.8}},"request":{"method":"POST","url":"Observation"}},{"fullUrl":"Observation/2b2c3df9-f803-4f8d-928e-1237dcda0c2f","resource":{"resourceType":"Observation","id":"2b2c3df9-f803-4f8d-928e-1237dcda0c2f","status":"final","code":{"coding":[{"system":"http://loinc.org","code":"6690-2"}]},"subject":{"reference":"Patient/11c5c605-2bcf-42bb-b1bd-48713eaef53e"},"effectiveDateTime":"2022-02-17T00:00:00+00:00","valueQuantity":{"value":6.9}},"request":{"method":"POST","url":"Observation"}},{"fullUrl":"Observation/9990a2dc-94b4-4906-a672-69816917d00e","resource":{"resourceType":"Observation","id":"9990a2dc-94b4-4906-a672-69816917d00e","status":"final","code":{"coding":[{"system":"http://loinc.org","code":"6690-2"}]},"subject":{"reference":"Patient/11c5c605-2bcf-42bb-b1bd-48713eaef53e"},"effectiveDateTime":"2022-07-31T00:00:00+00:00","valueQuantity":{"value":9.3}},"request":{"method":"POST","url":"Observation"}},{"fullUrl":"Observation/e2492049-9761-4c8d-8e09-9b332f7d2ada","resource":{"resourceType":"Observation","id":"e2492049-9761-4c8d-8e09-9b332f7d2ada","status":"final","code":{"coding":[{"system":"http://www.ama-assn.org/go/cpt","code":"85048"}]},"subject":{"reference":"Patient/11c5c605-2bcf-42bb-b1bd-48713eaef53e"},"effectiveDateTime":"2022-07-06T00:00:00+00:00","valueCodeableConcept":{"coding":[{"system":"snomed","code":"123456","display":"fake snomed"}]}},"request":{"method":"POST","url":"Observation"}},{"fullUrl":"Observation/994c6d68-d6e2-4114-ad38-3723d10e16ea","resource":{"resourceType":"Observation","id":"994c6d68-d6e2-4114-ad38-3723d10e16ea","status":"final","code":{"coding":[{"system":"http://loinc.org","code":"26464-8"}]},"subject":{"reference":"Patient/11c5c605-2bcf-42bb-b1bd-48713eaef53e"},"effectiveDateTime":"2022-06-03T00:00:00+00:00","valueCodeableConcept":{"coding":[{"system":"snomed","code":"123456","display":"fake snomed"}]}},"request":{"method":"POST","url":"Observation"}},{"fullUrl":"Observation/c799df78-6059-4cdf-a0d9-abc8784d5e03","resource":{"resourceType":"Observation","id":"c799df78-6059-4cdf-a0d9-abc8784d5e03","status":"final","code":{"coding":[{"system":"http://loinc.org","code":"49498-9"}]},"subject":{"reference":"Patient/11c5c605-2bcf-42bb-b1bd-48713eaef53e"},"effectiveDateTime":"2022-01-18T00:00:00+00:00"},"request":{"method":"POST","url":"Observation"}},{"fullUrl":"Observation/a3c3daa9-a749-43a9-a1f3-8e3a5439daaf","resource":{"resourceType":"Observation","id":"a3c3daa9-a749-43a9-a1f3-8e3a5439daaf","status":"final","code":{"coding":[{"system":"http://loinc.org","code":"49498-9"}]},"subject":{"reference":"Patient/11c5c605-2bcf-42bb-b1bd-48713eaef53e"},"effectiveDateTime":"2022-04-28T00:00:00+00:00"},"request":{"method":"POST","url":"Observation"}},{"fullUrl":"Observation/7c7a68fc-5104-412b-8b54-439102b7cc0e","resource":{"resourceType":"Observation","id":"7c7a68fc-5104-412b-8b54-439102b7cc0e","status":"final","code":{"coding":[{"system":"http://loinc.org","code":"49498-9"}]},"subject":{"reference":"Patient/11c5c605-2bcf-42bb-b1bd-48713eaef53e"},"effectiveDateTime":"2022-03-11T00:00:00+00:00"},"request":{"method":"POST","url":"Observation"}},{"fullUrl":"Procedure/e04faccc-07ad-4f54-af48-1e87b7bfa313","resource":{"resourceType":"Procedure","id":"e04faccc-07ad-4f54-af48-1e87b7bfa313","status":"completed","code":{"coding":[{"system":"http://snomed.info/sct","code":"115006"}]},"subject":{"reference":"Patient/11c5c605-2bcf-42bb-b1bd-48713eaef53e"},"performedDateTime":"2022-05-05T00:00:00+00:00"},"request":{"method":"POST","url":"Procedure"}},{"fullUrl":"Procedure/8a2f0136-2623-4c9c-b009-c231d9af972c","resource":{"resourceType":"Procedure","id":"8a2f0136-2623-4c9c-b009-c231d9af972c","status":"completed","code":{"coding":[{"system":"http://snomed.info/sct","code":"104001"}]},"subject":{"reference":"Patient/11c5c605-2bcf-42bb-b1bd-48713eaef53e"},"performedDateTime":"2022-05-08T00:00:00+00:00"},"request":{"method":"POST","url":"Procedure"}},{"fullUrl":"Procedure/31a50dfc-b6a2-4bc3-a877-683362ce1754","resource":{"resourceType":"Procedure","id":"31a50dfc-b6a2-4bc3-a877-683362ce1754","status":"completed","code":{"coding":[{"system":"http://snomed.info/sct","code":"189009"}]},"subject":{"reference":"Patient/11c5c605-2bcf-42bb-b1bd-48713eaef53e"},"performedDateTime":"2022-08-23T00:00:00+00:00"},"request":{"method":"POST","url":"Procedure"}},{"fullUrl":"MedicationStatement/84f60785-2b66-4fe2-b497-12a7802994ac","resource":{"resourceType":"MedicationStatement","id":"84f60785-2b66-4fe2-b497-12a7802994ac","status":"completed","medicationCodeableConcept":{"coding":[{"system":"http://www.nlm.nih.gov/research/umls/rxnorm","code":"8698"}]},"subject":{"reference":"Patient/11c5c605-2bcf-42bb-b1bd-48713eaef53e"},"effectiveDateTime":"2022-12-25T00:00:00+00:00","dosage":[{"doseAndRate":[{"doseQuantity":{"value":1,"unit":"TAB","system":"http://terminology.hl7.org/CodeSystem/v3-orderableDrugForm","code":"TAB"}}]}]},"request":{"method":"POST","url":"MedicationStatement"}},{"fullUrl":"MedicationStatement/79a721b7-e198-4605-90e7-baf503455a39","resource":{"resourceType":"MedicationStatement","id":"79a721b7-e198-4605-90e7-baf503455a39","status":"completed","medicationCodeableConcept":{"coding":[{"system":"http://www.nlm.nih.gov/research/umls/rxnorm","code":"2193"}]},"subject":{"reference":"Patient/11c5c605-2bcf-42bb-b1bd-48713eaef53e"},"effectiveDateTime":"2022-08-01T00:00:00+00:00","dosage":[{"doseAndRate":[{"doseQuantity":{"value":2,"unit":"TAB","system":"http://terminology.hl7.org/CodeSystem/v3-orderableDrugForm","code":"TAB"}}]}]},"request":{"method":"POST","url":"MedicationStatement"}},{"fullUrl":"MedicationStatement/9efb6210-d4f5-4f1a-8f86-9e334c89ea9e","resource":{"resourceType":"MedicationStatement","id":"9efb6210-d4f5-4f1a-8f86-9e334c89ea9e","status":"completed","medicationCodeableConcept":{"coding":[{"system":"http://www.nlm.nih.gov/research/umls/rxnorm","code":"18631"}]},"subject":{"reference":"Patient/11c5c605-2bcf-42bb-b1bd-48713eaef53e"},"effectiveDateTime":"2022-01-14T00:00:00+00:00","dosage":[{"doseAndRate":[{"doseQuantity":{"value":1,"unit":"TAB","system":"http://terminology.hl7.org/CodeSystem/v3-orderableDrugForm","code":"TAB"}}]}]},"request":{"method":"POST","url":"MedicationStatement"}},{"fullUrl":"MedicationStatement/561f48dd-15c0-427b-9cd3-df9cb820f9ed","resource":{"resourceType":"MedicationStatement","id":"561f48dd-15c0-427b-9cd3-df9cb820f9ed","status":"completed","medicationCodeableConcept":{"coding":[{"system":"http://www.nlm.nih.gov/research/umls/rxnorm","code":"10395"}]},"subject":{"reference":"Patient/11c5c605-2bcf-42bb-b1bd-48713eaef53e"},"effectiveDateTime":"2022-09-04T00:00:00+00:00","dosage":[{"doseAndRate":[{"doseQuantity":{"value":1,"unit":"TAB","system":"http://terminology.hl7.org/CodeSystem/v3-orderableDrugForm","code":"TAB"}}]}]},"request":{"method":"POST","url":"MedicationStatement"}},{"fullUrl":"MedicationStatement/1c5a53e4-3e12-44e7-b9de-c683a02aca95","resource":{"resourceType":"MedicationStatement","id":"1c5a53e4-3e12-44e7-b9de-c683a02aca95","status":"completed","medicationCodeableConcept":{"coding":[{"system":"http://www.nlm.nih.gov/research/umls/rxnorm","code":"3640"}]},"subject":{"reference":"Patient/11c5c605-2bcf-42bb-b1bd-48713eaef53e"},"effectiveDateTime":"2022-08-16T00:00:00+00:00","dosage":[{"doseAndRate":[{"doseQuantity":{"value":3.2,"unit":"TAB","system":"http://terminology.hl7.org/CodeSystem/v3-orderableDrugForm","code":"TAB"}}]}]},"request":{"method":"POST","url":"MedicationStatement"}},{"fullUrl":"MedicationStatement/536b57fe-793e-4ac5-99c2-5d40c051e321","resource":{"resourceType":"MedicationStatement","id":"536b57fe-793e-4ac5-99c2-5d40c051e321","status":"completed","medicationCodeableConcept":{"coding":[{"system":"http://www.nlm.nih.gov/research/umls/rxnorm","code":"7984"}]},"subject":{"reference":"Patient/11c5c605-2bcf-42bb-b1bd-48713eaef53e"},"effectiveDateTime":"2022-06-30T00:00:00+00:00","dosage":[{"doseAndRate":[{"doseQuantity":{"value":6.7,"unit":"TAB","system":"http://terminology.hl7.org/CodeSystem/v3-orderableDrugForm","code":"TAB"}}]}]},"request":{"method":"POST","url":"MedicationStatement"}},{"fullUrl":"MedicationStatement/d6a48127-f076-4c78-9cf2-ba0659f031e9","resource":{"resourceType":"MedicationStatement","id":"d6a48127-f076-4c78-9cf2-ba0659f031e9","status":"completed","medicationCodeableConcept":{"coding":[{"system":"http://www.nlm.nih.gov/research/umls/rxnorm","code":"10395"}]},"subject":{"reference":"Patient/11c5c605-2bcf-42bb-b1bd-48713eaef53e"},"effectiveDateTime":"2022-02-02T00:00:00+00:00","dosage":[{"doseAndRate":[{"doseQuantity":{"value":3.6,"unit":"TAB","system":"http://terminology.hl7.org/CodeSystem/v3-orderableDrugForm","code":"TAB"}}]}]},"request":{"method":"POST","url":"MedicationStatement"}},{"fullUrl":"MedicationStatement/c6d76eda-79b1-4148-8dd6-f03651afe9f6","resource":{"resourceType":"MedicationStatement","id":"c6d76eda-79b1-4148-8dd6-f03651afe9f6","status":"completed","medicationCodeableConcept":{"coding":[{"system":"http://www.nlm.nih.gov/research/umls/rxnorm","code":"8698"}]},"subject":{"reference":"Patient/11c5c605-2bcf-42bb-b1bd-48713eaef53e"},"effectiveDateTime":"2022-10-12T00:00:00+00:00","dosage":[{"doseAndRate":[{"doseQuantity":{"value":4.8,"unit":"TAB","system":"http://terminology.hl7.org/CodeSystem/v3-orderableDrugForm","code":"TAB"}}]}]},"request":{"method":"POST","url":"MedicationStatement"}},{"fullUrl":"Encounter/db1fe4ad-69fe-4187-b268-926f76a6823e","resource":{"resourceType":"Encounter","id":"db1fe4ad-69fe-4187-b268-926f76a6823e","status":"finished","class":{"system":"http://terminology.hl7.org/CodeSystem/v3-ActCode","code":"IMP","display":"inpatient encounter"},"type":[{"coding":[{"system":"http://terminology.hl7.org/CodeSystem/encounter-type","code":"CCS60"}]}],"subject":{"reference":"Patient/11c5c605-2bcf-42bb-b1bd-48713eaef53e"},"period":{"start":"2022-05-20T00:00:00+00:00","end":"2022-05-29T00:00:00+00:00"}},"request":{"method":"POST","url":"Encounter"}},{"fullUrl":"Encounter/a711b1fb-c271-48d6-b1f7-fbb1d36d104e","resource":{"resourceType":"Encounter","id":"a711b1fb-c271-48d6-b1f7-fbb1d36d104e","status":"finished","class":{"system":"http://terminology.hl7.org/CodeSystem/v3-ActCode","code":"IMP","display":"inpatient encounter"},"type":[{"coding":[{"system":"http://terminology.hl7.org/CodeSystem/encounter-type","code":"BD/BM-clin"}]}],"subject":{"reference":"Patient/11c5c605-2bcf-42bb-b1bd-48713eaef53e"},"period":{"start":"2022-12-15T00:00:00+00:00","end":"2022-12-21T00:00:00+00:00"}},"request":{"method":"POST","url":"Encounter"}},{"fullUrl":"Encounter/5bf4c1b0-0ab1-420e-b0f4-32567c19263f","resource":{"resourceType":"Encounter","id":"5bf4c1b0-0ab1-420e-b0f4-32567c19263f","status":"finished","class":{"system":"http://terminology.hl7.org/CodeSystem/v3-ActCode","code":"VR","display":"virtual"},"type":[{"coding":[{"system":"http://terminology.hl7.org/CodeSystem/encounter-type","code":"ADMS"}]}],"subject":{"reference":"Patient/11c5c605-2bcf-42bb-b1bd-48713eaef53e"},"period":{"start":"2022-03-10T00:00:00+00:00","end":"2022-03-10T00:00:00+00:00"}},"request":{"method":"POST","url":"Encounter"}},{"fullUrl":"Encounter/1ed15fde-1751-4c04-998b-9aba09463ce6","resource":{"resourceType":"Encounter","id":"1ed15fde-1751-4c04-998b-9aba09463ce6","status":"finished","class":{"system":"http://terminology.hl7.org/CodeSystem/v3-ActCode","code":"OBSENC","display":"observation encounter"},"type":[{"coding":[{"system":"http://terminology.hl7.org/CodeSystem/encounter-type","code":"CCS60"}]}],"subject":{"reference":"Patient/11c5c605-2bcf-42bb-b1bd-48713eaef53e"},"period":{"start":"2022-01-05T00:00:00+00:00","end":"2022-01-07T00:00:00+00:00"}},"request":{"method":"POST","url":"Encounter"}},{"fullUrl":"Encounter/111d4081-81d2-4024-8efe-4e027c7694a8","resource":{"resourceType":"Encounter","id":"111d4081-81d2-4024-8efe-4e027c7694a8","status":"finished","class":{"system":"http://terminology.hl7.org/CodeSystem/v3-ActCode","code":"SS","display":"short-stay"},"type":[{"coding":[{"system":"http://terminology.hl7.org/CodeSystem/encounter-type","code":"OKI"}]}],"subject":{"reference":"Patient/11c5c605-2bcf-42bb-b1bd-48713eaef53e"},"period":{"start":"2022-03-09T00:00:00+00:00","end":"2022-03-17T00:00:00+00:00"}},"request":{"method":"POST","url":"Encounter"}},{"fullUrl":"Patient/02390a5f-668c-4e69-954b-09012e36f10f","resource":{"resourceType":"Patient","id":"02390a5f-668c-4e69-954b-09012e36f10f","identifier":[{"type":{"coding":[{"system":"http://terminology.hl7.org/CodeSystem/v2-0203","code":"MR"}]},"system":"urn:fhirgen:mrn","value":"619-41-9224"}],"name":[{"use":"official","family":"Scott","given":["Christy"]},{"use":"maiden","family":"Jones"}],"telecom":[{"system":"phone","value":"+1-099-177-9976","use":"home"},{"system":"email","value":"patrickhuffman@gmail.com","use":"mobile"}],"gender":"female","birthDate":"1948-06-08","address":[{"use":"home","line":["8887 Michael Meadows"],"city":"East Sarah","state":"SD","postalCode":"34969"},{"use":"old","line":["118 Brady Pass"],"city":"South Michelle","state":"SD","postalCode":"18327"}]},"request":{"method":"POST","url":"Patient"}},{"fullUrl":"Observation/b30c7b10-aade-453e-963b-4a8ed1452ffe","resource":{"resourceType":"Observation","id":"b30c7b10-aade-453e-963b-4a8ed1452ffe","status":"final","code":{"coding":[{"system":"http://loinc.org","code":"11084-1"}]},"subject":{"reference":"Patient/02390a5f-668c-4e69-954b-09012e36f10f"},"effectiveDateTime":"2022-06-09T00:00:00+00:00","valueRatio":{"numerator":{"value":1},"denominator":{"value":4}}},"request":{"method":"POST","url":"Observation"}},{"fullUrl":"Observation/884d0018-5f87-4994-b8b3-dd139f178617","resource":{"resourceType":"Observation","id":"884d0018-5f87-4994-b8b3-dd139f178617","status":"final","code":{"coding":[{"system":"http://loinc.org","code":"51475-2"}]},"subject":{"reference":"Patient/02390a5f-668c-4e69-954b-09012e36f10f"},"effectiveDateTime":"2022-04-12T00:00:00+00:00","valueRatio":{"numerator":{"value":1},"denominator":{"value":32}}},"request":{"method":"POST","url":"Observation"}},{"fullUrl":"Observation/3fb45158-112a-4454-834c-154b13575930","resource":{"resourceType":"Observation","id":"3fb45158-112a-4454-834c-154b13575930","status":"final","code":{"coding":[{"system":"http://loinc.org","code":"11084-1"}]},"subject":{"reference":"Patient/02390a5f-668c-4e69-954b-09012e36f10f"},"effectiveDateTime":"2022-11-26T00:00:00+00:00","valueRatio":{"numerator":{"value":1},"denominator":{"value":4}}},"request":{"method":"POST","url":"Observation"}},{"fullUrl":"Condition/2705dbb7-0a06-4ead-97f0-0ddc83d1d8b7","resource":{"resourceType":"Condition","id":"2705dbb7-0a06-4ead-97f0-0ddc83d1d8b7","code":{"coding":[{"system":"http://snomed.info/sct","code":"31070006"}]},"subject":{"reference":"Patient/02390a5f-668c-4e69-954b-09012e36f10f"},"onsetDateTime":"2022-10-02T00:00:00+00:00"},"request":{"method":"POST","url":"Condition"}},{"fullUrl":"Condition/05fa9d89-c684-4f3f-87fc-b56977749632","resource":{"resourceType":"Condition","id":"05fa9d89-c684-4f3f-87fc-b56977749632","code":{"coding":[{"system":"http://snomed.info/sct","code":"56317004"}]},"subject":{"reference":"Patient/02390a5f-668c-4e69-954b-09012e36f10f"},"onsetDateTime":"2022-08-30T00:00:00+00:00"},"request":{"method":"POST","url":"Condition"}},{"fullUrl":"Condition/b1719a95-a493-4db8-92af-6d1ef186eaeb","resource":{"resourceType":"Condition","id":"b1719a95-a493-4db8-92af-6d1ef186eaeb","code":{"coding":[{"system":"http://snomed.info/sct","code":"405737000"}]},"subject":{"reference":"Patient/02390a5f-668c-4e69-954b-09012e36f10f"},"onsetDateTime":"2022-11-25T00:00:00+00:00"},"request":{"method":"POST","url":"Condition"}},{"fullUrl":"Observation/6fa1415b-fd4a-44d7-8649-f46dc3370baa","resource":{"resourceType":"Observation","id":"6fa1415b-fd4a-44d7-8649-f46dc3370baa","status":"final","code":{"coding":[{"system":"http://loinc.org","code":"49498-9"}]},"subject":{"reference":"Patient/02390a5f-668c-4e69-954b-09012e36f10f"},"effectiveDateTime":"2022-04-12T00:00:00+00:00","valueQuantity":{"value":8.5}},"request":{"method":"POST","url":"Observation"}},{"fullUrl":"Observation/99184b23-9670-4159-84b9-3ca1ba2dee12","resource":{"resourceType":"Observation","id":"99184b23-9670-4159-84b9-3ca1ba2dee12","status":"final","code":{"coding":[{"system":"http://loinc.org","code":"49498-9"}]},"subject":{"reference":"Patient/02390a5f-668c-4e69-954b-09012e36f10f"},"effectiveDateTime":"2022-05-22T00:00:00+00:00","valueQuantity":{"value":4.2}},"request":{"method":"POST","url":"Observation"}},{"fullUrl":"Observation/8c0cc8b7-4c24-4f1b-87c6-36a218b974cf","resource":{"resourceType":"Observation","id":"8c0cc8b7-4c24-4f1b-87c6-36a218b974cf","status":"final","code":{"coding":[{"system":"http://loinc.org","code":"26464-8"}]},"subject":{"reference":"Patient/02390a5f-668c-4e69-954b-09012e36f10f"},"effectiveDateTime":"2022-01-28T00:00:00+00:00","valueCodeableConcept":{"coding":[{"system":"snomed","code":"123456","display":"fake snomed"}]}},"request":{"method":"POST","url":"Observation"}},{"fullUrl":"Observation/a5d86088-d37d-474e-b8a5-2f9a4f430f7a","resource":{"resourceType":"Observation","id":"a5d86088-d37d-474e-b8a5-2f9a4f430f7a","status":"final","code":{"coding":[{"system":"http://www.ama-assn.org/go/cpt","code":"85048"}]},"subject":{"reference":"Patient/02390a5f-668c-4e69-954b-09012e36f10f"},"effectiveDateTime":"2022-04-05T00:00:00+00:00","valueCodeableConcept":{"coding":[{"system":"snomed","code":"123456","display":"fake snomed"}]}},"request":{"method":"POST","url":"Observation"}},{"fullUrl":"Observation/f50cf426-df38-4203-abc7-1093ced7a23d","resource":{"resourceType":"Observation","id":"f50cf426-df38-4203-abc7-1093ced7a23d","status":"final","code":{"coding":[{"system":"http://loinc.org","code":"26464-8"}]},"subject":{"reference":"Patient/02390a5f-668c-4e69-954b-09012e36f10f"},"effectiveDateTime":"2022-12-04T00:00:00+00:00","valueCodeableConcept":{"coding":[{"system":"snomed","code":"123456","display":"fake snomed"}]}},"request":{"method":"POST","url":"Observation"}},{"fullUrl":"Observation/51f85bc9-b9f2-4118-8035-6799ab14793d","resource":{"resourceType":"Observation","id":"51f85bc9-b9f2-4118-8035-6799ab14793d","status":"final","code":{"coding":[{"system":"http://loinc.org","code":"49498-9"}]},"subject":{"reference":"Patient/02390a5f-668c-4e69-954b-09012e36f10f"},"effectiveDateTime":"2022-06-16T00:00:00+00:00"},"request":{"method":"POST","url":"Observation"}},{"fullUrl":"Observation/d3f8c0ad-110c-420c-9be1-6b680f788351","resource":{"resourceType":"Observation","id":"d3f8c0ad-110c-420c-9be1-6b680f788351","status":"final","code":{"coding":[{"system":"http://loinc.org","code":"49498-9"}]},"subject":{"reference":"Patient/02390a5f-668c-4e69-954b-09012e36f10f"},"effectiveDateTime":"2022-02-17T00:00:00+00:00"},"request":{"method":"POST","url":"Observation"}},{"fullUrl":"Procedure/d477ead7-e107-425c-83e4-64245c54fec0","resource":{"resourceType":"Procedure","id":"d477ead7-e107-425c-83e4-64245c54fec0","status":"completed","code":{"coding":[{"system":"http://snomed.info/sct","code":"189009"}]},"subject":{"reference":"Patient/02390a5f-668c-4e69-954b-09012e36f10f"},"performedDateTime":"2022-07-08T00:00:00+00:00"},"request":{"method":"POST","url":"Procedure"}},{"fullUrl":"Procedure/24ee0e2f-012b-45bd-b3ba-55ec144b0598","resource":{"resourceType":"Procedure","id":"24ee0e2f-012b-45bd-b3ba-55ec144b0598","status":"completed","code":{"coding":[{"system":"http://snomed.info/sct","code":"115006"}]},"subject":{"reference":"Patient/02390a5f-668c-4e69-954b-09012e36f10f"},"performedDateTime":"2022-04-09T00:00:00+00:00"},"request":{"method":"POST","url":"Procedure"}},{"fullUrl":"Procedure/1f07ab59-dc18-4210-bba1-fd078540782f","resource":{"resourceType":"Procedure","id":"1f07ab59-dc18-4210-bba1-fd078540782f","status":"completed","code":{"coding":[{"system":"http://snomed.info/sct","code":"189009"}]},"subject":{"reference":"Patient/02390a5f-668c-4e69-954b-09012e36f10f"},"performedDateTime":"2022-06-21T00:00:00+00:00"},"request":{"method":"POST","url":"Procedure"}},{"fullUrl":"MedicationStatement/88b76932-7406-44df-a072-37887880a759","resource":{"resourceType":"MedicationStatement","id":"88b76932-7406-44df-a072-37887880a759","status":"completed","medicationCodeableConcept":{"coding":[{"system":"http://www.nlm.nih.gov/research/umls/rxnorm","code":"7980"}]},"subject":{"reference":"Patient/02390a5f-668c-4e69-954b-09012e36f10f"},"effectiveDateTime":"2022-08-31T00:00:00+00:00","dosage":[{"doseAndRate":[{"doseQuantity":{"value":1,"unit":"TAB","system":"http://terminology.hl7.org/CodeSystem/v3-orderableDrugForm","code":"TAB"}}]}]},"request":{"method":"POST","url":"MedicationStatement"}},{"fullUrl":"MedicationStatement/c32747c1-c656-4af8-a314-dbd4180645c1","resource":{"resourceType":"MedicationStatement","id":"c32747c1-c656-4af8-a314-dbd4180645c1","status":"completed","medicationCodeableConcept":{"coding":[{"system":"http://www.nlm.nih.gov/research/umls/rxnorm","code":"10395"}]},"subject":{"reference":"Patient/02390a5f-668c-4e69-954b-09012e36f10f"},"effectiveDateTime":"2022-08-12T00:00:00+00:00","dosage":[{"doseAndRate":[{"doseQuantity":{"value":2,"unit":"TAB","system":"http://terminology.hl7.org/CodeSystem/v3-orderableDrugForm","code":"TAB"}}]}]},"request":{"method":"POST","url":"MedicationStatement"}},{"fullUrl":"MedicationStatement/04941dd8-de10-4fe8-85e2-b16e7e4b12d9","resource":{"resourceType":"MedicationStatement","id":"04941dd8-de10-4fe8-85e2-b16e7e4b12d9","status":"completed","medicationCodeableConcept":{"coding":[{"system":"http://www.nlm.nih.gov/research/umls/rxnorm","code":"18631"}]},"subject":{"reference":"Patient/02390a5f-668c-4e69-954b-09012e36f10f"},"effectiveDateTime":"2022-02-12T00:00:00+00:00","dosage":[{"doseAndRate":[{"doseQuantity":{"value":2,"unit":"TAB","system":"http://terminology.hl7.org/CodeSystem/v3-orderableDrugForm","code":"TAB"}}]}]},"request":{"method":"POST","url":"MedicationStatement"}},{"fullUrl":"MedicationStatement/12eefd4b-2ebb-42f8-92ee-ea2e1cb2cffc","resource":{"resourceType":"MedicationStatement","id":"12eefd4b-2ebb-42f8-92ee-ea2e1cb2cffc","status":"completed","medicationCodeableConcept":{"coding":[{"system":"http://www.nlm.nih.gov/research/umls/rxnorm","code":"10395"}]},"subject":{"reference":"Patient/02390a5f-668c-4e69-954b-09012e36f10f"},"effectiveDateTime":"2022-02-06T00:00:00+00:00","dosage":[{"doseAndRate":[{"doseQuantity":{"value":1,"unit":"TAB","system":"http://terminology.hl7.org/CodeSystem/v3-orderableDrugForm","code":"TAB"}}]}]},"request":{"method":"POST","url":"MedicationStatement"}},{"fullUrl":"MedicationStatement/2105214f-7036-4ea2-822d-4cfbb628b879","resource":{"resourceType":"MedicationStatement","id":"2105214f-7036-4ea2-822d-4cfbb628b879","status":"completed","medicationCodeableConcept":{"coding":[{"system":"http://www.nlm.nih.gov/research/umls/rxnorm","code":"7984"}]},"subject":{"reference":"Patient/02390a5f-668c-4e69-954b-09012e36f10f"},"effectiveDateTime":"2022-06-21T00:00:00+00:00","dosage":[{"doseAndRate":[{"doseQuantity":{"value":2,"unit":"TAB","system":"http://terminology.hl7.org/CodeSystem/v3-orderableDrugForm","code":"TAB"}}]}]},"request":{"method":"POST","url":"MedicationStatement"}},{"fullUrl":"MedicationStatement/f5fd9f63-c266-4280-b4aa-0c99fdfa593e","resource":{"resourceType":"MedicationStatement","id":"f5fd9f63-c266-4280-b4aa-0c99fdfa593e","status":"completed","medicationCodeableConcept":{"coding":[{"system":"http://www.nlm.nih.gov/research/umls/rxnorm","code":"8698"}]},"subject":{"reference":"Patient/02390a5f-668c-4e69-954b-09012e36f10f"},"effectiveDateTime":"2022-11-25T00:00:00+00:00","dosage":[{"doseAndRate":[{"doseQuantity":{"value":5.2,"unit":"TAB","system":"http://terminology.hl7.org/CodeSystem/v3-orderableDrugForm","code":"TAB"}}]}]},"request":{"method":"POST","url":"MedicationStatement"}},{"fullUrl":"MedicationStatement/4bcabfce-e6eb-4a4e-abc1-4d9a7b9cb18e","resource":{"resourceType":"MedicationStatement","id":"4bcabfce-e6eb-4a4e-abc1-4d9a7b9cb18e","status":"completed","medicationCodeableConcept":{"coding":[{"system":"http://www.nlm.nih.gov/research/umls/rxnorm","code":"2193"}]},"subject":{"reference":"Patient/02390a5f-668c-4e69-954b-09012e36f10f"},"effectiveDateTime":"2022-06-18T00:00:00+00:00","dosage":[{"doseAndRate":[{"doseQuantity":{"value":5.8,"unit":"TAB","system":"http://terminology.hl7.org/CodeSystem/v3-orderableDrugForm","code":"TAB"}}]}]},"request":{"method":"POST","url":"MedicationStatement"}},{"fullUrl":"MedicationStatement/1dc474e3-bb84-41aa-9eb3-0e24c1d58d5a","resource":{"resourceType":"MedicationStatement","id":"1dc474e3-bb84-41aa-9eb3-0e24c1d58d5a","status":"completed","medicationCodeableConcept":{"coding":[{"system":"http://www.nlm.nih.gov/research/umls/rxnorm","code":"8698"}]},"subject":{"reference":"Patient/02390a5f-668c-4e69-954b-09012e36f10f"},"effectiveDateTime":"2022-09-05T00:00:00+00:00","dosage":[{"doseAndRate":[{"doseQuantity":{"value":6.8,"unit":"TAB","system":"http://terminology.hl7.org/CodeSystem/v3-orderableDrugForm","code":"TAB"}}]}]},"request":{"method":"POST","url":"MedicationStatement"}},{"fullUrl":"MedicationStatement/0d07a20f-a7d5-41e7-8e33-4f372522891c","resource":{"resourceType":"MedicationStatement","id":"0d07a20f-a7d5-41e7-8e33-4f372522891c","status":"completed","medicationCodeableConcept":{"coding":[{"system":"http://www.nlm.nih.gov/research/umls/rxnorm","code":"8698"}]},"subject":{"reference":"Patient/02390a5f-668c-4e69-954b-09012e36f10f"},"effectiveDateTime":"2022-12-10T00:00:00+00:00","dosage":[{"doseAndRate":[{"doseQuantity":{"value":5.8,"unit":"TAB","system":"http://terminology.hl7.org/CodeSystem/v3-orderableDrugForm","code":"TAB"}}]}]},"request":{"method":"POST","url":"MedicationStatement"}},{"fullUrl":"Encounter/6e69e44e-45d2-44fa-8f6f-24890200c639","resource":{"resourceType":"Encounter","id":"6e69e44e-45d2-44fa-8f6f-24890200c639","status":"finished","class":{"system":"http://terminology.hl7.org/CodeSystem/v3-ActCode","code":"IMP","display":"inpatient encounter"},"type":[{"coding":[{"system":"http://terminology.hl7.org/CodeSystem/encounter-type","code":"OKI"}]}],"subject":{"reference":"Patient/02390a5f-668c-4e69-954b-09012e36f10f"},"period":{"start":"2022-05-17T00:00:00+00:00","end":"2022-05-17T00:00:00+00:00"}},"request":{"method":"POST","url":"Encounter"}},{"fullUrl":"Encounter/1656ace6-cfc3-4e04-9da9-495384b2c201","resource":{"resourceType":"Encounter","id":"1656ace6-cfc3-4e04-9da9-495384b2c201","status":"finished","class":{"system":"http://terminology.hl7.org/CodeSystem/v3-ActCode","code":"IMP","display":"inpatient encounter"},"type":[{"coding":[{"system":"http://terminology.hl7.org/CodeSystem/encounter-type","code":"BD/BM-clin"}]}],"subject":{"reference":"Patient/02390a5f-668c-4e69-954b-09012e36f10f"},"period":{"start":"2022-02-03T00:00:00+00:00","end":"2022-02-05T00:00:00+00:00"}},"request":{"method":"POST","url":"Encounter"}},{"fullUrl":"Encounter/33b39fdc-8cd3-4da6-bcb7-2a2241b67a50","resource":{"resourceType":"Encounter","id":"33b39fdc-8cd3-4da6-bcb7-2a2241b67a50","status":"finished","class":{"system":"http://terminology.hl7.org/CodeSystem/v3-ActCode","code":"IMP","display":"inpatient encounter"},"type":[{"coding":[{"system":"http://terminology.hl7.org/CodeSystem/encounter-type","code":"BD/BM-clin"}]}],"subject":{"reference":"Patient/02390a5f-668c-4e69-954b-09012e36f10f"},"period":{"start":"2022-07-09T00:00:00+00:00","end":"2022-07-13T00:00:00+00:00"}},"request":{"method":"POST","url":"Encounter"}},{"fullUrl":"Encounter/9c64e251-7e08-4bec-b9b5-70209b0927a6","resource":{"resourceType":"Encounter","id":"9c64e251-7e08-4bec-b9b5-70209b0927a6","status":"finished","class":{"system":"http://terminology.hl7.org/CodeSystem/v3-ActCode","code":"VR","display":"virtual"},"type":[{"coding":[{"system":"http://terminology.hl7.org/CodeSystem/encounter-type","code":"BD/BM-clin"}]}],"subject":{"reference":"Patient/02390a5f-668c-4e69-954b-09012e36f10f"},"period":{"start":"2022-01-22T00:00:00+00:00","end":"2022-01-24T00:00:00+00:00"}},"request":{"method":"POST","url":"Encounter"}},{"fullUrl":"Encounter/fe590ddc-f415-4725-9c70-1c4973caad23","resource":{"resourceType":"Encounter","id":"fe590ddc-f415-4725-9c70-1c4973caad23","status":"finished","class":{"system":"http://terminology.hl7.org/CodeSystem/v3-ActCode","code":"EMER","display":"emergency"},"type":[{"coding":[{"system":"http://terminology.hl7.org/CodeSystem/encounter-type","code":"BD/BM-clin"}]}],"subject":{"reference":"Patient/02390a5f-668c-4e69-954b-09012e36f10f"},"period":{"start":"2022-08-02T00:00:00+00:00","end":"2022-08-04T00:00:00+00:00"}},"request":{"method":"POST","url":"Encounter"}},{"fullUrl":"Encounter/18c19cb8-65aa-4337-9d50-c327b4b04cf2","resource":{"resourceType":"Encounter","id":"18c19cb8-65aa-4337-9d50-c327b4b04cf2","status":"finished","class":{"system":"http://terminology.hl7.org/CodeSystem/v3-ActCode","code":"ACUTE","display":"inpatient acute"},"type":[{"coding":[{"system":"http://terminology.hl7.org/CodeSystem/encounter-type","code":"OKI"}]}],"subject":{"reference":"Patient/02390a5f-668c-4e69-954b-09012e36f10f"},"period":{"start":"2022-08-28T00:00:00+00:00","end":"2022-09-01T00:00:00+00:00"}},"request":{"method":"POST","url":"Encounter"}},{"fullUrl":"Patient/3842d37a-c8eb-4dee-912a-d5724eb051f9","resource":{"resourceType":"Patient","id":"3842d37a-c8eb-4dee-912a-d5724eb051f9","identifier":[{"type":{"coding":[{"system":"http://terminology.hl7.org/CodeSystem/v2-0203","code":"MR"}]},"system":"urn:fhirgen:mrn","value":"438-58-5031"}],"name":[{"use":"official","family":"Stafford","given":["Katherine"]},{"use":"maiden","family":"Burton"}],"telecom":[{"system":"phone","value":"+1-289-064-3588x613","use":"home"},{"system":"email","value":"donaldespinoza@hotmail.com","use":"mobile"}],"gender":"other","birthDate":"1990-01-24","address":[{"use":"home","line":["688 Ashley Shores Apt. 025"],"city":"Port David","state":"SD","postalCode":"37401"},{"use":"old","line":["43772 Melissa Roads"],"city":"Brandiview","state":"VT","postalCode":"29100"}]},"request":{"method":"POST","url":"Patient"}},{"fullUrl":"Observation/1f93c1e4-d15e-4926-9bea-c6ff6835c01b","resource":{"resourceType":"Observation","id":"1f93c1e4-d15e-4926-9bea-c6ff6835c01b","status":"final","code":{"coding":[{"system":"http://loinc.org","code":"34382-2"}]},"subject":{"reference":"Patient/3842d37a-c8eb-4dee-912a-d5724eb051f9"},"effectiveDateTime":"2022-01-28T00:00:00+00:00","valueRatio":{"numerator":{"value":1},"denominator":{"value":4}}},"request":{"method":"POST","url":"Observation"}},{"fullUrl":"Observation/97cbd72a-be4e-4c09-beef-71604850d531","resource":{"resourceType":"Observation","id":"97cbd72a-be4e-4c09-beef-71604850d531","status":"final","code":{"coding":[{"system":"http://loinc.org","code":"50690-7"}]},"subject":{"reference":"Patient/3842d37a-c8eb-4dee-912a-d5724eb051f9"},"effectiveDateTime":"2022-01-04T00:00:00+00:00","valueRatio":{"numerator":{"value":1},"denominator":{"value":32}}},"request":{"method":"POST","url":"Observation"}},{"fullUrl":"Observation/646f039d-21de-430b-9165-b0e9cdc76ecc","resource":{"resourceType":"Observation","id":"646f039d-21de-430b-9165-b0e9cdc76ecc","status":"final","code":{"coding":[{"system":"http://loinc.org","code":"31146-4"}]},"subject":{"reference":"Patient/3842d37a-c8eb-4dee-912a-d5724eb051f9"},"effectiveDateTime":"2022-09-08T00:00:00+00:00","valueRatio":{"numerator":{"value":1},"denominator":{"value":4}}},"request":{"method":"POST","url":"Observation"}},{"fullUrl":"Condition/2940b935-42ba-4bf4-8507-be77ffb692be","resource":{"resourceType":"Condition","id":"2940b935-42ba-4bf4-8507-be77ffb692be","code":{"coding":[{"system":"http://snomed.info/sct","code":"79342006"}]},"subject":{"reference":"Patient/3842d37a-c8eb-4dee-912a-d5724eb051f9"},"onsetDateTime":"2022-04-12T00:00:00+00:00"},"request":{"method":"POST","url":"Condition"}},{"fullUrl":"Condition/b13701af-b4bd-4bd0-9036-1f2cf6afb775","resource":{"resourceType":"Condition","id":"b13701af-b4bd-4bd0-9036-1f2cf6afb775","code":{"coding":[{"system":"http://snomed.info/sct","code":"31070006"}]},"subject":{"reference":"Patient/3842d37a-c8eb-4dee-912a-d5724eb051f9"},"onsetDateTime":"2022-04-21T00:00:00+00:00"},"request":{"method":"POST","url":"Condition"}},{"fullUrl":"Condition/af5597a5-14c3-4ebe-8457-516c35c1bacc","resource":{"resourceType":"Condition","id":"af5597a5-14c3-4ebe-8457-516c35c1bacc","code":{"coding":[{"system":"http://snomed.info/sct","code":"44882003"}]},"subject":{"reference":"Patient/3842d37a-c8eb-4dee-912a-d5724eb051f9"},"onsetDateTime":"2022-04-06T00:00:00+00:00"},"request":{"method":"POST","url":"Condition"}},{"fullUrl":"Condition/573c7be2-872d-4fbd-8f31-9c51befe6fe7","resource":{"resourceType":"Condition","id":"573c7be2-872d-4fbd-8f31-9c51befe6fe7","code":{"coding":[{"system":"http://snomed.info/sct","code":"248980004"}]},"subject":{"reference":"Patient/3842d37a-c8eb-4dee-912a-d5724eb051f9"},"onsetDateTime":"2022-02-17T00:00:00+00:00"},"request":{"method":"POST","url":"Condition"}},{"fullUrl":"Condition/34fd4814-8cbb-4065-821c-d4c159b7e595","resource":{"resourceType":"Condition","id":"34fd4814-8cbb-4065-821c-d4c159b7e595","code":{"coding":[{"system":"http://snomed.info/sct","code":"709977002"}]},"subject":{"reference":"Patient/3842d37a-c8eb-4dee-912a-d5724eb051f9"},"onsetDateTime":"2022-08-27T00:00:00+00:00"},"request":{"method":"POST","url":"Condition"}},{"fullUrl":"Condition/6580107b-93c5-4d2b-aa6a-521a0b59688c","resource":{"resourceType":"Condition","id":"6580107b-93c5-4d2b-aa6a-521a0b59688c","code":{"coding":[{"system":"http://snomed.info/sct","code":"44882003"}]},"subject":{"reference":"Patient/3842d37a-c8eb-4dee-912a-d5724eb051f9"},"onsetDateTime":"2022-01-10T00:00:00+00:00"},"request":{"method":"POST","url":"Condition"}},{"fullUrl":"Condition/2928cd79-cbcb-434e-acd6-bf641c3507d4","resource":{"resourceType":"Condition","id":"2928cd79-cbcb-434e-acd6-bf641c3507d4","code":{"coding":[{"system":"http://snomed.info/sct","code":"386661006"}]},"subject":{"reference":"Patient/3842d37a-c8eb-4dee-912a-d5724eb051f9"},"onsetDateTime":"2022-11-30T00:00:00+00:00"},"request":{"method":"POST","url":"Condition"}},{"fullUrl":"Condition/6f4ed76a-1ab2-443b-bbca-2ff061dcf9e1","resource":{"resourceType":"Condition","id":"6f4ed76a-1ab2-443b-bbca-2ff061dcf9e1","code":{"coding":[{"system":"http://snomed.info/sct","code":"418290006"}]},"subject":{"reference":"Patient/3842d37a-c8eb-4dee-912a-d5724eb051f9"},"onsetDateTime":"2022-08-11T00:00:00+00:00"},"request":{"method":"POST","url":"Condition"}},{"fullUrl":"Observation/2cddde23-4d25-46b3-a345-ea76b240098f","resource":{"resourceType":"Observation","id":"2cddde23-4d25-46b3-a345-ea76b240098f","status":"final","code":{"coding":[{"system":"http://www.ama-assn.org/go/cpt","code":"85048"}]},"subject":{"reference":"Patient/3842d37a-c8eb-4dee-912a-d5724eb051f9"},"effectiveDateTime":"2022-07-13T00:00:00+00:00","valueQuantity":{"value":10.7}},"request":{"method":"POST","url":"Observation"}},{"fullUrl":"Observation/1492cf85-150e-4c85-a629-f4303850df48","resource":{"resourceType":"Observation","id":"1492cf85-150e-4c85-a629-f4303850df48","status":"final","code":{"coding":[{"system":"http://loinc.org","code":"49498-9"}]},"subject":{"reference":"Patient/3842d37a-c8eb-4dee-912a-d5724eb051f9"},"effectiveDateTime":"2022-06-18T00:00:00+00:00","valueQuantity":{"value":9.7}},"request":{"method":"POST","url":"Observation"}},{"fullUrl":"Observation/a33cf692-abc2-4dbd-8bf3-565b6a505324","resource":{"resourceType":"Observation","id":"a33cf692-abc2-4dbd-8bf3-565b6a505324","status":"final","code":{"coding":[{"system":"http://loinc.org","code":"804-5"}]},"subject":{"reference":"Patient/3842d37a-c8eb-4dee-912a-d5724eb051f9"},"effectiveDateTime":"2022-07-23T00:00:00+00:00","valueCodeableConcept":{"coding":[{"system":"snomed","code":"123456","display":"fake snomed"}]}},"request":{"method":"POST","url":"Observation"}},{"fullUrl":"Observation/f1eadb62-b27f-42be-92c8-4a6ea622c146","resource":{"resourceType":"Observation","id":"f1eadb62-b27f-42be-92c8-4a6ea622c146","status":"final","code":{"coding":[{"system":"http://www.ama-assn.org/go/cpt","code":"85048"}]},"subject":{"reference":"Patient/3842d37a-c8eb-4dee-912a-d5724eb051f9"},"effectiveDateTime":"2022-03-09T00:00:00+00:00","valueCodeableConcept":{"coding":[{"system":"snomed","code":"123456","display":"fake snomed"}]}},"request":{"method":"POST","url":"Observation"}},{"fullUrl":"Observation/591b0946-3b22-467b-8c96-0153f78d5b84","resource":{"resourceType":"Observation","id":"591b0946-3b22-467b-8c96-0153f78d5b84","status":"final","code":{"coding":[{"system":"http://loinc.org","code":"49498-9"}]},"subject":{"reference":"Patient/3842d37a-c8eb-4dee-912a-d5724eb051f9"},"effectiveDateTime":"2022-09-16T00:00:00+00:00"},"request":{"method":"POST","url":"Observation"}},{"fullUrl":"Observation/02dbb1bb-8423-44fa-92b6-79b7cbf1c3e6","resource":{"resourceType":"Observation","id":"02dbb1bb-8423-44fa-92b6-79b7cbf1c3e6","status":"final","code":{"coding":[{"system":"http://loinc.org","code":"49498-9"}]},"subject":{"reference":"Patient/3842d37a-c8eb-4dee-912a-d5724eb051f9"},"effectiveDateTime":"2022-02-05T00:00:00+00:00"},"request":{"method":"POST","url":"Observation"}},{"fullUrl":"Observation/ec3dde11-c07f-49ca-8e04-a1d5e875c74f","resource":{"resourceType":"Observation","id":"ec3dde11-c07f-49ca-8e04-a1d5e875c74f","status":"final","code":{"coding":[{"system":"http://loinc.org","code":"49498-9"}]},"subject":{"reference":"Patient/3842d37a-c8eb-4dee-912a-d5724eb051f9"},"effectiveDateTime":"2022-07-13T00:00:00+00:00"},"request":{"method":"POST","url":"Observation"}},{"fullUrl":"Procedure/286ed84f-788f-471c-9c3c-0e320a7ac233","resource":{"resourceType":"Procedure","id":"286ed84f-788f-471c-9c3c-0e320a7ac233","status":"completed","code":{"coding":[{"system":"http://snomed.info/sct","code":"146005"}]},"subject":{"reference":"Patient/3842d37a-c8eb-4dee-912a-d5724eb051f9"},"performedDateTime":"2022-06-24T00:00:00+00:00"},"request":{"method":"POST","url":"Procedure"}},{"fullUrl":"Procedure/f0bdc20c-5b31-4174-bdd5-90e2b8e73004","resource":{"resourceType":"Procedure","id":"f0bdc20c-5b31-4174-bdd5-90e2b8e73004","status":"completed","code":{"coding":[{"system":"http://snomed.info/sct","code":"647000"}]},"subject":{"reference":"Patient/3842d37a-c8eb-4dee-912a-d5724eb051f9"},"performedDateTime":"2022-06-05T00:00:00+00:00"},"request":{"method":"POST","url":"Procedure"}},{"fullUrl":"Procedure/be27956a-82bd-4b29-bd2d-cee32e069a4e","resource":{"resourceType":"Procedure","id":"be27956a-82bd-4b29-bd2d-cee32e069a4e","status":"completed","code":{"coding":[{"system":"http://snomed.info/sct","code":"189009"}]},"subject":{"reference":"Patient/3842d37a-c8eb-4dee-912a-d5724eb051f9"},"performedDateTime":"2022-01-27T00:00:00+00:00"},"request":{"method":"POST","url":"Procedure"}},{"fullUrl":"MedicationStatement/af719b7e-5dd2-41c6-88eb-80177d5679ba","resource":{"resourceType":"MedicationStatement","id":"af719b7e-5dd2-41c6-88eb-80177d5679ba","status":"completed","medicationCodeableConcept":{"coding":[{"system":"http://www.nlm.nih.gov/research/umls/rxnorm","code":"8698"}]},"subject":{"reference":"Patient/3842d37a-c8eb-4dee-912a-d5724eb051f9"},"effectiveDateTime":"2022-08-09T00:00:00+00:00","dosage":[{"doseAndRate":[{"doseQuantity":{"value":1,"unit":"TAB","system":"http://terminology.hl7.org/CodeSystem/v3-orderableDrugForm","code":"TAB"}}]}]},"request":{"method":"POST","url":"MedicationStatement"}},{"fullUrl":"MedicationStatement/e6705d4a-2ef8-4ba0-8993-5519f09fd1b2","resource":{"resourceType":"MedicationStatement","id":"e6705d4a-2ef8-4ba0-8993-5519f09fd1b2","status":"completed","medicationCodeableConcept":{"coding":[{"system":"http://www.nlm.nih.gov/research/umls/rxnorm","code":"7980"}]},"subject":{"reference":"Patient/3842d37a-c8eb-4dee-912a-d5724eb051f9"},"effectiveDateTime":"2022-11-09T00:00:00+00:00","dosage":[{"doseAndRate":[{"doseQuantity":{"value":1,"unit":"TAB","system":"http://terminology.hl7.org/CodeSystem/v3-orderableDrugForm","code":"TAB"}}]}]},"request":{"method":"POST","url":"MedicationStatement"}},{"fullUrl":"MedicationStatement/956ea95f-d381-4837-b3e3-c758f71d11c1","resource":{"resourceType":"MedicationStatement","id":"956ea95f-d381-4837-b3e3-c758f71d11c1","status":"completed","medicationCodeableConcept":{"coding":[{"system":"http://www.nlm.nih.gov/research/umls/rxnorm","code":"7980"}]},"subject":{"reference":"Patient/3842d37a-c8eb-4dee-912a-d5724eb051f9"},"effectiveDateTime":"2022-12-30T00:00:00+00:00","dosage":[{"doseAndRate":[{"doseQuantity":{"value":1,"unit":"TAB","system":"http://terminology.hl7.org/CodeSystem/v3-orderableDrugForm","code":"TAB"}}]}]},"request":{"method":"POST","url":"MedicationStatement"}},{"fullUrl":"MedicationStatement/f2ed0b3a-410e-4276-8ccd-484ad22f94d5","resource":{"resourceType":"MedicationStatement","id":"f2ed0b3a-410e-4276-8ccd-484ad22f94d5","status":"completed","medicationCodeableConcept":{"coding":[{"system":"http://www.nlm.nih.gov/research/umls/rxnorm","code":"7984"}]},"subject":{"reference":"Patient/3842d37a-c8eb-4dee-912a-d5724eb051f9"},"effectiveDateTime":"2022-12-18T00:00:00+00:00","dosage":[{"doseAndRate":[{"doseQuantity":{"value":2,"unit":"TAB","system":"http://terminology.hl7.org/CodeSystem/v3-orderableDrugForm","code":"TAB"}}]}]},"request":{"method":"POST","url":"MedicationStatement"}},{"fullUrl":"MedicationStatement/84671797-7736-41ac-9748-aecd626ecbcc","resource":{"resourceType":"MedicationStatement","id":"84671797-7736-41ac-9748-aecd626ecbcc","status":"completed","medicationCodeableConcept":{"coding":[{"system":"http://www.nlm.nih.gov/research/umls/rxnorm","code":"7984"}]},"subject":{"reference":"Patient/3842d37a-c8eb-4dee-912a-d5724eb051f9"},"effectiveDateTime":"2022-08-31T00:00:00+00:00","dosage":[{"doseAndRate":[{"doseQuantity":{"value":1,"unit":"TAB","system":"http://terminology.hl7.org/CodeSystem/v3-orderableDrugForm","code":"TAB"}}]}]},"request":{"method":"POST","url":"MedicationStatement"}},{"fullUrl":"MedicationStatement/351d70dd-ef42-40e7-bf0b-799229f57f17","resource":{"resourceType":"MedicationStatement","id":"351d70dd-ef42-40e7-bf0b-799229f57f17","status":"completed","medicationCodeableConcept":{"coding":[{"system":"http://www.nlm.nih.gov/research/umls/rxnorm","code":"10395"}]},"subject":{"reference":"Patient/3842d37a-c8eb-4dee-912a-d5724eb051f9"},"effectiveDateTime":"2022-09-28T00:00:00+00:00","dosage":[{"doseAndRate":[{"doseQuantity":{"value":6.4,"unit":"TAB","system":"http://terminology.hl7.org/CodeSystem/v3-orderableDrugForm","code":"TAB"}}]}]},"request":{"method":"POST","url":"MedicationStatement"}},{"fullUrl":"Encounter/1f5048cc-c060-448b-9598-b6ea6daa50dc","resource":{"resourceType":"Encounter","id":"1f5048cc-c060-448b-9598-b6ea6daa50dc","status":"finished","class":{"system":"http://terminology.hl7.org/CodeSystem/v3-ActCode","code":"IMP","display":"inpatient encounter"},"type":[{"coding":[{"system":"http://terminology.hl7.org/CodeSystem/encounter-type","code":"BD/BM-clin"}]}],"subject":{"reference":"Patient/3842d37a-c8eb-4dee-912a-d5724eb051f9"},"period":{"start":"2022-10-12T00:00:00+00:00","end":"2022-10-15T00:00:00+00:00"}},"request":{"method":"POST","url":"Encounter"}},{"fullUrl":"Encounter/db9a05d6-0bc4-4b29-b9d7-c6c7003580b4","resource":{"resourceType":"Encounter","id":"db9a05d6-0bc4-4b29-b9d7-c6c7003580b4","status":"finished","class":{"system":"http://terminology.hl7.org/CodeSystem/v3-ActCode","code":"IMP","display":"inpatient encounter"},"type":[{"coding":[{"system":"http://terminology.hl7.org/CodeSystem/encounter-type","code":"OKI"}]}],"subject":{"reference":"Patient/3842d37a-c8eb-4dee-912a-d5724eb051f9"},"period":{"start":"2022-01-25T00:00:00+00:00","end":"2022-01-30T00:00:00+00:00"}},"request":{"method":"POST","url":"Encounter"}},{"fullUrl":"Encounter/a20ec72b-cf13-4be5-bb4a-426f86eab14d","resource":{"resourceType":"Encounter","id":"a20ec72b-cf13-4be5-bb4a-426f86eab14d","status":"finished","class":{"system":"http://terminology.hl7.org/CodeSystem/v3-ActCode","code":"FLD","display":"field"},"type":[{"coding":[{"system":"http://terminology.hl7.org/CodeSystem/encounter-type","code":"BD/BM-clin"}]}],"subject":{"reference":"Patient/3842d37a-c8eb-4dee-912a-d5724eb051f9"},"period":{"start":"2022-05-13T00:00:00+00:00","end":"2022-05-14T00:00:00+00:00"}},"request":{"method":"POST","url":"Encounter"}},{"fullUrl":"Encounter/d4ecb577-9f38-481a-b3f8-b7b8ea6b4136","resource":{"resourceType":"Encounter","id":"d4ecb577-9f38-481a-b3f8-b7b8ea6b4136","status":"finished","class":{"system":"http://terminology.hl7.org/CodeSystem/v3-ActCode","code":"EMER","display":"emergency"},"type":[{"coding":[{"system":"http://terminology.hl7.org/CodeSystem/encounter-type","code":"CCS60"}]}],"subject":{"reference":"Patient/3842d37a-c8eb-4dee-912a-d5724eb051f9"},"period":{"start":"2022-07-18T00:00:00+00:00","end":"2022-07-23T00:00:00+00:00"}},"request":{"method":"POST","url":"Encounter"}},{"fullUrl":"Encounter/15120c70-3eea-4f3d-b028-53b1988b9816","resource":{"resourceType":"Encounter","id":"15120c70-3eea-4f3d-b028-53b1988b9816","status":"finished","class":{"system":"http://terminology.hl7.org/CodeSystem/v3-ActCode","code":"NONAC","display":"inpatient non-acute"},"type":[{"coding":[{"system":"http://terminology.hl7.org/CodeSystem/encounter-type","code":"CCS60"}]}],"subject":{"reference":"Patient/3842d37a-c8eb-4dee-912a-d5724eb051f9"},"period":{"start":"2022-04-30T00:00:00+00:00","end":"2022-05-05T00:00:00+00:00"}},"request":{"method":"POST","url":"Encounter"}}]}