{"resourceType":"Bundle","id":"42a0d3b0-61ab-443a-83f3-7a7c901d884b","type":"collection","entry":[{"fullUrl":"Patient/c382b55d-730d-445a-848a-0be4b6c0ce76","resource":{"resourceType":"Patient","id":"c382b55d-730d-445a-848a-0be4b6c0ce76","meta":{"profile":["http://hl7.org/fhir/us/core/StructureDefinition/us-core-patient"]},"identifier":[{"type":{"coding":[{"system":"http://terminology.hl7.org/CodeSystem/v2-0203","code":"MR"}]},"system":"urn:fhirgen:mrn","value":"326-98-9215"}],"name":[{"family":"Jackson","given":["Christopher"]}],"telecom":[{"system":"phone","value":"177.797.8148x3215"}],"gender":"male","birthDate":"1996-01-03","address":[{"line":["491 Alejandra Cove Apt. 516"],"city":"Sandraland","state":"Iowa","postalCode":"05696"}]}},{"fullUrl":"Observation/67089030-8534-46dd-af62-fa21d065ecf0","resource":{"resourceType":"Observation","id":"67089030-8534-46dd-af62-fa21d065ecf0","meta":{"profile":["http://hl7.org/fhir/us/core/StructureDefinition/us-core-observation-lab"]},"status":"final","category":[{"coding":[{"system":"http://terminology.hl7.org/CodeSystem/observation-category","code":"laboratory","display":"Laboratory"}]}],"code":{"coding":[{"system":"http://loinc.org","code":"31147-2"}]},"subject":{"reference":"Patient/c382b55d-730d-445a-848a-0be4b6c0ce76"},"effectiveDateTime":"2022-07-05T00:00:00+00:00","valueRatio":{"numerator":{"value":1},"denominator":{"value":64}}}},{"fullUrl":"Observation/45875e9e-e0bb-4be1-b826-1f7add028eeb","resource":{"resourceType":"Observation","id":"45875e9e-e0bb-4be1-b826-1f7add028eeb","meta":{"profile":["http://hl7.org/fhir/us/core/StructureDefinition/us-core-observation-lab"]},"status":"final","category":[{"coding":[{"system":"http://terminology.hl7.org/CodeSystem/observation-category","code":"laboratory","display":"Laboratory"}]}],"code":{"coding":[{"system":"http://loinc.org","code":"26009-1"}]},"subject":{"reference":"Patient/c382b55d-730d-445a-848a-0be4b6c0ce76"},"effectiveDateTime":"2022-03-15T00:00:00+00:00","valueRatio":{"numerator":{"value":1},"denominator":{"value":4}}}},{"fullUrl":"Observation/af809e62-03db-4599-a3f2-5a0a64d5c90c","resource":{"resourceType":"Observation","id":"af809e62-03db-4599-a3f2-5a0a64d5c90c","meta":{"profile":["http://hl7.org/fhir/us/core/StructureDefinition/us-core-observation-lab"]},"status":"final","category":[{"coding":[{"system":"http://terminology.hl7.org/CodeSystem/observation-category","code":"laboratory","display":"Laboratory"}]}],"code":{"coding":[{"system":"http://loinc.org","code":"5394-2"}]},"subject":{"reference":"Patient/c382b55d-730d-445a-848a-0be4b6c0ce76"},"effectiveDateTime":"2022-07-22T00:00:00+00:00","valueRatio":{"numerator":{"value":1},"denominator":{"value":64}}}},{"fullUrl":"Condition/0627c28f-7938-43f7-b533-8ef809147dec","resource":{"resourceType":"Condition","id":"0627c28f-7938-43f7-b533-8ef809147dec","meta":{"profile":["http://hl7.org/fhir/us/core/StructureDefinition/us-core-condition"]},"clinicalStatus":{"coding":[{"system":"http://terminology.hl7.org/CodeSystem/condition-clinical","code":"active","display":"Active"}]},"category":[{"coding":[{"system":"http://terminology.hl7.org/CodeSystem/condition-ver-status","code":"confirmed"}]}],"code":{"coding":[{"system":"http://snomed.info/sct","code":"418290006"}]},"subject":{"reference":"Patient/c382b55d-730d-445a-848a-0be4b6c0ce76"},"onsetDateTime":"2022-11-11T00:00:00+00:00"}},{"fullUrl":"Condition/9375e29d-e1eb-4576-84b7-e08415cdf97b","resource":{"resourceType":"Condition","id":"9375e29d-e1eb-4576-84b7-e08415cdf97b","meta":{"profile":["http://hl7.org/fhir/us/core/StructureDefinition/us-core-condition"]},"clinicalStatus":{"coding":[{"system":"http://terminology.hl7.org/CodeSystem/condition-clinical","code":"active","display":"Active"}]},"category":[{"coding":[{"system":"http://terminology.hl7.org/CodeSystem/condition-ver-status","code":"confirmed"}]}],"code":{"coding":[{"system":"http://snomed.info/sct","code":"44882003"}]},"subject":{"reference":"Patient/c382b55d-730d-445a-848a-0be4b6c0ce76"},"onsetDateTime":"2022-06-25T00:00:00+00:00"}},{"fullUrl":"Condition/258f6a5b-0ade-4a87-a8a2-e830b5d78e38","resource":{"resourceType":"Condition","id":"258f6a5b-0ade-4a87-a8a2-e830b5d78e38","meta":{"profile":["http://hl7.org/fhir/us/core/StructureDefinition/us-core-condition"]},"clinicalStatus":{"coding":[{"system":"http://terminology.hl7.org/CodeSystem/condition-clinical","code":"active","display":"Active"}]},"category":[{"coding":[{"system":"http://terminology.hl7.org/CodeSystem/condition-ver-status","code":"confirmed"}]}],"code":{"coding":[{"system":"http://snomed.info/sct","code":"91554004"}]},"subject":{"reference":"Patient/c382b55d-730d-445a-848a-0be4b6c0ce76"},"onsetDateTime":"2022-08-26T00:00:00+00:00"}},{"fullUrl":"Condition/ac0cd77e-cbc5-442f-9df2-4879d6049fd4","resource":{"resourceType":"Condition","id":"ac0cd77e-cbc5-442f-9df2-4879d6049fd4","meta":{"profile":["http://hl7.org/fhir/us/core/StructureDefinition/us-core-condition"]},"clinicalStatus":{"coding":[{"system":"http://terminology.hl7.org/CodeSystem/condition-clinical","code":"active","display":"Active"}]},"category":[{"coding":[{"system":"http://terminology.hl7.org/CodeSystem/condition-ver-status","code":"confirmed"}]}],"code":{"coding":[{"system":"http://snomed.info/sct","code":"418290006"}]},"subject":{"reference":"Patient/c382b55d-730d-445a-848a-0be4b6c0ce76"},"onsetDateTime":"2022-10-07T00:00:00+00:00"}},{"fullUrl":"Condition/ba170b33-44c1-410c-b0d9-4d5eb37f7706","resource":{"resourceType":"Condition","id":"ba170b33-44c1-410c-b0d9-4d5eb37f7706","meta":{"profile":["http://hl7.org/fhir/us/core/StructureDefinition/us-core-condition"]},"clinicalStatus":{"coding":[{"system":"http://terminology.hl7.org/CodeSystem/condition-clinical","code":"active","display":"Active"}]},"category":[{"coding":[{"system":"http://terminology.hl7.org/CodeSystem/condition-ver-status","code":"confirmed"}]}],"code":{"coding":[{"system":"http://snomed.info/sct","code":"418290006"}]},"subject":{"reference":"Patient/c382b55d-730d-445a-848a-0be4b6c0ce76"},"onsetDateTime":"2022-08-08T00:00:00+00:00"}},{"fullUrl":"Condition/2585b2ae-b07d-414c-a625-45d2b6e0ab38","resource":{"resourceType":"Condition","id":"2585b2ae-b07d-414c-a625-45d2b6e0ab38","meta":{"profile":["http://hl7.org/fhir/us/core/StructureDefinition/us-core-condition"]},"clinicalStatus":{"coding":[{"system":"http://terminology.hl7.org/CodeSystem/condition-clinical","code":"active","display":"Active"}]},"category":[{"coding":[{"system":"http://terminology.hl7.org/CodeSystem/condition-ver-status","code":"confirmed"}]}],"code":{"coding":[{"system":"http://snomed.info/sct","code":"709977002"}]},"subject":{"reference":"Patient/c382b55d-730d-445a-848a-0be4b6c0ce76"},"onsetDateTime":"2022-07-29T00:00:00+00:00"}},{"fullUrl":"Observation/ad0b5677-104a-4f22-995e-625737984679","resource":{"resourceType":"Observation","id":"ad0b5677-104a-4f22-995e-625737984679","meta":{"profile":["http://hl7.org/fhir/us/core/StructureDefinition/us-core-observation-lab"]},"status":"final","category":[{"coding":[{"system":"http://terminology.hl7.org/CodeSystem/observation-category","code":"laboratory","display":"Laboratory"}]}],"code":{"coding":[{"system":"http://loinc.org","code":"6690-2"}]},"subject":{"reference":"Patient/c382b55d-730d-445a-848a-0be4b6c0ce76"},"effectiveDateTime":"2022-06-10T00:00:00+00:00","valueQuantity":{"value":6.4}}},{"fullUrl":"Observation/56f37039-7c00-4d79-a4ab-64b5f87ba9df","resource":{"resourceType":"Observation","id":"56f37039-7c00-4d79-a4ab-64b5f87ba9df","meta":{"profile":["http://hl7.org/fhir/us/core/StructureDefinition/us-core-observation-lab"]},"status":"final","category":[{"coding":[{"system":"http://terminology.hl7.org/CodeSystem/observation-category","code":"laboratory","display":"Laboratory"}]}],"code":{"coding":[{"system":"http://loinc.org","code":"26464-8"}]},"subject":{"reference":"Patient/c382b55d-730d-445a-848a-0be4b6c0ce76"},"effectiveDateTime":"2022-01-03T00:00:00+00:00","valueQuantity":{"value":10.2}}},{"fullUrl":"Observation/520fdbfe-8256-4daa-834b-4672ed85cd4d","resource":{"resourceType":"Observation","id":"520fdbfe-8256-4daa-834b-4672ed85cd4d","meta":{"profile":["http://hl7.org/fhir/us/core/StructureDefinition/us-core-observation-lab"]},"status":"final","category":[{"coding":[{"system":"http://terminology.hl7.org/CodeSystem/observation-category","code":"laboratory","display":"Laboratory"}]}],"code":{"coding":[{"system":"http://loinc.org","code":"26464-8"}]},"subject":{"reference":"Patient/c382b55d-730d-445a-848a-0be4b6c0ce76"},"effectiveDateTime":"2022-01-18T00:00:00+00:00","valueQuantity":{"value":4.3}}},{"fullUrl":"Observation/d1e1bec9-30fb-4bbd-b16e-f1f28fbb37c1","resource":{"resourceType":"Observation","id":"d1e1bec9-30fb-4bbd-b16e-f1f28fbb37c1","meta":{"profile":["http://hl7.org/fhir/us/core/StructureDefinition/us-core-bmi"]},"status":"final","category":[{"coding":[{"system":"http://terminology.hl7.org/CodeSystem/observation-category","code":"vital-signs","display":"Vital Signs"}]}],"code":{"coding":[{"system":"http://loinc.org","code":"39156-5"}]},"subject":{"reference":"Patient/c382b55d-730d-445a-848a-0be4b6c0ce76"},"effectiveDateTime":"2022-04-10T00:00:00+00:00","valueQuantity":{"value":13.53,"unit":"kg/m2","system":"http://unitsofmeasure.org","code":"kg/m2"}}},{"fullUrl":"Observation/41d06159-03da-44ff-8b4d-e833c4766c72","resource":{"resourceType":"Observation","id":"41d06159-03da-44ff-8b4d-e833c4766c72","meta":{"profile":["http://hl7.org/fhir/us/core/StructureDefinition/us-core-bmi"]},"status":"final","category":[{"coding":[{"system":"http://terminology.hl7.org/CodeSystem/observation-category","code":"vital-signs","display":"Vital Signs"}]}],"code":{"coding":[{"system":"http://loinc.org","code":"39156-5"}]},"subject":{"reference":"Patient/c382b55d-730d-445a-848a-0be4b6c0ce76"},"effectiveDateTime":"2022-06-07T00:00:00+00:00","valueQuantity":{"value":10.16,"unit":"kg/m2","system":"http://unitsofmeasure.org","code":"kg/m2"}}},{"fullUrl":"Observation/d7ca4617-54c0-4598-be64-cee467e0c2e2","resource":{"resourceType":"Observation","id":"d7ca4617-54c0-4598-be64-cee467e0c2e2","meta":{"profile":["http://hl7.org/fhir/us/core/StructureDefinition/us-core-head-circumference"]},"status":"final","category":[{"coding":[{"system":"http://terminology.hl7.org/CodeSystem/observation-category","code":"vital-signs","display":"Vital Signs"}]}],"code":{"coding":[{"system":"http://loinc.org","code":"9843-4"}]},"subject":{"reference":"Patient/c382b55d-730d-445a-848a-0be4b6c0ce76"},"effectiveDateTime":"2022-12-09T00:00:00+00:00","valueQuantity":{"value":3.8,"unit":"Inch","system":"http://unitsofmeasure.org","code":"[in_i]"}}},{"fullUrl":"Observation/c480ca1f-fe71-4711-94eb-3b11ef194e61","resource":{"resourceType":"Observation","id":"c480ca1f-fe71-4711-94eb-3b11ef194e61","meta":{"profile":["http://hl7.org/fhir/us/core/StructureDefinition/us-core-body-height"]},"status":"final","category":[{"coding":[{"system":"http://terminology.hl7.org/CodeSystem/observation-category","code":"vital-signs","display":"Vital Signs"}]}],"code":{"coding":[{"system":"http://loinc.org","code":"8302-2"}]},"subject":{"reference":"Patient/c382b55d-730d-445a-848a-0be4b6c0ce76"},"effectiveDateTime":"2022-04-30T00:00:00+00:00","valueQuantity":{"value":73.4,"unit":"Inch","system":"http://unitsofmeasure.org","code":"[in_i]"}}},{"fullUrl":"Observation/e7ecc8cf-e20c-47ec-a3a1-4eb8cafe863d","resource":{"resourceType":"Observation","id":"e7ecc8cf-e20c-47ec-a3a1-4eb8cafe863d","meta":{"profile":["http://hl7.org/fhir/us/core/StructureDefinition/us-core-body-weight"]},"status":"final","category":[{"coding":[{"system":"http://terminology.hl7.org/CodeSystem/observation-category","code":"vital-signs","display":"Vital Signs"}]}],"code":{"coding":[{"system":"http://loinc.org","code":"29463-7"}]},"subject":{"reference":"Patient/c382b55d-730d-445a-848a-0be4b6c0ce76"},"effectiveDateTime":"2022-12-25T00:00:00+00:00","valueQuantity":{"value":93.76,"unit":"kilogram","system":"http://unitsofmeasure.org","code":"kg"}}},{"fullUrl":"Observation/0ea79094-4522-4f94-9206-e9a7f3b2688a","resource":{"resourceType":"Observation","id":"0ea79094-4522-4f94-9206-e9a7f3b2688a","meta":{"profile":["http://hl7.org/fhir/us/core/StructureDefinition/us-core-body-weight"]},"status":"final","category":[{"coding":[{"system":"http://terminology.hl7.org/CodeSystem/observation-category","code":"vital-signs","display":"Vital Signs"}]}],"code":{"coding":[{"system":"http://loinc.org","code":"29463-7"}]},"subject":{"reference":"Patient/c382b55d-730d-445a-848a-0be4b6c0ce76"},"effectiveDateTime":"2022-09-15T00:00:00+00:00","valueQuantity":{"value":27.24,"unit":"kilogram","system":"http://unitsofmeasure.org","code":"kg"}}},{"fullUrl":"Observation/fbd58ec5-f0a5-437c-afd9-c41cd0934dcd","resource":{"resourceType":"Observation","id":"fbd58ec5-f0a5-437c-afd9-c41cd0934dcd","meta":{"profile":["http://hl7.org/fhir/us/core/StructureDefinition/us-core-body-temperature"]},"status":"final","category":[{"coding":[{"system":"http://terminology.hl7.org/CodeSystem/observation-category","code":"vital-signs","display":"Vital Signs"}]}],"code":{"coding":[{"system":"http://loinc.org","code":"8310-5"}]},"subject":{"reference":"Patient/c382b55d-730d-445a-848a-0be4b6c0ce76"},"effectiveDateTime":"2022-09-28T00:00:00+00:00","valueQuantity":{"value":148.5,"unit":"kilogram","system":"http://unitsofmeasure.org","code":"kg"}}},{"fullUrl":"Observation/bcfba8ed-59fa-4ae1-977f-f4551002dec8","resource":{"resourceType":"Observation","id":"bcfba8ed-59fa-4ae1-977f-f4551002dec8","meta":{"profile":["http://hl7.org/fhir/us/core/StructureDefinition/us-core-heart-rate"]},"status":"final","category":[{"coding":[{"system":"http://terminology.hl7.org/CodeSystem/observation-category","code":"vital-signs","display":"Vital Signs"}]}],"code":{"coding":[{"system":"http://loinc.org","code":"8867-4"}]},"subject":{"reference":"Patient/c382b55d-730d-445a-848a-0be4b6c0ce76"},"effectiveDateTime":"2022-06-24T00:00:00+00:00","valueQuantity":{"value":95.3,"unit":"Degrees Fahrenheit","system":"http://unitsofmeasure.org","code":"[degF]"}}},{"fullUrl":"Patient/16d6f784-c6e9-45b0-810e-29e96a1b336a","resource":{"resourceType":"Patient","id":"16d6f784-c6e9-45b0-810e-29e96a1b336a","meta":{"profile":["http://hl7.org/fhir/us/core/StructureDefinition/us-core-patient"]},"identifier":[{"type":{"coding":[{"system":"http://terminology.hl7.org/CodeSystem/v2-0203","code":"MR"}]},"system":"urn:fhirgen:mrn","value":"277-16-8324"}],"name":[{"family":"Cunningham","given":["Brian"]}],"telecom":[{"system":"phone","value":"001-262-156-3057x851"}],"gender":"male","birthDate":"1989-10-14","address":[{"line":["872 Julie Stream Suite 681"],"city":"Lake Stacychester","state":"Wisconsin","postalCode":"99677"}]}},{"fullUrl":"Observation/566af6dc-78eb-4191-ade0-f1b0a3771c2e","resource":{"resourceType":"Observation","id":"566af6dc-78eb-4191-ade0-f1b0a3771c2e","meta":{"profile":["http://hl7.org/fhir/us/core/StructureDefinition/us-core-observation-lab"]},"status":"final","category":[{"coding":[{"system":"http://terminology.hl7.org/CodeSystem/observation-category","code":"laboratory","display":"Laboratory"}]}],"code":{"coding":[{"system":"http://loinc.org","code":"5394-2"}]},"subject":{"reference":"Patient/16d6f784-c6e9-45b0-810e-29e96a1b336a"},"effectiveDateTime":"2022-11-27T00:00:00+00:00","valueRatio":{"numerator":{"value":1},"denominator":{"value":4}}}},{"fullUrl":"Observation/91ffbcb7-a85d-4958-bc57-7c1103b66c5e","resource":{"resourceType":"Observation","id":"91ffbcb7-a85d-4958-bc57-7c1103b66c5e","meta":{"profile":["http://hl7.org/fhir/us/core/StructureDefinition/us-core-observation-lab"]},"status":"final","category":[{"coding":[{"system":"http://terminology.hl7.org/CodeSystem/observation-category","code":"laboratory","display":"Laboratory"}]}],"code":{"coding":[{"system":"http://loinc.org","code":"51475-2"}]},"subject":{"reference":"Patient/16d6f784-c6e9-45b0-810e-29e96a1b336a"},"effectiveDateTime":"2022-04-22T00:00:00+00:00","valueRatio":{"numerator":{"value":1},"denominator":{"value":32}}}},{"fullUrl":"Condition/f247861c-4eed-474e-bb0d-0147161ee7d3","resource":{"resourceType":"Condition","id":"f247861c-4eed-474e-bb0d-0147161ee7d3","meta":{"profile":["http://hl7.org/fhir/us/core/StructureDefinition/us-core-condition"]},"clinicalStatus":{"coding":[{"system":"http://terminology.hl7.org/CodeSystem/condition-clinical","code":"active","display":"Active"}]},"category":[{"coding":[{"system":"http://terminology.hl7.org/CodeSystem/condition-ver-status","code":"confirmed"}]}],"code":{"coding":[{"system":"http://snomed.info/sct","code":"44882003"}]},"subject":{"reference":"Patient/16d6f784-c6e9-45b0-810e-29e96a1b336a"},"onsetDateTime":"2022-02-24T00:00:00+00:00"}},{"fullUrl":"Condition/1248e61f-9e57-44a6-942e-fba4b6cea01b","resource":{"resourceType":"Condition","id":"1248e61f-9e57-44a6-942e-fba4b6cea01b","meta":{"profile":["http://hl7.org/fhir/us/core/StructureDefinition/us-core-condition"]},"clinicalStatus":{"coding":[{"system":"http://terminology.hl7.org/CodeSystem/condition-clinical","code":"active","display":"Active"}]},"category":[{"coding":[{"system":"http://terminology.hl7.org/CodeSystem/condition-ver-status","code":"confirmed"}]}],"code":{"coding":[{"system":"http://snomed.info/sct","code":"91554004"}]},"subject":{"reference":"Patient/16d6f784-c6e9-45b0-810e-29e96a1b336a"},"onsetDateTime":"2022-05-30T00:00:00+00:00"}},{"fullUrl":"Condition/4470bdba-bdda-4cf6-9013-42ea2595c136","resource":{"resourceType":"Condition","id":"4470bdba-bdda-4cf6-9013-42ea2595c136","meta":{"profile":["http://hl7.org/fhir/us/core/StructureDefinition/us-core-condition"]},"clinicalStatus":{"coding":[{"system":"http://terminology.hl7.org/CodeSystem/condition-clinical","code":"active","display":"Active"}]},"category":[{"coding":[{"system":"http://terminology.hl7.org/CodeSystem/condition-ver-status","code":"confirmed"}]}],"code":{"coding":[{"system":"http://snomed.info/sct","code":"418290006"}]},"subject":{"reference":"Patient/16d6f784-c6e9-45b0-810e-29e96a1b336a"},"onsetDateTime":"2022-10-29T00:00:00+00:00"}},{"fullUrl":"Condition/6bbabeb8-43d8-443c-86d7-5b37c86d78e0","resource":{"resourceType":"Condition","id":"6bbabeb8-43d8-443c-86d7-5b37c86d78e0","meta":{"profile":["http://hl7.org/fhir/us/core/StructureDefinition/us-core-condition"]},"clinicalStatus":{"coding":[{"system":"http://terminology.hl7.org/CodeSystem/condition-clinical","code":"active","display":"Active"}]},"category":[{"coding":[{"system":"http://terminology.hl7.org/CodeSystem/condition-ver-status","code":"confirmed"}]}],"code":{"coding":[{"system":"http://snomed.info/sct","code":"418290006"}]},"subject":{"reference":"Patient/16d6f784-c6e9-45b0-810e-29e96a1b336a"},"onsetDateTime":"2022-03-05T00:00:00+00:00"}},{"fullUrl":"Observation/f8e48193-1f60-42c1-a8fc-1ba207109f09","resource":{"resourceType":"Observation","id":"f8e48193-1f60-42c1-a8fc-1ba207109f09","meta":{"profile":["http://hl7.org/fhir/us/core/StructureDefinition/us-core-observation-lab"]},"status":"final","category":[{"coding":[{"system":"http://terminology.hl7.org/CodeSystem/observation-category","code":"laboratory","display":"Laboratory"}]}],"code":{"coding":[{"system":"http://loinc.org","code":"6690-2"}]},"subject":{"reference":"Patient/16d6f784-c6e9-45b0-810e-29e96a1b336a"},"effectiveDateTime":"2022-10-01T00:00:00+00:00","valueQuantity":{"value":10.1}}},{"fullUrl":"Observation/419c45ef-c9bf-4be8-8503-1293153ce6a6","resource":{"resourceType":"Observation","id":"419c45ef-c9bf-4be8-8503-1293153ce6a6","meta":{"profile":["http://hl7.org/fhir/us/core/StructureDefinition/us-core-observation-lab"]},"status":"final","category":[{"coding":[{"system":"http://terminology.hl7.org/CodeSystem/observation-category","code":"laboratory","display":"Laboratory"}]}],"code":{"coding":[{"system":"http://www.ama-assn.org/go/cpt","code":"85048"}]},"subject":{"reference":"Patient/16d6f784-c6e9-45b0-810e-29e96a1b336a"},"effectiveDateTime":"2022-12-10T00:00:00+00:00","valueQuantity":{"value":8.7}}},{"fullUrl":"Observation/45ec59de-9f0a-4a75-ba0a-7ff1bc044d23","resource":{"resourceType":"Observation","id":"45ec59de-9f0a-4a75-ba0a-7ff1bc044d23","meta":{"profile":["http://hl7.org/fhir/us/core/StructureDefinition/us-core-observation-lab"]},"status":"final","category":[{"coding":[{"system":"http://terminology.hl7.org/CodeSystem/observation-category","code":"laboratory","display":"Laboratory"}]}],"code":{"coding":[{"system":"http://loinc.org","code":"26464-8"}]},"subject":{"reference":"Patient/16d6f784-c6e9-45b0-810e-29e96a1b336a"},"effectiveDateTime":"2022-11-05T00:00:00+00:00","valueQuantity":{"value":10.3}}},{"fullUrl":"Observation/2915c922-da74-4d6f-82b5-781128484ea3","resource":{"resourceType":"Observation","id":"2915c922-da74-4d6f-82b5-781128484ea3","meta":{"profile":["http://hl7.org/fhir/us/core/StructureDefinition/us-core-bmi"]},"status":"final","category":[{"coding":[{"system":"http://terminology.hl7.org/CodeSystem/observation-category","code":"vital-signs","display":"Vital Signs"}]}],"code":{"coding":[{"system":"http://loinc.org","code":"39156-5"}]},"subject":{"reference":"Patient/16d6f784-c6e9-45b0-810e-29e96a1b336a"},"effectiveDateTime":"2022-04-28T00:00:00+00:00","valueQuantity":{"value":28.79,"unit":"kg/m2","system":"http://unitsofmeasure.org","code":"kg/m2"}}},{"fullUrl":"Observation/508e75da-3056-4b7c-95ca-94c96c48eb73","resource":{"resourceType":"Observation","id":"508e75da-3056-4b7c-95ca-94c96c48eb73","meta":{"profile":["http://hl7.org/fhir/us/core/StructureDefinition/us-core-bmi"]},"status":"final","category":[{"coding":[{"system":"http://terminology.hl7.org/CodeSystem/observation-category","code":"vital-signs","display":"Vital Signs"}]}],"code":{"coding":[{"system":"http://loinc.org","code":"39156-5"}]},"subject":{"reference":"Patient/16d6f784-c6e9-45b0-810e-29e96a1b336a"},"effectiveDateTime":"2022-03-20T00:00:00+00:00","valueQuantity":{"value":27.33,"unit":"kg/m2","system":"http://unitsofmeasure.org","code":"kg/m2"}}},{"fullUrl":"Observation/eaba6be2-8aae-44e9-8202-115eb2b5a5c0","resource":{"resourceType":"Observation","id":"eaba6be2-8aae-44e9-8202-115eb2b5a5c0","meta":{"profile":["http://hl7.org/fhir/us/core/StructureDefinition/us-core-head-circumference"]},"status":"final","category":[{"coding":[{"system":"http://terminology.hl7.org/CodeSystem/observation-category","code":"vital-signs","display":"Vital Signs"}]}],"code":{"coding":[{"system":"http://loinc.org","code":"9843-4"}]},"subject":{"reference":"Patient/16d6f784-c6e9-45b0-810e-29e96a1b336a"},"effectiveDateTime":"2022-10-05T00:00:00+00:00","valueQuantity":{"value":6.2,"unit":"Inch","system":"http://unitsofmeasure.org","code":"[in_i]"}}},{"fullUrl":"Observation/e8e3a87a-fc6a-4e04-892b-6e7f6a6d90d8","resource":{"resourceType":"Observation","id":"e8e3a87a-fc6a-4e04-892b-6e7f6a6d90d8","meta":{"profile":["http://hl7.org/fhir/us/core/StructureDefinition/us-core-head-circumference"]},"status":"final","category":[{"coding":[{"system":"http://terminology.hl7.org/CodeSystem/observation-category","code":"vital-signs","display":"Vital Signs"}]}],"code":{"coding":[{"system":"http://loinc.org","code":"9843-4"}]},"subject":{"reference":"Patient/16d6f784-c6e9-45b0-810e-29e96a1b336a"},"effectiveDateTime":"2022-02-09T00:00:00+00:00","valueQuantity":{"value":1.4,"unit":"Inch","system":"http://unitsofmeasure.org","code":"[in_i]"}}},{"fullUrl":"Observation/e3dafc65-d917-4300-94df-282b2f8e3e31","resource":{"resourceType":"Observation","id":"e3dafc65-d917-4300-94df-282b2f8e3e31","meta":{"profile":["http://hl7.org/fhir/us/core/StructureDefinition/us-core-body-height"]},"status":"final","category":[{"coding":[{"system":"http://terminology.hl7.org/CodeSystem/observation-category","code":"vital-signs","display":"Vital Signs"}]}],"code":{"coding":[{"system":"http://loinc.org","code":"8302-2"}]},"subject":{"reference":"Patient/16d6f784-c6e9-45b0-810e-29e96a1b336a"},"effectiveDateTime":"2022-02-06T00:00:00+00:00","valueQuantity":{"value":82.6,"unit":"Inch","system":"http://unitsofmeasure.org","code":"[in_i]"}}},{"fullUrl":"Observation/a78e52b5-375a-4c28-8435-3944fdb2f807","resource":{"resourceType":"Observation","id":"a78e52b5-375a-4c28-8435-3944fdb2f807","meta":{"profile":["http://hl7.org/fhir/us/core/StructureDefinition/us-core-body-height"]},"status":"final","category":[{"coding":[{"system":"http://terminology.hl7.org/CodeSystem/observation-category","code":"vital-signs","display":"Vital Signs"}]}],"code":{"coding":[{"system":"http://loinc.org","code":"8302-2"}]},"subject":{"reference":"Patient/16d6f784-c6e9-45b0-810e-29e96a1b336a"},"effectiveDateTime":"2022-11-30T00:00:00+00:00","valueQuantity":{"value":74.4,"unit":"Inch","system":"http://unitsofmeasure.org","code":"[in_i]"}}},{"fullUrl":"Observation/0ad367a9-220d-4fd0-a841-19e8b0444ef9","resource":{"resourceType":"Observation","id":"0ad367a9-220d-4fd0-a841-19e8b0444ef9","meta":{"profile":["http://hl7.org/fhir/us/core/StructureDefinition/us-core-body-weight"]},"status":"final","category":[{"coding":[{"system":"http://terminology.hl7.org/CodeSystem/observation-category","code":"vital-signs","display":"Vital Signs"}]}],"code":{"coding":[{"system":"http://loinc.org","code":"29463-7"}]},"subject":{"reference":"Patient/16d6f784-c6e9-45b0-810e-29e96a1b336a"},"effectiveDateTime":"2022-08-12T00:00:00+00:00","valueQuantity":{"value":34.9,"unit":"kilogram","system":"http://unitsofmeasure.org","code":"kg"}}},{"fullUrl":"Observation/58f47b80-f73d-4475-9c3e-76df2113c68e","resource":{"resourceType":"Observation","id":"58f47b80-f73d-4475-9c3e-76df2113c68e","meta":{"profile":["http://hl7.org/fhir/us/core/StructureDefinition/us-core-body-temperature"]},"status":"final","category":[{"coding":[{"system":"http://terminology.hl7.org/CodeSystem/observation-category","code":"vital-signs","display":"Vital Signs"}]}],"code":{"coding":[{"system":"http://loinc.org","code":"8310-5"}]},"subject":{"reference":"Patient/16d6f784-c6e9-45b0-810e-29e96a1b336a"},"effectiveDateTime":"2022-11-16T00:00:00+00:00","valueQuantity":{"value":122.64,"unit":"kilogram","system":"http://unitsofmeasure.org","code":"kg"}}},{"fullUrl":"Observation/cb6d9f35-04af-46b9-ab6c-ab690697c278","resource":{"resourceType":"Observation","id":"cb6d9f35-04af-46b9-ab6c-ab690697c278","meta":{"profile":["http://hl7.org/fhir/us/core/StructureDefinition/us-core-body-temperature"]},"status":"final","category":[{"coding":[{"system":"http://terminology.hl7.org/CodeSystem/observation-category","code":"vital-signs","display":"Vital Signs"}]}],"code":{"coding":[{"system":"http://loinc.org","code":"8310-5"}]},"subject":{"reference":"Patient/16d6f784-c6e9-45b0-810e-29e96a1b336a"},"effectiveDateTime":"2022-09-20T00:00:00+00:00","valueQuantity":{"value":89.21,"unit":"kilogram","system":"http://unitsofmeasure.org","code":"kg"}}},{"fullUrl":"Observation/024fecdf-14ea-4649-832d-f70b2e682944","resource":{"resourceType":"Observation","id":"024fecdf-14ea-4649-832d-f70b2e682944","meta":{"profile":["http://hl7.org/fhir/us/core/StructureDefinition/us-core-heart-rate"]},"status":"final","category":[{"coding":[{"system":"http://terminology.hl7.org/CodeSystem/observation-category","code":"vital-signs","display":"Vital Signs"}]}],"code":{"coding":[{"system":"http://loinc.org","code":"8867-4"}]},"subject":{"reference":"Patient/16d6f784-c6e9-45b0-810e-29e96a1b336a"},"effectiveDateTime":"2022-09-30T00:00:00+00:00","valueQuantity":{"value":97.2,"unit":"Degrees Fahrenheit","system":"http://unitsofmeasure.org","code":"[degF]"}}},{"fullUrl":"Patient/22613501-017a-4ce3-9690-ac2fccf7196c","resource":{"resourceType":"Patient","id":"22613501-017a-4ce3-9690-ac2fccf7196c","meta":{"profile":["http://hl7.org/fhir/us/core/StructureDefinition/us-core-patient"]},"identifier":[{"type":{"coding":[{"system":"http://terminology.hl7.org/CodeSystem/v2-0203","code":"MR"}]},"system":"urn:fhirgen:mrn","value":"255-43-5322"}],"name":[{"family":"Cook","given":["Shannon"]}],"telecom":[{"system":"phone","value":"488.152.9366x11186"}],"gender":"female","birthDate":"1962-04-01","address":[{"line":["155 Molina Islands Suite 787"],"city":"Antonioland","state":"North Dakota","postalCode":"18454"}]}},{"fullUrl":"Observation/e897d3e2-c312-467f-92ea-1201c848c6a8","resource":{"resourceType":"Observation","id":"e897d3e2-c312-467f-92ea-1201c848c6a8","meta":{"profile":["http://hl7.org/fhir/us/core/StructureDefinition/us-core-observation-lab"]},"status":"final","category":[{"coding":[{"system":"http://terminology.hl7.org/CodeSystem/observation-category","code":"laboratory","display":"Laboratory"}]}],"code":{"coding":[{"system":"http://loinc.org","code":"26009-1"}]},"subject":{"reference":"Patient/22613501-017a-4ce3-9690-ac2fccf7196c"},"effectiveDateTime":"2022-06-28T00:00:00+00:00","valueRatio":{"numerator":{"value":1},"denominator":{"value":4}}}},{"fullUrl":"Observation/0a9cbddd-eba9-442b-a118-2e54afb6e086","resource":{"resourceType":"Observation","id":"0a9cbddd-eba9-442b-a118-2e54afb6e086","meta":{"profile":["http://hl7.org/fhir/us/core/StructureDefinition/us-core-observation-lab"]},"status":"final","category":[{"coding":[{"system":"http://terminology.hl7.org/CodeSystem/observation-category","code":"laboratory","display":"Laboratory"}]}],"code":{"coding":[{"system":"http://loinc.org","code":"22590-4"}]},"subject":{"reference":"Patient/22613501-017a-4ce3-9690-ac2fccf7196c"},"effectiveDateTime":"2022-08-12T00:00:00+00:00","valueRatio":{"numerator":{"value":1},"denominator":{"value":32}}}},{"fullUrl":"Condition/1f567d64-0a30-47e0-8038-79eac2c8d2fa","resource":{"resourceType":"Condition","id":"1f567d64-0a30-47e0-8038-79eac2c8d2fa","meta":{"profile":["http://hl7.org/fhir/us/core/StructureDefinition/us-core-condition"]},"clinicalStatus":{"coding":[{"system":"http://terminology.hl7.org/CodeSystem/condition-clinical","code":"active","display":"Active"}]},"category":[{"coding":[{"system":"http://terminology.hl7.org/CodeSystem/condition-ver-status","code":"confirmed"}]}],"code":{"coding":[{"system":"http://snomed.info/sct","code":"44882003"}]},"subject":{"reference":"Patient/22613501-017a-4ce3-9690-ac2fccf7196c"},"onsetDateTime":"2022-07-19T00:00:00+00:00"}},{"fullUrl":"Condition/25a8e005-5548-4247-b5fe-6f649e43b6ee","resource":{"resourceType":"Condition","id":"25a8e005-5548-4247-b5fe-6f649e43b6ee","meta":{"profile":["http://hl7.org/fhir/us/core/StructureDefinition/us-core-condition"]},"clinicalStatus":{"coding":[{"system":"http://terminology.hl7.org/CodeSystem/condition-clinical","code":"active","display":"Active"}]},"category":[{"coding":[{"system":"http://terminology.hl7.org/CodeSystem/condition-ver-status","code":"confirmed"}]}],"code":{"coding":[{"system":"http://snomed.info/sct","code":"709977002"}]},"subject":{"reference":"Patient/22613501-017a-4ce3-9690-ac2fccf7196c"},"onsetDateTime":"2022-01-30T00:00:00+00:00"}},{"fullUrl":"Condition/a82ef30a-6a31-4ca0-8242-364d37bfeb50","resource":{"resourceType":"Condition","id":"a82ef30a-6a31-4ca0-8242-364d37bfeb50","meta":{"profile":["http://hl7.org/fhir/us/core/StructureDefinition/us-core-condition"]},"clinicalStatus":{"coding":[{"system":"http://terminology.hl7.org/CodeSystem/condition-clinical","code":"active","display":"Active"}]},"category":[{"coding":[{"system":"http://terminology.hl7.org/CodeSystem/condition-ver-status","code":"confirmed"}]}],"code":{"coding":[{"system":"http://snomed.info/sct","code":"709977002"}]},"subject":{"reference":"Patient/22613501-017a-4ce3-9690-ac2fccf7196c"},"onsetDateTime":"2022-03-02T00:00:00+00:00"}},{"fullUrl":"Condition/eb757219-8083-48ee-81f8-4ec556a05f15","resource":{"resourceType":"Condition","id":"eb757219-8083-48ee-81f8-4ec556a05f15","meta":{"profile":["http://hl7.org/fhir/us/core/StructureDefinition/us-core-condition"]},"clinicalStatus":{"coding":[{"system":"http://terminology.hl7.org/CodeSystem/condition-clinical","code":"active","display":"Active"}]},"category":[{"coding":[{"system":"http://terminology.hl7.org/CodeSystem/condition-ver-status","code":"confirmed"}]}],"code":{"coding":[{"system":"http://snomed.info/sct","code":"709977002"}]},"subject":{"reference":"Patient/22613501-017a-4ce3-9690-ac2fccf7196c"},"onsetDateTime":"2022-04-28T00:00:00+00:00"}},{"fullUrl":"Observation/57b9c6c6-8a3a-477d-82ef-0e4b62382166","resource":{"resourceType":"Observation","id":"57b9c6c6-8a3a-477d-82ef-0e4b62382166","meta":{"profile":["http://hl7.org/fhir/us/core/StructureDefinition/us-core-observation-lab"]},"status":"final","category":[{"coding":[{"system":"http://terminology.hl7.org/CodeSystem/observation-category","code":"laboratory","display":"Laboratory"}]}],"code":{"coding":[{"system":"http://loinc.org","code":"804-5"}]},"subject":{"reference":"Patient/22613501-017a-4ce3-9690-ac2fccf7196c"},"effectiveDateTime":"2022-10-29T00:00:00+00:00","valueQuantity":{"value":5.2}}},{"fullUrl":"Observation/4cfc3dcd-2ca5-46b7-8427-3017b18cd58a","resource":{"resourceType":"Observation","id":"4cfc3dcd-2ca5-46b7-8427-3017b18cd58a","meta":{"profile":["http://hl7.org/fhir/us/core/StructureDefinition/us-core-observation-lab"]},"status":"final","category":[{"coding":[{"system":"http://terminology.hl7.org/CodeSystem/observation-category","code":"laboratory","display":"Laboratory"}]}],"code":{"coding":[{"system":"http://loinc.org","code":"6690-2"}]},"subject":{"reference":"Patient/22613501-017a-4ce3-9690-ac2fccf7196c"},"effectiveDateTime":"2022-05-14T00:00:00+00:00","valueQuantity":{"value":8.2}}},{"fullUrl":"Observation/1bd5d9fe-069b-40c5-a0b7-f3de4c3def4c","resource":{"resourceType":"Observation","id":"1bd5d9fe-069b-40c5-a0b7-f3de4c3def4c","meta":{"profile":["http://hl7.org/fhir/us/core/StructureDefinition/us-core-observation-lab"]},"status":"final","category":[{"coding":[{"system":"http://terminology.hl7.org/CodeSystem/observation-category","code":"laboratory","display":"Laboratory"}]}],"code":{"coding":[{"system":"http://loinc.org","code":"49498-9"}]},"subject":{"reference":"Patient/22613501-017a-4ce3-9690-ac2fccf7196c"},"effectiveDateTime":"2022-09-08T00:00:00+00:00","valueQuantity":{"value":9.4}}},{"fullUrl":"Observation/4dc2dc48-374a-4156-aea7-d28627c02016","resource":{"resourceType":"Observation","id":"4dc2dc48-374a-4156-aea7-d28627c02016","meta":{"profile":["http://hl7.org/fhir/us/core/StructureDefinition/us-core-bmi"]},"status":"final","category":[{"coding":[{"system":"http://terminology.hl7.org/CodeSystem/observation-category","code":"vital-signs","display":"Vital Signs"}]}],"code":{"coding":[{"system":"http://loinc.org","code":"39156-5"}]},"subject":{"reference":"Patient/22613501-017a-4ce3-9690-ac2fccf7196c"},"effectiveDateTime":"2022-05-03T00:00:00+00:00","valueQuantity":{"value":13.91,"unit":"kg/m2","system":"http://unitsofmeasure.org","code":"kg/m2"}}},{"fullUrl":"Observation/2a181b9a-a49d-4560-92aa-98f5c2444f43","resource":{"resourceType":"Observation","id":"2a181b9a-a49d-4560-92aa-98f5c2444f43","meta":{"profile":["http://hl7.org/fhir/us/core/StructureDefinition/us-core-head-circumference"]},"status":"final","category":[{"coding":[{"system":"http://terminology.hl7.org/CodeSystem/observation-category","code":"vital-signs","display":"Vital Signs"}]}],"code":{"coding":[{"system":"http://loinc.org","code":"9843-4"}]},"subject":{"reference":"Patient/22613501-017a-4ce3-9690-ac2fccf7196c"},"effectiveDateTime":"2022-03-14T00:00:00+00:00","valueQuantity":{"value":2.8,"unit":"Inch","system":"http://unitsofmeasure.org","code":"[in_i]"}}},{"fullUrl":"Observation/4237bf8f-4913-49af-bfa4-ff5aeb98088a","resource":{"resourceType":"Observation","id":"4237bf8f-4913-49af-bfa4-ff5aeb98088a","meta":{"profile":["http://hl7.org/fhir/us/core/StructureDefinition/us-core-body-height"]},"status":"final","category":[{"coding":[{"system":"http://terminology.hl7.org/CodeSystem/observation-category","code":"vital-signs","display":"Vital Signs"}]}],"code":{"coding":[{"system":"http://loinc.org","code":"8302-2"}]},"subject":{"reference":"Patient/22613501-017a-4ce3-9690-ac2fccf7196c"},"effectiveDateTime":"2022-03-03T00:00:00+00:00","valueQuantity":{"value":72.6,"unit":"Inch","system":"http://unitsofmeasure.org","code":"[in_i]"}}},{"fullUrl":"Observation/7cb92e3f-f00e-4614-9b6b-392c2de151e7","resource":{"resourceType":"Observation","id":"7cb92e3f-f00e-4614-9b6b-392c2de151e7","meta":{"profile":["http://hl7.org/fhir/us/core/StructureDefinition/us-core-body-weight"]},"status":"final","category":[{"coding":[{"system":"http://terminology.hl7.org/CodeSystem/observation-category","code":"vital-signs","display":"Vital Signs"}]}],"code":{"coding":[{"system":"http://loinc.org","code":"29463-7"}]},"subject":{"reference":"Patient/22613501-017a-4ce3-9690-ac2fccf7196c"},"effectiveDateTime":"2022-12-22T00:00:00+00:00","valueQuantity":{"value":23.4,"unit":"kilogram","system":"http://unitsofmeasure.org","code":"kg"}}},{"fullUrl":"Observation/1b085b07-9f5c-47ac-a368-54cc5829a97d","resource":{"resourceType":"Observation","id":"1b085b07-9f5c-47ac-a368-54cc5829a97d","meta":{"profile":["http://hl7.org/fhir/us/core/StructureDefinition/us-core-body-temperature"]},"status":"final","category":[{"coding":[{"system":"http://terminology.hl7.org/CodeSystem/observation-category","code":"vital-signs","display":"Vital Signs"}]}],"code":{"coding":[{"system":"http://loinc.org","code":"8310-5"}]},"subject":{"reference":"Patient/22613501-017a-4ce3-9690-ac2fccf7196c"},"effectiveDateTime":"2022-09-28T00:00:00+00:00","valueQuantity":{"value":125.54,"unit":"kilogram","system":"http://unitsofmeasure.org","code":"kg"}}},{"fullUrl":"Observation/f0e2a81b-0887-4014-b985-e9bbb9d453a3","resource":{"resourceType":"Observation","id":"f0e2a81b-0887-4014-b985-e9bbb9d453a3","meta":{"profile":["http://hl7.org/fhir/us/core/StructureDefinition/us-core-heart-rate"]},"status":"final","category":[{"coding":[{"system":"http://terminology.hl7.org/CodeSystem/observation-category","code":"vital-signs","display":"Vital Signs"}]}],"code":{"coding":[{"system":"http://loinc.org","code":"8867-4"}]},"subject":{"reference":"Patient/22613501-017a-4ce3-9690-ac2fccf7196c"},"effectiveDateTime":"2022-01-11T00:00:00+00:00","valueQuantity":{"value":100.2,"unit":"Degrees Fahrenheit","system":"http://unitsofmeasure.org","code":"[degF]"}}},{"fullUrl":"Patient/a887a569-af0a-4b74-966b-555969da4ada","resource":{"resourceType":"Patient","id":"a887a569-af0a-4b74-966b-555969da4ada","meta":{"profile":["http://hl7.org/fhir/us/core/StructureDefinition/us-core-patient"]},"identifier":[{"type":{"coding":[{"system":"http://terminology.hl7.org/CodeSystem/v2-0203","code":"MR"}]},"system":"urn:fhirgen:mrn","value":"687-16-4185"}],"name":[{"family":"Barrett","given":["Erin"]}],"telecom":[{"system":"phone","value":"+1-461-536-1813x3680"}],"gender":"female","birthDate":"1946-06-17","address":[{"line":["5038 Taylor Branch Suite 757"],"city":"Susanhaven","state":"Illinois","postalCode":"14945"}]}},{"fullUrl":"Observation/58fcb073-2eef-4099-9acc-b7509e914ee2","resource":{"resourceType":"Observation","id":"58fcb073-2eef-4099-9acc-b7509e914ee2","meta":{"profile":["http://hl7.org/fhir/us/core/StructureDefinition/us-core-observation-lab"]},"status":"final","category":[{"coding":[{"system":"http://terminology.hl7.org/CodeSystem/observation-category","code":"laboratory","display":"Laboratory"}]}],"code":{"coding":[{"system":"http://loinc.org","code":"47476-7"}]},"subject":{"reference":"Patient/a887a569-af0a-4b74-966b-555969da4ada"},"effectiveDateTime":"2022-03-29T00:00:00+00:00","valueRatio":{"numerator":{"value":1},"denominator":{"value":4}}}},{"fullUrl":"Observation/60aa62ab-472a-4cf3-8a1c-e3b522d77fb9","resource":{"resourceType":"Observation","id":"60aa62ab-472a-4cf3-8a1c-e3b522d77fb9","meta":{"profile":["http://hl7.org/fhir/us/core/StructureDefinition/us-core-observation-lab"]},"status":"final","category":[{"coding":[{"system":"http://terminology.hl7.org/CodeSystem/observation-category","code":"laboratory","display":"Laboratory"}]}],"code":{"coding":[{"system":"http://loinc.org","code":"34382-2"}]},"subject":{"reference":"Patient/a887a569-af0a-4b74-966b-555969da4ada"},"effectiveDateTime":"2022-10-20T00:00:00+00:00","valueRatio":{"numerator":{"value":1},"denominator":{"value":32}}}},{"fullUrl":"Observation/1cf9692e-9fb2-4f15-9fe8-d89982cef205","resource":{"resourceType":"Observation","id":"1cf9692e-9fb2-4f15-9fe8-d89982cef205","meta":{"profile":["http://hl7.org/fhir/us/core/StructureDefinition/us-core-observation-lab"]},"status":"final","category":[{"coding":[{"system":"http://terminology.hl7.org/CodeSystem/observation-category","code":"laboratory","display":"Laboratory"}]}],"code":{"coding":[{"system":"http://loinc.org","code":"47476-7"}]},"subject":{"reference":"Patient/a887a569-af0a-4b74-966b-555969da4ada"},"effectiveDateTime":"2022-12-02T00:00:00+00:00","valueRatio":{"numerator":{"value":1},"denominator":{"value":64}}}},{"fullUrl":"Condition/3c0fdd9b-58b3-45ba-bdaa-dcc49be94af7","resource":{"resourceType":"Condition","id":"3c0fdd9b-58b3-45ba-bdaa-dcc49be94af7","meta":{"profile":["http://hl7.org/fhir/us/core/StructureDefinition/us-core-condition"]},"clinicalStatus":{"coding":[{"system":"http://terminology.hl7.org/CodeSystem/condition-clinical","code":"active","display":"Active"}]},"category":[{"coding":[{"system":"http://terminology.hl7.org/CodeSystem/condition-ver-status","code":"confirmed"}]}],"code":{"coding":[{"system":"http://snomed.info/sct","code":"91554004"}]},"subject":{"reference":"Patient/a887a569-af0a-4b74-966b-555969da4ada"},"onsetDateTime":"2022-07-31T00:00:00+00:00"}},{"fullUrl":"Condition/638999a3-e6e8-451e-9f21-c75e40f90c68","resource":{"resourceType":"Condition","id":"638999a3-e6e8-451e-9f21-c75e40f90c68","meta":{"profile":["http://hl7.org/fhir/us/core/StructureDefinition/us-core-condition"]},"clinicalStatus":{"coding":[{"system":"http://terminology.hl7.org/CodeSystem/condition-clinical","code":"active","display":"Active"}]},"category":[{"coding":[{"system":"http://terminology.hl7.org/CodeSystem/condition-ver-status","code":"confirmed"}]}],"code":{"coding":[{"system":"http://snomed.info/sct","code":"418290006"}]},"subject":{"reference":"Patient/a887a569-af0a-4b74-966b-555969da4ada"},"onsetDateTime":"2022-11-08T00:00:00+00:00"}},{"fullUrl":"Condition/ae1fcbf2-34d3-4c6d-b31a-d2dc3f52f0b1","resource":{"resourceType":"Condition","id":"ae1fcbf2-34d3-4c6d-b31a-d2dc3f52f0b1","meta":{"profile":["http://hl7.org/fhir/us/core/StructureDefinition/us-core-condition"]},"clinicalStatus":{"coding":[{"system":"http://terminology.hl7.org/CodeSystem/condition-clinical","code":"active","display":"Active"}]},"category":[{"coding":[{"system":"http://terminology.hl7.org/CodeSystem/condition-ver-status","code":"confirmed"}]}],"code":{"coding":[{"system":"http://snomed.info/sct","code":"44882003"}]},"subject":{"reference":"Patient/a887a569-af0a-4b74-966b-555969da4ada"},"onsetDateTime":"2022-06-11T00:00:00+00:00"}},{"fullUrl":"Observation/994cca37-dc41-46e6-b3d8-3d829404713e","resource":{"resourceType":"Observation","id":"994cca37-dc41-46e6-b3d8-3d829404713e","meta":{"profile":["http://hl7.org/fhir/us/core/StructureDefinition/us-core-observation-lab"]},"status":"final","category":[{"coding":[{"system":"http://terminology.hl7.org/CodeSystem/observation-category","code":"laboratory","display":"Laboratory"}]}],"code":{"coding":[{"system":"http://loinc.org","code":"49498-9"}]},"subject":{"reference":"Patient/a887a569-af0a-4b74-966b-555969da4ada"},"effectiveDateTime":"2022-07-10T00:00:00+00:00","valueQuantity":{"value":5.2}}},{"fullUrl":"Observation/422cbc10-f96b-4561-8662-a4813fe2db6c","resource":{"resourceType":"Observation","id":"422cbc10-f96b-4561-8662-a4813fe2db6c","meta":{"profile":["http://hl7.org/fhir/us/core/StructureDefinition/us-core-observation-lab"]},"status":"final","category":[{"coding":[{"system":"http://terminology.hl7.org/CodeSystem/observation-category","code":"laboratory","display":"Laboratory"}]}],"code":{"coding":[{"system":"http://www.ama-assn.org/go/cpt","code":"85048"}]},"subject":{"reference":"Patient/a887a569-af0a-4b74-966b-555969da4ada"},"effectiveDateTime":"2022-08-30T00:00:00+00:00","valueQuantity":{"value":5.8}}},{"fullUrl":"Observation/c02752c9-3186-4feb-b4d7-bc1e95210296","resource":{"resourceType":"Observation","id":"c02752c9-3186-4feb-b4d7-bc1e95210296","meta":{"profile":["http://hl7.org/fhir/us/core/StructureDefinition/us-core-observation-lab"]},"status":"final","category":[{"coding":[{"system":"http://terminology.hl7.org/CodeSystem/observation-category","code":"laboratory","display":"Laboratory"}]}],"code":{"coding":[{"system":"http://loinc.org","code":"804-5"}]},"subject":{"reference":"Patient/a887a569-af0a-4b74-966b-555969da4ada"},"effectiveDateTime":"2022-08-04T00:00:00+00:00","valueQuantity":{"value":4}}},{"fullUrl":"Observation/eb8e61ae-229a-428c-82ea-2efda2592f38","resource":{"resourceType":"Observation","id":"eb8e61ae-229a-428c-82ea-2efda2592f38","meta":{"profile":["http://hl7.org/fhir/us/core/StructureDefinition/us-core-bmi"]},"status":"final","category":[{"coding":[{"system":"http://terminology.hl7.org/CodeSystem/observation-category","code":"vital-signs","display":"Vital Signs"}]}],"code":{"coding":[{"system":"http://loinc.org","code":"39156-5"}]},"subject":{"reference":"Patient/a887a569-af0a-4b74-966b-555969da4ada"},"effectiveDateTime":"2022-10-01T00:00:00+00:00","valueQuantity":{"value":25.53,"unit":"kg/m2","system":"http://unitsofmeasure.org","code":"kg/m2"}}},{"fullUrl":"Observation/4bdbd3ab-66de-488e-aa3f-f540e2b02763","resource":{"resourceType":"Observation","id":"4bdbd3ab-66de-488e-aa3f-f540e2b02763","meta":{"profile":["http://hl7.org/fhir/us/core/StructureDefinition/us-core-bmi"]},"status":"final","category":[{"coding":[{"system":"http://terminology.hl7.org/CodeSystem/observation-category","code":"vital-signs","display":"Vital Signs"}]}],"code":{"coding":[{"system":"http://loinc.org","code":"39156-5"}]},"subject":{"reference":"Patient/a887a569-af0a-4b74-966b-555969da4ada"},"effectiveDateTime":"2022-12-17T00:00:00+00:00","valueQuantity":{"value":23.43,"unit":"kg/m2","system":"http://unitsofmeasure.org","code":"kg/m2"}}},{"fullUrl":"Observation/9660f8cf-6062-4360-8271-10c530723ed7","resource":{"resourceType":"Observation","id":"9660f8cf-6062-4360-8271-10c530723ed7","meta":{"profile":["http://hl7.org/fhir/us/core/StructureDefinition/us-core-head-circumference"]},"status":"final","category":[{"coding":[{"system":"http://terminology.hl7.org/CodeSystem/observation-category","code":"vital-signs","display":"Vital Signs"}]}],"code":{"coding":[{"system":"http://loinc.org","code":"9843-4"}]},"subject":{"reference":"Patient/a887a569-af0a-4b74-966b-555969da4ada"},"effectiveDateTime":"2022-01-18T00:00:00+00:00","valueQuantity":{"value":7.5,"unit":"Inch","system":"http://unitsofmeasure.org","code":"[in_i]"}}},{"fullUrl":"Observation/fd6d0b58-79a1-4fb1-8d3c-b6a76c25ed03","resource":{"resourceType":"Observation","id":"fd6d0b58-79a1-4fb1-8d3c-b6a76c25ed03","meta":{"profile":["http://hl7.org/fhir/us/core/StructureDefinition/us-core-head-circumference"]},"status":"final","category":[{"coding":[{"system":"http://terminology.hl7.org/CodeSystem/observation-category","code":"vital-signs","display":"Vital Signs"}]}],"code":{"coding":[{"system":"http://loinc.org","code":"9843-4"}]},"subject":{"reference":"Patient/a887a569-af0a-4b74-966b-555969da4ada"},"effectiveDateTime":"2022-06-17T00:00:00+00:00","valueQuantity":{"value":4.5,"unit":"Inch","system":"http://unitsofmeasure.org","code":"[in_i]"}}},{"fullUrl":"Observation/30e7f598-ea79-4e04-a148-cd2d9ddafda9","resource":{"resourceType":"Observation","id":"30e7f598-ea79-4e04-a148-cd2d9ddafda9","meta":{"profile":["http://hl7.org/fhir/us/core/StructureDefinition/us-core-body-height"]},"status":"final","category":[{"coding":[{"system":"http://terminology.hl7.org/CodeSystem/observation-category","code":"vital-signs","display":"Vital Signs"}]}],"code":{"coding":[{"system":"http://loinc.org","code":"8302-2"}]},"subject":{"reference":"Patient/a887a569-af0a-4b74-966b-555969da4ada"},"effectiveDateTime":"2022-12-29T00:00:00+00:00","valueQuantity":{"value":68.7,"unit":"Inch","system":"http://unitsofmeasure.org","code":"[in_i]"}}},{"fullUrl":"Observation/158e6fae-ba38-4917-b6a3-ef490cc6e22c","resource":{"resourceType":"Observation","id":"158e6fae-ba38-4917-b6a3-ef490cc6e22c","meta":{"profile":["http://hl7.org/fhir/us/core/StructureDefinition/us-core-body-weight"]},"status":"final","category":[{"coding":[{"system":"http://terminology.hl7.org/CodeSystem/observation-category","code":"vital-signs","display":"Vital Signs"}]}],"code":{"coding":[{"system":"http://loinc.org","code":"29463-7"}]},"subject":{"reference":"Patient/a887a569-af0a-4b74-966b-555969da4ada"},"effectiveDateTime":"2022-12-14T00:00:00+00:00","valueQuantity":{"value":36.32,"unit":"kilogram","system":"http://unitsofmeasure.org","code":"kg"}}},{"fullUrl":"Observation/a74d2cc2-0170-4995-b20c-d67e6c42592f","resource":{"resourceType":"Observation","id":"a74d2cc2-0170-4995-b20c-d67e6c42592f","meta":{"profile":["http://hl7.org/fhir/us/core/StructureDefinition/us-core-body-weight"]},"status":"final","category":[{"coding":[{"system":"http://terminology.hl7.org/CodeSystem/observation-category","code":"vital-signs","display":"Vital Signs"}]}],"code":{"coding":[{"system":"http://loinc.org","code":"29463-7"}]},"subject":{"reference":"Patient/a887a569-af0a-4b74-966b-555969da4ada"},"effectiveDateTime":"2022-01-22T00:00:00+00:00","valueQuantity":{"value":28.51,"unit":"kilogram","system":"http://unitsofmeasure.org","code":"kg"}}},{"fullUrl":"Observation/10fffd8e-98bc-451b-b117-0e21b3a59d83","resource":{"resourceType":"Observation","id":"10fffd8e-98bc-451b-b117-0e21b3a59d83","meta":{"profile":["http://hl7.org/fhir/us/core/StructureDefinition/us-core-body-temperature"]},"status":"final","category":[{"coding":[{"system":"http://terminology.hl7.org/CodeSystem/observation-category","code":"vital-signs","display":"Vital Signs"}]}],"code":{"coding":[{"system":"http://loinc.org","code":"8310-5"}]},"subject":{"reference":"Patient/a887a569-af0a-4b74-966b-555969da4ada"},"effectiveDateTime":"2022-11-27T00:00:00+00:00","valueQuantity":{"value":124.06,"unit":"kilogram","system":"http://unitsofmeasure.org","code":"kg"}}},{"fullUrl":"Observation/ca703dba-5631-44b2-9cb3-d29c6dff3832","resource":{"resourceType":"Observation","id":"ca703dba-5631-44b2-9cb3-d29c6dff3832","meta":{"profile":["http://hl7.org/fhir/us/core/StructureDefinition/us-core-heart-rate"]},"status":"final","category":[{"coding":[{"system":"http://terminology.hl7.org/CodeSystem/observation-category","code":"vital-signs","display":"Vital Signs"}]}],"code":{"coding":[{"system":"http://loinc.org","code":"8867-4"}]},"subject":{"reference":"Patient/a887a569-af0a-4b74-966b-555969da4ada"},"effectiveDateTime":"2022-03-30T00:00:00+00:00","valueQuantity":{"value":96.4,"unit":"Degrees Fahrenheit","system":"http://unitsofmeasure.org","code":"[degF]"}}},{"fullUrl":"Patient/02a01348-0ebe-464c-8cea-b1666c0f8d92","resource":{"resourceType":"Patient","id":"02a01348-0ebe-464c-8cea-b1666c0f8d92","meta":{"profile":["http://hl7.org/fhir/us/core/StructureDefinition/us-core-patient"]},"identifier":[{"type":{"coding":[{"system":"http://terminology.hl7.org/CodeSystem/v2-0203","code":"MR"}]},"system":"urn:fhirgen:mrn","value":"010-80-8515"}],"name":[{"family":"Bond","given":["Kevin"]}],"telecom":[{"system":"phone","value":"(469)752-6352"}],"gender":"other","birthDate":"1971-06-30","address":[{"line":["851 Fitzgerald Fords Suite 596"],"city":"New Jennifer","state":"Massachusetts","postalCode":"75738"}]}},{"fullUrl":"Observation/d8fdf0da-e525-4529-a62b-2800456e4d60","resource":{"resourceType":"Observation","id":"d8fdf0da-e525-4529-a62b-2800456e4d60","meta":{"profile":["http://hl7.org/fhir/us/core/StructureDefinition/us-core-observation-lab"]},"status":"final","category":[{"coding":[{"system":"http://terminology.hl7.org/CodeSystem/observation-category","code":"laboratory","display":"Laboratory"}]}],"code":{"coding":[{"system":"http://loinc.org","code":"51475-2"}]},"subject":{"reference":"Patient/02a01348-0ebe-464c-8cea-b1666c0f8d92"},"effectiveDateTime":"2022-12-25T00:00:00+00:00","valueRatio":{"numerator":{"value":1},"denominator":{"value":4}}}},{"fullUrl":"Observation/763a9e2a-8dd6-4cf5-b883-f343137812f9","resource":{"resourceType":"Observation","id":"763a9e2a-8dd6-4cf5-b883-f343137812f9","meta":{"profile":["http://hl7.org/fhir/us/core/StructureDefinition/us-core-observation-lab"]},"status":"final","category":[{"coding":[{"system":"http://terminology.hl7.org/CodeSystem/observation-category","code":"laboratory","display":"Laboratory"}]}],"code":{"coding":[{"system":"http://loinc.org","code":"51475-2"}]},"subject":{"reference":"Patient/02a01348-0ebe-464c-8cea-b1666c0f8d92"},"effectiveDateTime":"2022-12-03T00:00:00+00:00","valueRatio":{"numerator":{"value":1},"denominator":{"value":4}}}},{"fullUrl":"Observation/e4a2b515-085a-49cf-a455-594697ba826d","resource":{"resourceType":"Observation","id":"e4a2b515-085a-49cf-a455-594697ba826d","meta":{"profile":["http://hl7.org/fhir/us/core/StructureDefinition/us-core-observation-lab"]},"status":"final","category":[{"coding":[{"system":"http://terminology.hl7.org/CodeSystem/observation-category","code":"laboratory","display":"Laboratory"}]}],"code":{"coding":[{"system":"http://loinc.org","code":"47235-7"}]},"subject":{"reference":"Patient/02a01348-0ebe-464c-8cea-b1666c0f8d92"},"effectiveDateTime":"2022-11-26T00:00:00+00:00","valueRatio":{"numerator":{"value":1},"denominator":{"value":32}}}},{"fullUrl":"Condition/88cc8a29-4794-4b39-9bdb-afcd42f8e53b","resource":{"resourceType":"Condition","id":"88cc8a29-4794-4b39-9bdb-afcd42f8e53b","meta":{"profile":["http://hl7.org/fhir/us/core/StructureDefinition/us-core-condition"]},"clinicalStatus":{"coding":[{"system":"http://terminology.hl7.org/CodeSystem/condition-clinical","code":"active","display":"Active"}]},"category":[{"coding":[{"system":"http://terminology.hl7.org/CodeSystem/condition-ver-status","code":"confirmed"}]}],"code":{"coding":[{"system":"http://snomed.info/sct","code":"736686006"}]},"subject":{"reference":"Patient/02a01348-0ebe-464c-8cea-b1666c0f8d92"},"onsetDateTime":"2022-11-10T00:00:00+00:00"}},{"fullUrl":"Condition/6f63432a-5f06-471a-87fb-38cec3be99c9","resource":{"resourceType":"Condition","id":"6f63432a-5f06-471a-87fb-38cec3be99c9","meta":{"profile":["http://hl7.org/fhir/us/core/StructureDefinition/us-core-condition"]},"clinicalStatus":{"coding":[{"system":"http://terminology.hl7.org/CodeSystem/condition-clinical","code":"active","display":"Active"}]},"category":[{"coding":[{"system":"http://terminology.hl7.org/CodeSystem/condition-ver-status","code":"confirmed"}]}],"code":{"coding":[{"system":"http://snomed.info/sct","code":"709977002"}]},"subject":{"reference":"Patient/02a01348-0ebe-464c-8cea-b1666c0f8d92"},"onsetDateTime":"2022-11-03T00:00:00+00:00"}},{"fullUrl":"Condition/5cbfcc70-9fec-4755-87fa-5e7cc971ae54","resource":{"resourceType":"Condition","id":"5cbfcc70-9fec-4755-87fa-5e7cc971ae54","meta":{"profile":["http://hl7.org/fhir/us/core/StructureDefinition/us-core-condition"]},"clinicalStatus":{"coding":[{"system":"http://terminology.hl7.org/CodeSystem/condition-clinical","code":"active","display":"Active"}]},"category":[{"coding":[{"system":"http://terminology.hl7.org/CodeSystem/condition-ver-status","code":"confirmed"}]}],"code":{"coding":[{"system":"http://snomed.info/sct","code":"418290006"}]},"subject":{"reference":"Patient/02a01348-0ebe-464c-8cea-b1666c0f8d92"},"onsetDateTime":"2022-01-20T00:00:00+00:00"}},{"fullUrl":"Observation/816315e3-91ba-45e3-8232-af8cd0687e87","resource":{"resourceType":"Observation","id":"816315e3-91ba-45e3-8232-af8cd0687e87","meta":{"profile":["http://hl7.org/fhir/us/core/StructureDefinition/us-core-observation-lab"]},"status":"final","category":[{"coding":[{"system":"http://terminology.hl7.org/CodeSystem/observation-category","code":"laboratory","display":"Laboratory"}]}],"code":{"coding":[{"system":"http://loinc.org","code":"26464-8"}]},"subject":{"reference":"Patient/02a01348-0ebe-464c-8cea-b1666c0f8d92"},"effectiveDateTime":"2022-11-11T00:00:00+00:00","valueQuantity":{"value":8}}},{"fullUrl":"Observation/1441d6c8-e3a3-43f8-afb8-c3e69453f9a5","resource":{"resourceType":"Observation","id":"1441d6c8-e3a3-43f8-afb8-c3e69453f9a5","meta":{"profile":["http://hl7.org/fhir/us/core/StructureDefinition/us-core-observation-lab"]},"status":"final","category":[{"coding":[{"system":"http://terminology.hl7.org/CodeSystem/observation-category","code":"laboratory","display":"Laboratory"}]}],"code":{"coding":[{"system":"http://loinc.org","code":"6690-2"}]},"subject":{"reference":"Patient/02a01348-0ebe-464c-8cea-b1666c0f8d92"},"effectiveDateTime":"2022-04-25T00:00:00+00:00","valueQuantity":{"value":7.6}}},{"fullUrl":"Observation/7fb2683f-d2b0-4612-a885-05e2605c1401","resource":{"resourceType":"Observation","id":"7fb2683f-d2b0-4612-a885-05e2605c1401","meta":{"profile":["http://hl7.org/fhir/us/core/StructureDefinition/us-core-observation-lab"]},"status":"final","category":[{"coding":[{"system":"http://terminology.hl7.org/CodeSystem/observation-category","code":"laboratory","display":"Laboratory"}]}],"code":{"coding":[{"system":"http://loinc.org","code":"49498-9"}]},"subject":{"reference":"Patient/02a01348-0ebe-464c-8cea-b1666c0f8d92"},"effectiveDateTime":"2022-09-12T00:00:00+00:00","valueQuantity":{"value":9.5}}},{"fullUrl":"Observation/dd7fdd7e-d869-470f-8b42-2c4ef24ccd06","resource":{"resourceType":"Observation","id":"dd7fdd7e-d869-470f-8b42-2c4ef24ccd06","meta":{"profile":["http://hl7.org/fhir/us/core/StructureDefinition/us-core-bmi"]},"status":"final","category":[{"coding":[{"system":"http://terminology.hl7.org/CodeSystem/observation-category","code":"vital-signs","display":"Vital Signs"}]}],"code":{"coding":[{"system":"http://loinc.org","code":"39156-5"}]},"subject":{"reference":"Patient/02a01348-0ebe-464c-8cea-b1666c0f8d92"},"effectiveDateTime":"2022-09-23T00:00:00+00:00","valueQuantity":{"value":25.25,"unit":"kg/m2","system":"http://unitsofmeasure.org","code":"kg/m2"}}},{"fullUrl":"Observation/b534d767-f65a-49ab-9581-f05bb695bddd","resource":{"resourceType":"Observation","id":"b534d767-f65a-49ab-9581-f05bb695bddd","meta":{"profile":["http://hl7.org/fhir/us/core/StructureDefinition/us-core-head-circumference"]},"status":"final","category":[{"coding":[{"system":"http://terminology.hl7.org/CodeSystem/observation-category","code":"vital-signs","display":"Vital Signs"}]}],"code":{"coding":[{"system":"http://loinc.org","code":"9843-4"}]},"subject":{"reference":"Patient/02a01348-0ebe-464c-8cea-b1666c0f8d92"},"effectiveDateTime":"2022-09-23T00:00:00+00:00","valueQuantity":{"value":10,"unit":"Inch","system":"http://unitsofmeasure.org","code":"[in_i]"}}},{"fullUrl":"Observation/a9a00a83-40b6-492b-8085-9fc1093d9a7c","resource":{"resourceType":"Observation","id":"a9a00a83-40b6-492b-8085-9fc1093d9a7c","meta":{"profile":["http://hl7.org/fhir/us/core/StructureDefinition/us-core-body-height"]},"status":"final","category":[{"coding":[{"system":"http://terminology.hl7.org/CodeSystem/observation-category","code":"vital-signs","display":"Vital Signs"}]}],"code":{"coding":[{"system":"http://loinc.org","code":"8302-2"}]},"subject":{"reference":"Patient/02a01348-0ebe-464c-8cea-b1666c0f8d92"},"effectiveDateTime":"2022-03-07T00:00:00+00:00","valueQuantity":{"value":74.5,"unit":"Inch","system":"http://unitsofmeasure.org","code":"[in_i]"}}},{"fullUrl":"Observation/0ccc0fc9-89b5-4523-af0e-af350a1ac357","resource":{"resourceType":"Observation","id":"0ccc0fc9-89b5-4523-af0e-af350a1ac357","meta":{"profile":["http://hl7.org/fhir/us/core/StructureDefinition/us-core-body-height"]},"status":"final","category":[{"coding":[{"system":"http://terminology.hl7.org/CodeSystem/observation-category","code":"vital-signs","display":"Vital Signs"}]}],"code":{"coding":[{"system":"http://loinc.org","code":"8302-2"}]},"subject":{"reference":"Patient/02a01348-0ebe-464c-8cea-b1666c0f8d92"},"effectiveDateTime":"2022-06-23T00:00:00+00:00","valueQuantity":{"value":82.1,"unit":"Inch","system":"http://unitsofmeasure.org","code":"[in_i]"}}},{"fullUrl":"Observation/d8f308b7-4148-43c9-ba20-98cf0be686cc","resource":{"resourceType":"Observation","id":"d8f308b7-4148-43c9-ba20-98cf0be686cc","meta":{"profile":["http://hl7.org/fhir/us/core/StructureDefinition/us-core-body-weight"]},"status":"final","category":[{"coding":[{"system":"http://terminology.hl7.org/CodeSystem/observation-category","code":"vital-signs","display":"Vital Signs"}]}],"code":{"coding":[{"system":"http://loinc.org","code":"29463-7"}]},"subject":{"reference":"Patient/02a01348-0ebe-464c-8cea-b1666c0f8d92"},"effectiveDateTime":"2022-09-16T00:00:00+00:00","valueQuantity":{"value":140.48,"unit":"kilogram","system":"http://unitsofmeasure.org","code":"kg"}}},{"fullUrl":"Observation/2f1fbc1e-07d7-4831-8f8b-0c21ea795dc6","resource":{"resourceType":"Observation","id":"2f1fbc1e-07d7-4831-8f8b-0c21ea795dc6","meta":{"profile":["http://hl7.org/fhir/us/core/StructureDefinition/us-core-body-weight"]},"status":"final","category":[{"coding":[{"system":"http://terminology.hl7.org/CodeSystem/observation-category","code":"vital-signs","display":"Vital Signs"}]}],"code":{"coding":[{"system":"http://loinc.org","code":"29463-7"}]},"subject":{"reference":"Patient/02a01348-0ebe-464c-8cea-b1666c0f8d92"},"effectiveDateTime":"2022-09-13T00:00:00+00:00","valueQuantity":{"value":61.77,"unit":"kilogram","system":"http://unitsofmeasure.org","code":"kg"}}},{"fullUrl":"Observation/a7f4d703-f89a-463c-b40c-b638be3e1561","resource":{"resourceType":"Observation","id":"a7f4d703-f89a-463c-b40c-b638be3e1561","meta":{"profile":["http://hl7.org/fhir/us/core/StructureDefinition/us-core-body-temperature"]},"status":"final","category":[{"coding":[{"system":"http://terminology.hl7.org/CodeSystem/observation-category","code":"vital-signs","display":"Vital Signs"}]}],"code":{"coding":[{"system":"http://loinc.org","code":"8310-5"}]},"subject":{"reference":"Patient/02a01348-0ebe-464c-8cea-b1666c0f8d92"},"effectiveDateTime":"2022-11-03T00:00:00+00:00","valueQuantity":{"value":79.93,"unit":"kilogram","system":"http://unitsofmeasure.org","code":"kg"}}},{"fullUrl":"Observation/e987cbbc-c7f0-4f84-ac67-c8465a484deb","resource":{"resourceType":"Observation","id":"e987cbbc-c7f0-4f84-ac67-c8465a484deb","meta":{"profile":["http://hl7.org/fhir/us/core/StructureDefinition/us-core-heart-rate"]},"status":"final","category":[{"coding":[{"system":"http://terminology.hl7.org/CodeSystem/observation-category","code":"vital-signs","display":"Vital Signs"}]}],"code":{"coding":[{"system":"http://loinc.org","code":"8867-4"}]},"subject":{"reference":"Patient/02a01348-0ebe-464c-8cea-b1666c0f8d92"},"effectiveDateTime":"2022-12-28T00:00:00+00:00","valueQuantity":{"value":95.5,"unit":"Degrees Fahrenheit","system":"http://unitsofmeasure.org","code":"[degF]"}}}]}