{"resourceType":"Bundle","id":"e77cd261-8ef2-491c-8377-345ae7dc8dfb","type":"transaction","entry":[{"fullUrl":"Patient/4cd285ce-855a-4c1e-a4f8-66cbc44d8d16","resource":{"resourceType":"Patient","id":"4cd285ce-855a-4c1e-a4f8-66cbc44d8d16","identifier":[{"type":{"coding":[{"system":"http://terminology.hl7.org/CodeSystem/v2-0203","code":"MR"}]},"system":"urn:fhirgen:mrn","value":"079-79-8526"}],"name":[{"use":"official","family":"Walker","given":["Samuel"]},{"use":"maiden","family":"Oconnell"}],"telecom":[{"system":"phone","value":"001-471-953-2093x2999","use":"mobile"},{"system":"email","value":"karencooper@gmail.com","use":"mobile"}],"gender":"male","birthDate":"1957-06-04","address":[{"use":"home","line":["559 Michelle Park"],"city":"South Claudiamouth","state":"AZ","postalCode":"37930"},{"use":"old","line":["0206 Pena Fort Suite 977"],"city":"Woodview","state":"MA","postalCode":"20517"}]},"request":{"method":"POST","url":"Patient"}},{"fullUrl":"Observation/64255ea3-aa98-4eba-9a28-790ee32b1038","resource":{"resourceType":"Observation","id":"64255ea3-aa98-4eba-9a28-790ee32b1038","status":"final","code":{"coding":[{"system":"http://loinc.org","code":"71793-4"}]},"subject":{"reference":"Patient/4cd285ce-855a-4c1e-a4f8-66cbc44d8d16"},"effectiveDateTime":"2022-11-23T00:00:00+00:00","valueRatio":{"numerator":{"value":1},"denominator":{"value":32}}},"request":{"method":"POST","url":"Observation"}},{"fullUrl":"Observation/95dc6c09-3119-43b7-8a04-fb46d8653822","resource":{"resourceType":"Observation","id":"95dc6c09-3119-43b7-8a04-fb46d8653822","status":"final","code":{"coding":[{"system":"http://loinc.org","code":"46203-6"}]},"subject":{"reference":"Patient/4cd285ce-855a-4c1e-a4f8-66cbc44d8d16"},"effectiveDateTime":"2022-11-19T00:00:00+00:00","valueRatio":{"numerator":{"value":1},"denominator":{"value":4}}},"request":{"method":"POST","url":"Observation"}},{"fullUrl":"Observation/6662bd79-75b7-4f92-bdfd-b8ca59f83f8d","resource":{"resourceType":"Observation","id":"6662bd79-75b7-4f92-bdfd-b8ca59f83f8d","status":"final","code":{"coding":[{"system":"http://loinc.org","code":"31146-4"}]},"subject":{"reference":"Patient/4cd285ce-855a-4c1e-a4f8-66cbc44d8d16"},"effectiveDateTime":"2022-05-25T00:00:00+00:00","valueRatio":{"numerator":{"value":1},"denominator":{"value":4}}},"request":{"method":"POST","url":"Observation"}},{"fullUrl":"Condition/363c6649-00bd-43d7-b739-59d6e039f981","resource":{"resourceType":"Condition","id":"363c6649-00bd-43d7-b739-59d6e039f981","code":{"coding":[{"system":"http://snomed.info/sct","code":"21522001"}]},"subject":{"reference":"Patient/4cd285ce-855a-4c1e-a4f8-66cbc44d8d16"},"onsetDateTime":"2022-04-30T00:00:00+00:00"},"request":{"method":"POST","url":"Condition"}},{"fullUrl":"Condition/badcf4a8-2d3d-4804-914c-0fab447665ce","resource":{"resourceType":"Condition","id":"badcf4a8-2d3d-4804-914c-0fab447665ce","code":{"coding":[{"system":"http://snomed.info/sct","code":"30746006"}]},"subject":{"reference":"Patient/4cd285ce-855a-4c1e-a4f8-66cbc44d8d16"},"onsetDateTime":"2022-04-19T00:00:00+00:00"},"request":{"method":"POST","url":"Condition"}},{"fullUrl":"Condition/58522dad-88b3-4b51-9b36-751e97e11e01","resource":{"resourceType":"Condition","id":"58522dad-88b3-4b51-9b36-751e97e11e01","code":{"coding":[{"system":"http://snomed.info/sct","code":"271939006"}]},"subject":{"reference":"Patient/4cd285ce-855a-4c1e-a4f8-66cbc44d8d16"},"onsetDateTime":"2022-12-26T00:00:00+00:00"},"request":{"method":"POST","url":"Condition"}},{"fullUrl":"Condition/91867106-615e-421d-a59d-f0d038559125","resource":{"resourceType":"Condition","id":"91867106-615e-421d-a59d-f0d038559125","code":{"coding":[{"system":"http://snomed.info/sct","code":"386661006"}]},"subject":{"reference":"Patient/4cd285ce-855a-4c1e-a4f8-66cbc44d8d16"},"onsetDateTime":"2022-01-04T00:00:00+00:00"},"request":{"method":"POST","url":"Condition"}},{"fullUrl":"Condition/2c449659-38a9-4e5e-b4c7-f9a70b8ae38e","resource":{"resourceType":"Condition","id":"2c449659-38a9-4e5e-b4c7-f9a70b8ae38e","code":{"coding":[{"system":"http://snomed.info/sct","code":"198199009"}]},"subject":{"reference":"Patient/4cd285ce-855a-4c1e-a4f8-66cbc44d8d16"},"onsetDateTime":"2022-04-07T00:00:00+00:00"},"request":{"method":"POST","url":"Condition"}},{"fullUrl":"Condition/53a1f17c-1527-4d63-bb12-cc879739c2cc","resource":{"resourceType":"Condition","id":"53a1f17c-1527-4d63-bb12-cc879739c2cc","code":{"coding":[{"system":"http://snomed.info/sct","code":"418290006"}]},"subject":{"reference":"Patient/4cd285ce-855a-4c1e-a4f8-66cbc44d8d16"},"onsetDateTime":"2022-01-07T00:00:00+00:00"},"request":{"method":"POST","url":"Condition"}},{"fullUrl":"Condition/40ebcdc9-375f-46c7-a975-38db5b959d1e","resource":{"resourceType":"Condition","id":"40ebcdc9-375f-46c7-a975-38db5b959d1e","code":{"coding":[{"system":"http://snomed.info/sct","code":"30746006"}]},"subject":{"reference":"Patient/4cd285ce-855a-4c1e-a4f8-66cbc44d8d16"},"onsetDateTime":"2022-11-26T00:00:00+00:00"},"request":{"method":"POST","url":"Condition"}},{"fullUrl":"Condition/54326ab4-1f0f-4a5b-b25f-400241e27f31","resource":{"resourceType":"Condition","id":"54326ab4-1f0f-4a5b-b25f-400241e27f31","code":{"coding":[{"system":"http://snomed.info/sct","code":"386661006"}]},"subject":{"reference":"Patient/4cd285ce-855a-4c1e-a4f8-66cbc44d8d16"},"onsetDateTime":"2022-02-22T00:00:00+00:00"},"request":{"method":"POST","url":"Condition"}},{"fullUrl":"Observation/29602246-9f84-4522-979c-0c6cca924cd1","resource":{"resourceType":"Observation","id":"29602246-9f84-4522-979c-0c6cca924cd1","status":"final","code":{"coding":[{"system":"http://loinc.org","code":"804-5"}]},"subject":{"reference":"Patient/4cd285ce-855a-4c1e-a4f8-66cbc44d8d16"},"effectiveDateTime":"2022-12-04T00:00:00+00:00","valueQuantity":{"value":7.6}},"request":{"method":"POST","url":"Observation"}},{"fullUrl":"Observation/d67f0d40-9028-413e-812e-2472f82817eb","resource":{"resourceType":"Observation","id":"d67f0d40-9028-413e-812e-2472f82817eb","status":"final","code":{"coding":[{"system":"http://loinc.org","code":"804-5"}]},"subject":{"reference":"Patient/4cd285ce-855a-4c1e-a4f8-66cbc44d8d16"},"effectiveDateTime":"2022-04-29T00:00:00+00:00","valueQuantity":{"value":8}},"request":{"method":"POST","url":"Observation"}},{"fullUrl":"Observation/585d9747-a3c0-40ba-9686-52637fece741","resource":{"resourceType":"Observation","id":"585d9747-a3c0-40ba-9686-52637fece741","status":"final","code":{"coding":[{"system":"http://loinc.org","code":"49498-9"}]},"subject":{"reference":"Patient/4cd285ce-855a-4c1e-a4f8-66cbc44d8d16"},"effectiveDateTime":"2022-11-15T00:00:00+00:00"},"request":{"method":"POST","url":"Observation"}},{"fullUrl":"Observation/aadc635c-09dc-45b0-aafa-487591eb9ae0","resource":{"resourceType":"Observation","id":"aadc635c-09dc-45b0-aafa-487591eb9ae0","status":"final","code":{"coding":[{"system":"http://loinc.org","code":"49498-9"}]},"subject":{"reference":"Patient/4cd285ce-855a-4c1e-a4f8-66cbc44d8d16"},"effectiveDateTime":"2022-11-14T00:00:00+00:00"},"request":{"method":"POST","url":"Observation"}},{"fullUrl":"Observation/d55f7fe2-51b0-47bb-b7dd-4fbb5fc97f7a","resource":{"resourceType":"Observation","id":"d55f7fe2-51b0-47bb-b7dd-4fbb5fc97f7a","status":"final","code":{"coding":[{"system":"http://loinc.org","code":"49498-9"}]},"subject":{"reference":"Patient/4cd285ce-855a-4c1e-a4f8-66cbc44d8d16"},"effectiveDateTime":"2022-03-23T00:00:00+00:00"},"request":{"method":"POST","url":"Observation"}},{"fullUrl":"Procedure/d13f1f1c-83dd-4f7c-8792-d36520fe1362","resource":{"resourceType":"Procedure","id":"d13f1f1c-83dd-4f7c-8792-d36520fe1362","status":"completed","code":{"coding":[{"system":"http://snomed.info/sct","code":"189009"}]},"subject":{"reference":"Patient/4cd285ce-855a-4c1e-a4f8-66cbc44d8d16"},"performedDateTime":"2022-08-31T00:00:00+00:00"},"request":{"method":"POST","url":"Procedure"}},{"fullUrl":"Procedure/1ba89697-ea88-4074-adfa-6c604dcc702a","resource":{"resourceType":"Procedure","id":"1ba89697-ea88-4074-adfa-6c604dcc702a","status":"completed","code":{"coding":[{"system":"http://snomed.info/sct","code":"647000"}]},"subject":{"reference":"Patient/4cd285ce-855a-4c1e-a4f8-66cbc44d8d16"},"performedDateTime":"2022-10-28T00:00:00+00:00"},"request":{"method":"POST","url":"Procedure"}},{"fullUrl":"Procedure/fc00b741-146c-4d29-9bf0-bee58cbc6ef5","resource":{"resourceType":"Procedure","id":"fc00b741-146c-4d29-9bf0-bee58cbc6ef5","status":"completed","code":{"coding":[{"system":"http://snomed.info/sct","code":"115006"}]},"subject":{"reference":"Patient/4cd285ce-855a-4c1e-a4f8-66cbc44d8d16"},"performedDateTime":"2022-04-14T00:00:00+00:00"},"request":{"method":"POST","url":"Procedure"}},{"fullUrl":"MedicationStatement/4fad0661-fbac-4c75-a34e-e869510799cd","resource":{"resourceType":"MedicationStatement","id":"4fad0661-fbac-4c75-a34e-e869510799cd","status":"completed","medicationCodeableConcept":{"coding":[{"system":"http://www.nlm.nih.gov/research/umls/rxnorm","code":"8698"}]},"subject":{"reference":"Patient/4cd285ce-855a-4c1e-a4f8-66cbc44d8d16"},"effectiveDateTime":"2022-03-21T00:00:00+00:00","dosage":[{"doseAndRate":[{"doseQuantity":{"value":1,"unit":"TAB","system":"http://terminology.hl7.org/CodeSystem/v3-orderableDrugForm","code":"TAB"}}]}]},"request":{"method":"POST","url":"MedicationStatement"}},{"fullUrl":"MedicationStatement/e174c56b-3229-4a43-ac51-ddfdb3ded9f2","resource":{"resourceType":"MedicationStatement","id":"e174c56b-3229-4a43-ac51-ddfdb3ded9f2","status":"completed","medicationCodeableConcept":{"coding":[{"system":"http://www.nlm.nih.gov/research/umls/rxnorm","code":"7984"}]},"subject":{"reference":"Patient/4cd285ce-855a-4c1e-a4f8-66cbc44d8d16"},"effectiveDateTime":"2022-11-28T00:00:00+00:00","dosage":[{"doseAndRate":[{"doseQuantity":{"value":4.9,"unit":"TAB","system":"http://terminology.hl7.org/CodeSystem/v3-orderableDrugForm","code":"TAB"}}]}]},"request":{"method":"POST","url":"MedicationStatement"}},{"fullUrl":"MedicationStatement/980262c5-84be-4b16-a29c-c1c33d4c9790","resource":{"resourceType":"MedicationStatement","id":"980262c5-84be-4b16-a29c-c1c33d4c9790","status":"completed","medicationCodeableConcept":{"coding":[{"system":"http://www.nlm.nih.gov/research/umls/rxnorm","code":"3640"}]},"subject":{"reference":"Patient/4cd285ce-855a-4c1e-a4f8-66cbc44d8d16"},"effectiveDateTime":"2022-02-23T00:00:00+00:00","dosage":[{"doseAndRate":[{"doseQuantity":{"value":6.5,"unit":"TAB","system":"http://terminology.hl7.org/CodeSystem/v3-orderableDrugForm","code":"TAB"}}]}]},"request":{"method":"POST","url":"MedicationStatement"}},{"fullUrl":"MedicationStatement/9bd86216-5844-40be-b94c-df6ab69f400a","resource":{"resourceType":"MedicationStatement","id":"9bd86216-5844-40be-b94c-df6ab69f400a","status":"completed","medicationCodeableConcept":{"coding":[{"system":"http://www.nlm.nih.gov/research/umls/rxnorm","code":"7980"}]},"subject":{"reference":"Patient/4cd285ce-855a-4c1e-a4f8-66cbc44d8d16"},"effectiveDateTime":"2022-07-13T00:00:00+00:00","dosage":[{"doseAndRate":[{"doseQuantity":{"value":6.1,"unit":"TAB","system":"http://terminology.hl7.org/CodeSystem/v3-orderableDrugForm","code":"TAB"}}]}]},"request":{"method":"POST","url":"MedicationStatement"}},{"fullUrl":"Encounter/da0a6721-0ab8-4985-a5ee-46aaef788cf9","resource":{"resourceType":"Encounter","id":"da0a6721-0ab8-4985-a5ee-46aaef788cf9","status":"finished","class":{"system":"http://terminology.hl7.org/CodeSystem/v3-ActCode","code":"IMP","display":"inpatient encounter"},"type":[{"coding":[{"system":"http://terminology.hl7.org/CodeSystem/encounter-type","code":"BD/BM-clin"}]}],"subject":{"reference":"Patient/4cd285ce-855a-4c1e-a4f8-66cbc44d8d16"},"period":{"start":"2022-07-02T00:00:00+00:00","end":"2022-07-05T00:00:00+00:00"}},"request":{"method":"POST","url":"Encounter"}},{"fullUrl":"Encounter/f39201dd-c571-4713-987f-3b7384b0ea70","resource":{"resourceType":"Encounter","id":"f39201dd-c571-4713-987f-3b7384b0ea70","status":"finished","class":{"system":"http://terminology.hl7.org/CodeSystem/v3-ActCode","code":"IMP","display":"inpatient encounter"},"type":[{"coding":[{"system":"http://terminology.hl7.org/CodeSystem/encounter-type","code":"BD/BM-clin"}]}],"subject":{"reference":"Patient/4cd285ce-855a-4c1e-a4f8-66cbc44d8d16"},"period":{"start":"2022-09-18T00:00:00+00:00","end":"2022-09-23T00:00:00+00:00"}},"request":{"method":"POST","url":"Encounter"}},{"fullUrl":"Encounter/95e3c679-a442-4273-986e-eb17f042b36a","resource":{"resourceType":"Encounter","id":"95e3c679-a442-4273-986e-eb17f042b36a","status":"finished","class":{"system":"http://terminology.hl7.org/CodeSystem/v3-ActCode","code":"IMP","display":"inpatient encounter"},"type":[{"coding":[{"system":"http://terminology.hl7.org/CodeSystem/encounter-type","code":"CCS60"}]}],"subject":{"reference":"Patient/4cd285ce-855a-4c1e-a4f8-66cbc44d8d16"},"period":{"start":"2022-08-23T00:00:00+00:00","end":"2022-08-25T00:00:00+00:00"}},"request":{"method":"POST","url":"Encounter"}},{"fullUrl":"Encounter/b3d992a5-c9e0-45b4-932b-62d921fc84b1","resource":{"resourceType":"Encounter","id":"b3d992a5-c9e0-45b4-932b-62d921fc84b1","status":"finished","class":{"system":"http://terminology.hl7.org/CodeSystem/v3-ActCode","code":"AMB","display":"ambulatory"},"type":[{"coding":[{"system":"http://terminology.hl7.org/CodeSystem/encounter-type","code":"OKI"}]}],"subject":{"reference":"Patient/4cd285ce-855a-4c1e-a4f8-66cbc44d8d16"},"period":{"start":"2022-05-17T00:00:00+00:00","end":"2022-05-21T00:00:00+00:00"}},"request":{"method":"POST","url":"Encounter"}},{"fullUrl":"Encounter/18b3aec1-57de-4377-8f06-ae1ab07998d1","resource":{"resourceType":"Encounter","id":"18b3aec1-57de-4377-8f06-ae1ab07998d1","status":"finished","class":{"system":"http://terminology.hl7.org/CodeSystem/v3-ActCode","code":"FLD","display":"field"},"type":[{"coding":[{"system":"http://terminology.hl7.org/CodeSystem/encounter-type","code":"ADMS"}]}],"subject":{"reference":"Patient/4cd285ce-855a-4c1e-a4f8-66cbc44d8d16"},"period":{"start":"2022-03-13T00:00:00+00:00","end":"2022-03-16T00:00:00+00:00"}},"request":{"method":"POST","url":"Encounter"}},{"fullUrl":"Encounter/dd0302dd-3d6c-4d77-bb2a-080738262e77","resource":{"resourceType":"Encounter","id":"dd0302dd-3d6c-4d77-bb2a-080738262e77","status":"finished","class":{"system":"http://terminology.hl7.org/CodeSystem/v3-ActCode","code":"SS","display":"short-stay"},"type":[{"coding":[{"system":"http://terminology.hl7.org/CodeSystem/encounter-type","code":"CCS60"}]}],"subject":{"reference":"Patient/4cd285ce-855a-4c1e-a4f8-66cbc44d8d16"},"period":{"start":"2022-06-27T00:00:00+00:00","end":"2022-06-27T00:00:00+00:00"}},"request":{"method":"POST","url":"Encounter"}},{"fullUrl":"Patient/682ffddf-21b7-4532-b3f0-cd66b97b98c0","resource":{"resourceType":"Patient","id":"682ffddf-21b7-4532-b3f0-cd66b97b98c0","identifier":[{"type":{"coding":[{"system":"http://terminology.hl7.org/CodeSystem/v2-0203","code":"MR"}]},"system":"urn:fhirgen:mrn","value":"654-83-1357"}],"name":[{"use":"official","family":"Williamson","given":["Cody"]},{"use":"maiden","family":"Summers"}],"telecom":[{"system":"phone","value":"(400)472-9008x02850","use":"home"},{"system":"email","value":"christopher34@gmail.com","use":"work"}],"gender":"male","birthDate":"1955-04-11","address":[{"use":"home","line":["702 Fitzgerald Views"],"city":"West Amandashire","state":"ID","postalCode":"46495"},{"use":"old","line":["0662 Patricia Shores"],"city":"Davisville","state":"WV","postalCode":"32771"}]},"request":{"method":"POST","url":"Patient"}},{"fullUrl":"Observation/343130a3-d611-4fa3-9810-11e3e5771a97","resource":{"resourceType":"Observation","id":"343130a3-d611-4fa3-9810-11e3e5771a97","status":"final","code":{"coding":[{"system":"http://loinc.org","code":"47235-7"}]},"subject":{"reference":"Patient/682ffddf-21b7-4532-b3f0-cd66b97b98c0"},"effectiveDateTime":"2022-03-10T00:00:00+00:00","valueRatio":{"numerator":{"value":1},"denominator":{"value":32}}},"request":{"method":"POST","url":"Observation"}},{"fullUrl":"Observation/381a932e-0791-4f9e-a5f6-7871a608b40b","resource":{"resourceType":"Observation","id":"381a932e-0791-4f9e-a5f6-7871a608b40b","status":"final","code":{"coding":[{"system":"http://loinc.org","code":"5394-2"}]},"subject":{"reference":"Patient/682ffddf-21b7-4532-b3f0-cd66b97b98c0"},"effectiveDateTime":"2022-11-23T00:00:00+00:00","valueRatio":{"numerator":{"value":1},"denominator":{"value":4}}},"request":{"method":"POST","url":"Observation"}},{"fullUrl":"Observation/a768754a-d115-48ce-bcda-fda0d48a3c1c","resource":{"resourceType":"Observation","id":"a768754a-d115-48ce-bcda-fda0d48a3c1c","status":"final","code":{"coding":[{"system":"http://loinc.org","code":"50695-6"}]},"subject":{"reference":"Patient/682ffddf-21b7-4532-b3f0-cd66b97b98c0"},"effectiveDateTime":"2022-06-28T00:00:00+00:00","valueRatio":{"numerator":{"value":1},"denominator":{"value":64}}},"request":{"method":"POST","url":"Observation"}},{"fullUrl":"Condition/8fee3cec-3f29-479b-8665-61dcd1ddaad9","resource":{"resourceType":"Condition","id":"8fee3cec-3f29-479b-8665-61dcd1ddaad9","code":{"coding":[{"system":"http://snomed.info/sct","code":"709977002"}]},"subject":{"reference":"Patient/682ffddf-21b7-4532-b3f0-cd66b97b98c0"},"onsetDateTime":"2022-03-17T00:00:00+00:00"},"request":{"method":"POST","url":"Condition"}},{"fullUrl":"Condition/78a5e224-27e4-4ca9-8098-4bdab9463a6e","resource":{"resourceType":"Condition","id":"78a5e224-27e4-4ca9-8098-4bdab9463a6e","code":{"coding":[{"system":"http://snomed.info/sct","code":"21522001"}]},"subject":{"reference":"Patient/682ffddf-21b7-4532-b3f0-cd66b97b98c0"},"onsetDateTime":"2022-01-01T00:00:00+00:00"},"request":{"method":"POST","url":"Condition"}},{"fullUrl":"Condition/806b2003-539a-425e-b74e-d43ba7f63345","resource":{"resourceType":"Condition","id":"806b2003-539a-425e-b74e-d43ba7f63345","code":{"coding":[{"system":"http://snomed.info/sct","code":"386661006"}]},"subject":{"reference":"Patient/682ffddf-21b7-4532-b3f0-cd66b97b98c0"},"onsetDateTime":"2022-07-04T00:00:00+00:00"},"request":{"method":"POST","url":"Condition"}},{"fullUrl":"Condition/c0bf183d-af68-4c21-b455-1559ffcfc578","resource":{"resourceType":"Condition","id":"c0bf183d-af68-4c21-b455-1559ffcfc578","code":{"coding":[{"system":"http://snomed.info/sct","code":"418290006"}]},"subject":{"reference":"Patient/682ffddf-21b7-4532-b3f0-cd66b97b98c0"},"onsetDateTime":"2022-04-25T00:00:00+00:00"},"request":{"method":"POST","url":"Condition"}},{"fullUrl":"Condition/cb5fb883-cf2f-4cc6-a3f4-f4bc6a69236b","resource":{"resourceType":"Condition","id":"cb5fb883-cf2f-4cc6-a3f4-f4bc6a69236b","code":{"coding":[{"system":"http://snomed.info/sct","code":"198199009"}]},"subject":{"reference":"Patient/682ffddf-21b7-4532-b3f0-cd66b97b98c0"},"onsetDateTime":"2022-09-08T00:00:00+00:00"},"request":{"method":"POST","url":"Condition"}},{"fullUrl":"Condition/8ce0fff5-2cc1-4f71-82ac-3c4b413d32ed","resource":{"resourceType":"Condition","id":"8ce0fff5-2cc1-4f71-82ac-3c4b413d32ed","code":{"coding":[{"system":"http://snomed.info/sct","code":"18165001"}]},"subject":{"reference":"Patient/682ffddf-21b7-4532-b3f0-cd66b97b98c0"},"onsetDateTime":"2022-12-06T00:00:00+00:00"},"request":{"method":"POST","url":"Condition"}},{"fullUrl":"Observation/6229dfe0-85ec-49c4-a11f-8925bb3e9639","resource":{"resourceType":"Observation","id":"6229dfe0-85ec-49c4-a11f-8925bb3e9639","status":"final","code":{"coding":[{"system":"http://loinc.org","code":"6690-2"}]},"subject":{"reference":"Patient/682ffddf-21b7-4532-b3f0-cd66b97b98c0"},"effectiveDateTime":"2022-11-26T00:00:00+00:00","valueQuantity":{"value":5.7}},"request":{"method":"POST","url":"Observation"}},{"fullUrl":"Observation/6745cbd9-ed5c-46f7-a832-dec4ef00c8fa","resource":{"resourceType":"Observation","id":"6745cbd9-ed5c-46f7-a832-dec4ef00c8fa","status":"final","code":{"coding":[{"system":"http://loinc.org","code":"6690-2"}]},"subject":{"reference":"Patient/682ffddf-21b7-4532-b3f0-cd66b97b98c0"},"effectiveDateTime":"2022-11-16T00:00:00+00:00","valueQuantity":{"value":5.8}},"request":{"method":"POST","url":"Observation"}},{"fullUrl":"Observation/453865c3-2145-4438-b9dd-9cef6385b2fc","resource":{"resourceType":"Observation","id":"453865c3-2145-4438-b9dd-9cef6385b2fc","status":"final","code":{"coding":[{"system":"http://loinc.org","code":"49498-9"}]},"subject":{"reference":"Patient/682ffddf-21b7-4532-b3f0-cd66b97b98c0"},"effectiveDateTime":"2022-07-23T00:00:00+00:00","valueQuantity":{"value":9.8}},"request":{"method":"POST","url":"Observation"}},{"fullUrl":"Observation/75874248-6c61-4cc7-9bc6-bf3a2e8bfa69","resource":{"resourceType":"Observation","id":"75874248-6c61-4cc7-9bc6-bf3a2e8bfa69","status":"final","code":{"coding":[{"system":"http://loinc.org","code":"49498-9"}]},"subject":{"reference":"Patient/682ffddf-21b7-4532-b3f0-cd66b97b98c0"},"effectiveDateTime":"2022-11-20T00:00:00+00:00"},"request":{"method":"POST","url":"Observation"}},{"fullUrl":"Observation/7b8520ce-c461-4510-bf16-e3d8f06a918b","resource":{"resourceType":"Observation","id":"7b8520ce-c461-4510-bf16-e3d8f06a918b","status":"final","code":{"coding":[{"system":"http://loinc.org","code":"49498-9"}]},"subject":{"reference":"Patient/682ffddf-21b7-4532-b3f0-cd66b97b98c0"},"effectiveDateTime":"2022-06-16T00:00:00+00:00"},"request":{"method":"POST","url":"Observation"}},{"fullUrl":"Procedure/91f91a60-c1ae-4aab-9116-311737989bc2","resource":{"resourceType":"Procedure","id":"91f91a60-c1ae-4aab-9116-311737989bc2","status":"completed","code":{"coding":[{"system":"http://snomed.info/sct","code":"647000"}]},"subject":{"reference":"Patient/682ffddf-21b7-4532-b3f0-cd66b97b98c0"},"performedDateTime":"2022-03-25T00:00:00+00:00"},"request":{"method":"POST","url":"Procedure"}},{"fullUrl":"Procedure/4d66187a-1161-488a-b4ee-c90cd10ba26e","resource":{"resourceType":"Procedure","id":"4d66187a-1161-488a-b4ee-c90cd10ba26e","status":"completed","code":{"coding":[{"system":"http://snomed.info/sct","code":"647000"}]},"subject":{"reference":"Patient/682ffddf-21b7-4532-b3f0-cd66b97b98c0"},"performedDateTime":"2022-02-07T00:00:00+00:00"},"request":{"method":"POST","url":"Procedure"}},{"fullUrl":"Procedure/6fc8f937-5b8c-48e5-950b-2406ee449e70","resource":{"resourceType":"Procedure","id":"6fc8f937-5b8c-48e5-950b-2406ee449e70","status":"completed","code":{"coding":[{"system":"http://snomed.info/sct","code":"189009"}]},"subject":{"reference":"Patient/682ffddf-21b7-4532-b3f0-cd66b97b98c0"},"performedDateTime":"2022-03-23T00:00:00+00:00"},"request":{"method":"POST","url":"Procedure"}},{"fullUrl":"MedicationStatement/87fedc9d-3307-4a7b-8e38-f00ce0294bc9","resource":{"resourceType":"MedicationStatement","id":"87fedc9d-3307-4a7b-8e38-f00ce0294bc9","status":"completed","medicationCodeableConcept":{"coding":[{"system":"http://www.nlm.nih.gov/research/umls/rxnorm","code":"8698"}]},"subject":{"reference":"Patient/682ffddf-21b7-4532-b3f0-cd66b97b98c0"},"effectiveDateTime":"2022-06-30T00:00:00+00:00","dosage":[{"doseAndRate":[{"doseQuantity":{"value":2,"unit":"TAB","system":"http://terminology.hl7.org/CodeSystem/v3-orderableDrugForm","code":"TAB"}}]}]},"request":{"method":"POST","url":"MedicationStatement"}},{"fullUrl":"MedicationStatement/12b49872-6820-49ff-85a9-30ca15fc2e28","resource":{"resourceType":"MedicationStatement","id":"12b49872-6820-49ff-85a9-30ca15fc2e28","status":"completed","medicationCodeableConcept":{"coding":[{"system":"http://www.nlm.nih.gov/research/umls/rxnorm","code":"3640"}]},"subject":{"reference":"Patient/682ffddf-21b7-4532-b3f0-cd66b97b98c0"},"effectiveDateTime":"2022-03-24T00:00:00+00:00","dosage":[{"doseAndRate":[{"doseQuantity":{"value":1,"unit":"TAB","system":"http://terminology.hl7.org/CodeSystem/v3-orderableDrugForm","code":"TAB"}}]}]},"request":{"method":"POST","url":"MedicationStatement"}},{"fullUrl":"MedicationStatement/99bd4966-a333-4b50-8e96-5197e7e53909","resource":{"resourceType":"MedicationStatement","id":"99bd4966-a333-4b50-8e96-5197e7e53909","status":"completed","medicationCodeableConcept":{"coding":[{"system":"http://www.nlm.nih.gov/research/umls/rxnorm","code":"3640"}]},"subject":{"reference":"Patient/682ffddf-21b7-4532-b3f0-cd66b97b98c0"},"effectiveDateTime":"2022-02-13T00:00:00+00:00","dosage":[{"doseAndRate":[{"doseQuantity":{"value":1,"unit":"TAB","system":"http://terminology.hl7.org/CodeSystem/v3-orderableDrugForm","code":"TAB"}}]}]},"request":{"method":"POST","url":"MedicationStatement"}},{"fullUrl":"MedicationStatement/4d61af0f-c12b-4e4c-bd09-d520b5fdd956","resource":{"resourceType":"MedicationStatement","id":"4d61af0f-c12b-4e4c-bd09-d520b5fdd956","status":"completed","medicationCodeableConcept":{"coding":[{"system":"http://www.nlm.nih.gov/research/umls/rxnorm","code":"10395"}]},"subject":{"reference":"Patient/682ffddf-21b7-4532-b3f0-cd66b97b98c0"},"effectiveDateTime":"2022-07-10T00:00:00+00:00","dosage":[{"doseAndRate":[{"doseQuantity":{"value":1,"unit":"TAB","system":"http://terminology.hl7.org/CodeSystem/v3-orderableDrugForm","code":"TAB"}}]}]},"request":{"method":"POST","url":"MedicationStatement"}},{"fullUrl":"MedicationStatement/d4e83a1f-d728-46cb-b12d-a8c7a218101a","resource":{"resourceType":"MedicationStatement","id":"d4e83a1f-d728-46cb-b12d-a8c7a218101a","status":"completed","medicationCodeableConcept":{"coding":[{"system":"http://www.nlm.nih.gov/research/umls/rxnorm","code":"7980"}]},"subject":{"reference":"Patient/682ffddf-21b7-4532-b3f0-cd66b97b98c0"},"effectiveDateTime":"2022-02-25T00:00:00+00:00","dosage":[{"doseAndRate":[{"doseQuantity":{"value":1,"unit":"TAB","system":"http://terminology.hl7.org/CodeSystem/v3-orderableDrugForm","code":"TAB"}}]}]},"request":{"method":"POST","url":"MedicationStatement"}},{"fullUrl":"MedicationStatement/4c1a080f-0b01-4b48-9fc8-237db087b88c","resource":{"resourceType":"MedicationStatement","id":"4c1a080f-0b01-4b48-9fc8-237db087b88c","status":"completed","medicationCodeableConcept":{"coding":[{"system":"http://www.nlm.nih.gov/research/umls/rxnorm","code":"7984"}]},"subject":{"reference":"Patient/682ffddf-21b7-4532-b3f0-cd66b97b98c0"},"effectiveDateTime":"2022-02-01T00:00:00+00:00","dosage":[{"doseAndRate":[{"doseQuantity":{"value":2,"unit":"TAB","system":"http://terminology.hl7.org/CodeSystem/v3-orderableDrugForm","code":"TAB"}}]}]},"request":{"method":"POST","url":"MedicationStatement"}},{"fullUrl":"MedicationStatement/f5a5cd40-4209-4a03-87c2-e28617f9a7cc","resource":{"resourceType":"MedicationStatement","id":"f5a5cd40-4209-4a03-87c2-e28617f9a7cc","status":"completed","medicationCodeableConcept":{"coding":[{"system":"http://www.nlm.nih.gov/research/umls/rxnorm","code":"2193"}]},"subject":{"reference":"Patient/682ffddf-21b7-4532-b3f0-cd66b97b98c0"},"effectiveDateTime":"2022-12-28T00:00:00+00:00","dosage":[{"doseAndRate":[{"doseQuantity":{"value":2,"unit":"TAB","system":"http://terminology.hl7.org/CodeSystem/v3-orderableDrugForm","code":"TAB"}}]}]},"request":{"method":"POST","url":"MedicationStatement"}},{"fullUrl":"MedicationStatement/ea92012e-76bd-49c1-aa0e-31fdc24dff6a","resource":{"resourceType":"MedicationStatement","id":"ea92012e-76bd-49c1-aa0e-31fdc24dff6a","status":"completed","medicationCodeableConcept":{"coding":[{"system":"http://www.nlm.nih.gov/research/umls/rxnorm","code":"10395"}]},"subject":{"reference":"Patient/682ffddf-21b7-4532-b3f0-cd66b97b98c0"},"effectiveDateTime":"2022-03-20T00:00:00+00:00","dosage":[{"doseAndRate":[{"doseQuantity":{"value":2,"unit":"TAB","system":"http://terminology.hl7.org/CodeSystem/v3-orderableDrugForm","code":"TAB"}}]}]},"request":{"method":"POST","url":"MedicationStatement"}},{"fullUrl":"MedicationStatement/c2fae49d-5f00-498c-8bbd-cb120356e5e3","resource":{"resourceType":"MedicationStatement","id":"c2fae49d-5f00-498c-8bbd-cb120356e5e3","status":"completed","medicationCodeableConcept":{"coding":[{"system":"http://www.nlm.nih.gov/research/umls/rxnorm","code":"10395"}]},"subject":{"reference":"Patient/682ffddf-21b7-4532-b3f0-cd66b97b98c0"},"effectiveDateTime":"2022-08-05T00:00:00+00:00","dosage":[{"doseAndRate":[{"doseQuantity":{"value":4.5,"unit":"TAB","system":"http://terminology.hl7.org/CodeSystem/v3-orderableDrugForm","code":"TAB"}}]}]},"request":{"method":"POST","url":"MedicationStatement"}},{"fullUrl":"MedicationStatement/0b883dc6-75b1-4e97-983c-8b90eb9b9d2d","resource":{"resourceType":"MedicationStatement","id":"0b883dc6-75b1-4e97-983c-8b90eb9b9d2d","status":"completed","medicationCodeableConcept":{"coding":[{"system":"http://www.nlm.nih.gov/research/umls/rxnorm","code":"2193"}]},"subject":{"reference":"Patient/682ffddf-21b7-4532-b3f0-cd66b97b98c0"},"effectiveDateTime":"2022-10-05T00:00:00+00:00","dosage":[{"doseAndRate":[{"doseQuantity":{"value":6.2,"unit":"TAB","system":"http://terminology.hl7.org/CodeSystem/v3-orderableDrugForm","code":"TAB"}}]}]},"request":{"method":"POST","url":"MedicationStatement"}},{"fullUrl":"MedicationStatement/8c566af9-ed3a-44fa-8569-bb054947974a","resource":{"resourceType":"MedicationStatement","id":"8c566af9-ed3a-44fa-8569-bb054947974a","status":"completed","medicationCodeableConcept":{"coding":[{"system":"http://www.nlm.nih.gov/research/umls/rxnorm","code":"7980"}]},"subject":{"reference":"Patient/682ffddf-21b7-4532-b3f0-cd66b97b98c0"},"effectiveDateTime":"2022-05-09T00:00:00+00:00","dosage":[{"doseAndRate":[{"doseQuantity":{"value":6.7,"unit":"TAB","system":"http://terminology.hl7.org/CodeSystem/v3-orderableDrugForm","code":"TAB"}}]}]},"request":{"method":"POST","url":"MedicationStatement"}},{"fullUrl":"Encounter/0da5f56c-a6a5-4446-9726-e185080496aa","resource":{"resourceType":"Encounter","id":"0da5f56c-a6a5-4446-9726-e185080496aa","status":"finished","class":{"system":"http://terminology.hl7.org/CodeSystem/v3-ActCode","code":"IMP","display":"inpatient encounter"},"type":[{"coding":[{"system":"http://terminology.hl7.org/CodeSystem/encounter-type","code":"BD/BM-clin"}]}],"subject":{"reference":"Patient/682ffddf-21b7-4532-b3f0-cd66b97b98c0"},"period":{"start":"2022-09-12T00:00:00+00:00","end":"2022-09-17T00:00:00+00:00"}},"request":{"method":"POST","url":"Encounter"}},{"fullUrl":"Encounter/28e11f0e-4d8d-4257-bdd5-bcde4be5dd1c","resource":{"resourceType":"Encounter","id":"28e11f0e-4d8d-4257-bdd5-bcde4be5dd1c","status":"finished","class":{"system":"http://terminology.hl7.org/CodeSystem/v3-ActCode","code":"IMP","display":"inpatient encounter"},"type":[{"coding":[{"system":"http://terminology.hl7.org/CodeSystem/encounter-type","code":"ADMS"}]}],"subject":{"reference":"Patient/682ffddf-21b7-4532-b3f0-cd66b97b98c0"},"period":{"start":"2022-02-18T00:00:00+00:00","end":"2022-02-18T00:00:00+00:00"}},"request":{"method":"POST","url":"Encounter"}},{"fullUrl":"Encounter/49cd5f40-6637-4b88-a385-f9ad030f5b21","resource":{"resourceType":"Encounter","id":"49cd5f40-6637-4b88-a385-f9ad030f5b21","status":"finished","class":{"system":"http://terminology.hl7.org/CodeSystem/v3-ActCode","code":"IMP","display":"inpatient encounter"},"type":[{"coding":[{"system":"http://terminology.hl7.org/CodeSystem/encounter-type","code":"CCS60"}]}],"subject":{"reference":"Patient/682ffddf-21b7-4532-b3f0-cd66b97b98c0"},"period":{"start":"2022-09-05T00:00:00+00:00","end":"2022-09-09T00:00:00+00:00"}},"request":{"method":"POST","url":"Encounter"}},{"fullUrl":"Encounter/7dbeee5d-9201-4280-b17a-eca825c54d92","resource":{"resourceType":"Encounter","id":"7dbeee5d-9201-4280-b17a-eca825c54d92","status":"finished","class":{"system":"http://terminology.hl7.org/CodeSystem/v3-ActCode","code":"EMER","display":"emergency"},"type":[{"coding":[{"system":"http://terminology.hl7.org/CodeSystem/encounter-type","code":"OKI"}]}],"subject":{"reference":"Patient/682ffddf-21b7-4532-b3f0-cd66b97b98c0"},"period":{"start":"2022-05-19T00:00:00+00:00","end":"2022-05-21T00:00:00+00:00"}},"request":{"method":"POST","url":"Encounter"}},{"fullUrl":"Encounter/db7fb93c-e049-45c6-bbb0-cf2bf430f858","resource":{"resourceType":"Encounter","id":"db7fb93c-e049-45c6-bbb0-cf2bf430f858","status":"finished","class":{"system":"http://terminology.hl7.org/CodeSystem/v3-ActCode","code":"IMP","display":"inpatient encounter"},"type":[{"coding":[{"system":"http://terminology.hl7.org/CodeSystem/encounter-type","code":"CCS60"}]}],"subject":{"reference":"Patient/682ffddf-21b7-4532-b3f0-cd66b97b98c0"},"period":{"start":"2022-01-15T00:00:00+00:00","end":"2022-01-16T00:00:00+00:00"}},"request":{"method":"POST","url":"Encounter"}},{"fullUrl":"Patient/7aaeeae6-3194-4f8c-8c79-21b5b56d388f","resource":{"resourceType":"Patient","id":"7aaeeae6-3194-4f8c-8c79-21b5b56d388f","identifier":[{"type":{"coding":[{"system":"http://terminology.hl7.org/CodeSystem/v2-0203","code":"MR"}]},"system":"urn:fhirgen:mrn","value":"064-87-1108"}],"name":[{"use":"official","family":"Knox","given":["Jennifer"]},{"use":"maiden","family":"Raymond"}],"telecom":[{"system":"phone","value":"(942)185-0600x45649","use":"mobile"},{"system":"email","value":"molly93@gmail.com","use":"home"}],"gender":"female","birthDate":"2002-04-03","address":[{"use":"home","line":["2095 Edward Union"],"city":"Moralesfort","state":"ND","postalCode":"74364"},{"use":"old","line":["2662 Brown Square Suite 091"],"city":"Jonathanburgh","state":"MI","postalCode":"92273"}]},"request":{"method":"POST","url":"Patient"}},{"fullUrl":"Observation/ab917997-0646-489c-9ff2-a7a4d2009ae0","resource":{"resourceType":"Observation","id":"ab917997-0646-489c-9ff2-a7a4d2009ae0","status":"final","code":{"coding":[{"system":"http://loinc.org","code":"31146-4"}]},"subject":{"reference":"Patient/7aaeeae6-3194-4f8c-8c79-21b5b56d388f"},"effectiveDateTime":"2022-04-02T00:00:00+00:00","valueRatio":{"numerator":{"value":1},"denominator":{"value":4}}},"request":{"method":"POST","url":"Observation"}},{"fullUrl":"Observation/174f2582-b4f0-4a9b-a238-3ccaf4dac8b1","resource":{"resourceType":"Observation","id":"174f2582-b4f0-4a9b-a238-3ccaf4dac8b1","status":"final","code":{"coding":[{"system":"http://loinc.org","code":"47476-7"}]},"subject":{"reference":"Patient/7aaeeae6-3194-4f8c-8c79-21b5b56d388f"},"effectiveDateTime":"2022-09-20T00:00:00+00:00","valueRatio":{"numerator":{"value":1},"denominator":{"value":64}}},"request":{"method":"POST","url":"Observation"}},{"fullUrl":"Observation/7a750450-f4e5-4c55-90de-2a2f868f00bd","resource":{"resourceType":"Observation","id":"7a750450-f4e5-4c55-90de-2a2f868f00bd","status":"final","code":{"coding":[{"system":"http://loinc.org","code":"26009-1"}]},"subject":{"reference":"Patient/7aaeeae6-3194-4f8c-8c79-21b5b56d388f"},"effectiveDateTime":"2022-12-28T00:00:00+00:00","valueRatio":{"numerator":{"value":1},"denominator":{"value":4}}},"request":{"method":"POST","url":"Observation"}},{"fullUrl":"Condition/a9d43e7d-6bda-4df4-ad49-86d2234850a8","resource":{"resourceType":"Condition","id":"a9d43e7d-6bda-4df4-ad49-86d2234850a8","code":{"coding":[{"system":"http://snomed.info/sct","code":"31070006"}]},"subject":{"reference":"Patient/7aaeeae6-3194-4f8c-8c79-21b5b56d388f"},"onsetDateTime":"2022-12-30T00:00:00+00:00"},"request":{"method":"POST","url":"Condition"}},{"fullUrl":"Condition/e6e96fde-2f7c-4ea0-beb6-a6bea0e1558e","resource":{"resourceType":"Condition","id":"e6e96fde-2f7c-4ea0-beb6-a6bea0e1558e","code":{"coding":[{"system":"http://snomed.info/sct","code":"405737000"}]},"subject":{"reference":"Patient/7aaeeae6-3194-4f8c-8c79-21b5b56d388f"},"onsetDateTime":"2022-08-11T00:00:00+00:00"},"request":{"method":"POST","url":"Condition"}},{"fullUrl":"Condition/13e05e7d-b0e5-4491-ada3-40e74598ed05","resource":{"resourceType":"Condition","id":"13e05e7d-b0e5-4491-ada3-40e74598ed05","code":{"coding":[{"system":"http://snomed.info/sct","code":"386661006"}]},"subject":{"reference":"Patient/7aaeeae6-3194-4f8c-8c79-21b5b56d388f"},"onsetDateTime":"2022-09-17T00:00:00+00:00"},"request":{"method":"POST","url":"Condition"}},{"fullUrl":"Condition/db3c2640-7e0c-4dad-82cd-f38b8da6ef59","resource":{"resourceType":"Condition","id":"db3c2640-7e0c-4dad-82cd-f38b8da6ef59","code":{"coding":[{"system":"http://snomed.info/sct","code":"56317004"}]},"subject":{"reference":"Patient/7aaeeae6-3194-4f8c-8c79-21b5b56d388f"},"onsetDateTime":"2022-08-15T00:00:00+00:00"},"request":{"method":"POST","url":"Condition"}},{"fullUrl":"Condition/331d845d-dda8-4f23-ad77-02d20a7f8450","resource":{"resourceType":"Condition","id":"331d845d-dda8-4f23-ad77-02d20a7f8450","code":{"coding":[{"system":"http://snomed.info/sct","code":"736686006"}]},"subject":{"reference":"Patient/7aaeeae6-3194-4f8c-8c79-21b5b56d388f"},"onsetDateTime":"2022-11-26T00:00:00+00:00"},"request":{"method":"POST","url":"Condition"}},{"fullUrl":"Condition/5eed8625-5ac9-4733-9e3e-c9ca27b0bec2","resource":{"resourceType":"Condition","id":"5eed8625-5ac9-4733-9e3e-c9ca27b0bec2","code":{"coding":[{"system":"http://snomed.info/sct","code":"3951002"}]},"subject":{"reference":"Patient/7aaeeae6-3194-4f8c-8c79-21b5b56d388f"},"onsetDateTime":"2022-02-14T00:00:00+00:00"},"request":{"method":"POST","url":"Condition"}},{"fullUrl":"Observation/935a2b99-afc1-498b-a803-ed1aa3bd9d58","resource":{"resourceType":"Observation","id":"935a2b99-afc1-498b-a803-ed1aa3bd9d58","status":"final","code":{"coding":[{"system":"http://loinc.org","code":"49498-9"}]},"subject":{"reference":"Patient/7aaeeae6-3194-4f8c-8c79-21b5b56d388f"},"effectiveDateTime":"2022-09-19T00:00:00+00:00","valueQuantity":{"value":6.9}},"request":{"method":"POST","url":"Observation"}},{"fullUrl":"Observation/ba0194e5-30b7-4196-a42f-6ffaf13bcbe3","resource":{"resourceType":"Observation","id":"ba0194e5-30b7-4196-a42f-6ffaf13bcbe3","status":"final","code":{"coding":[{"system":"http://loinc.org","code":"804-5"}]},"subject":{"reference":"Patient/7aaeeae6-3194-4f8c-8c79-21b5b56d388f"},"effectiveDateTime":"2022-02-01T00:00:00+00:00","valueQuantity":{"value":4.7}},"request":{"method":"POST","url":"Observation"}},{"fullUrl":"Observation/43b554a6-6e84-4405-92ec-f1ec750ffba0","resource":{"resourceType":"Observation","id":"43b554a6-6e84-4405-92ec-f1ec750ffba0","status":"final","code":{"coding":[{"system":"http://loinc.org","code":"26464-8"}]},"subject":{"reference":"Patient/7aaeeae6-3194-4f8c-8c79-21b5b56d388f"},"effectiveDateTime":"2022-08-21T00:00:00+00:00","valueQuantity":{"value":10.5}},"request":{"method":"POST","url":"Observation"}},{"fullUrl":"Observation/109cbe1b-b046-45c6-8e8b-995605d8a898","resource":{"resourceType":"Observation","id":"109cbe1b-b046-45c6-8e8b-995605d8a898","status":"final","code":{"coding":[{"system":"http://loinc.org","code":"49498-9"}]},"subject":{"reference":"Patient/7aaeeae6-3194-4f8c-8c79-21b5b56d388f"},"effectiveDateTime":"2022-09-28T00:00:00+00:00"},"request":{"method":"POST","url":"Observation"}},{"fullUrl":"Observation/e4c5698d-8f0a-4061-bfc5-409272e08988","resource":{"resourceType":"Observation","id":"e4c5698d-8f0a-4061-bfc5-409272e08988","status":"final","code":{"coding":[{"system":"http://loinc.org","code":"49498-9"}]},"subject":{"reference":"Patient/7aaeeae6-3194-4f8c-8c79-21b5b56d388f"},"effectiveDateTime":"2022-10-19T00:00:00+00:00"},"request":{"method":"POST","url":"Observation"}},{"fullUrl":"Observation/e1757431-0b78-4cc7-8a82-778a9f902650","resource":{"resourceType":"Observation","id":"e1757431-0b78-4cc7-8a82-778a9f902650","status":"final","code":{"coding":[{"system":"http://loinc.org","code":"49498-9"}]},"subject":{"reference":"Patient/7aaeeae6-3194-4f8c-8c79-21b5b56d388f"},"effectiveDateTime":"2022-11-23T00:00:00+00:00"},"request":{"method":"POST","url":"Observation"}},{"fullUrl":"Procedure/778a907e-eab8-405a-8196-be366938a932","resource":{"resourceType":"Procedure","id":"778a907e-eab8-405a-8196-be366938a932","status":"completed","code":{"coding":[{"system":"http://snomed.info/sct","code":"115006"}]},"subject":{"reference":"Patient/7aaeeae6-3194-4f8c-8c79-21b5b56d388f"},"performedDateTime":"2022-03-01T00:00:00+00:00"},"request":{"method":"POST","url":"Procedure"}},{"fullUrl":"Procedure/5339e705-f0e7-41e9-ba95-ebb87ded55a4","resource":{"resourceType":"Procedure","id":"5339e705-f0e7-41e9-ba95-ebb87ded55a4","status":"completed","code":{"coding":[{"system":"http://snomed.info/sct","code":"146005"}]},"subject":{"reference":"Patient/7aaeeae6-3194-4f8c-8c79-21b5b56d388f"},"performedDateTime":"2022-05-18T00:00:00+00:00"},"request":{"method":"POST","url":"Procedure"}},{"fullUrl":"Procedure/2b02b716-15db-46d8-92e0-947559e02285","resource":{"resourceType":"Procedure","id":"2b02b716-15db-46d8-92e0-947559e02285","status":"completed","code":{"coding":[{"system":"http://snomed.info/sct","code":"115006"}]},"subject":{"reference":"Patient/7aaeeae6-3194-4f8c-8c79-21b5b56d388f"},"performedDateTime":"2022-09-18T00:00:00+00:00"},"request":{"method":"POST","url":"Procedure"}},{"fullUrl":"MedicationStatement/0ad9e478-f095-446e-8ea0-fd553be22eac","resource":{"resourceType":"MedicationStatement","id":"0ad9e478-f095-446e-8ea0-fd553be22eac","status":"completed","medicationCodeableConcept":{"coding":[{"system":"http://www.nlm.nih.gov/research/umls/rxnorm","code":"18631"}]},"subject":{"reference":"Patient/7aaeeae6-3194-4f8c-8c79-21b5b56d388f"},"effectiveDateTime":"2022-10-07T00:00:00+00:00","dosage":[{"doseAndRate":[{"doseQuantity":{"value":2,"unit":"TAB","system":"http://terminology.hl7.org/CodeSystem/v3-orderableDrugForm","code":"TAB"}}]}]},"request":{"method":"POST","url":"MedicationStatement"}},{"fullUrl":"MedicationStatement/43aafa59-cfa1-437a-9f68-e6aa667cedfa","resource":{"resourceType":"MedicationStatement","id":"43aafa59-cfa1-437a-9f68-e6aa667cedfa","status":"completed","medicationCodeableConcept":{"coding":[{"system":"http://www.nlm.nih.gov/research/umls/rxnorm","code":"18631"}]},"subject":{"reference":"Patient/7aaeeae6-3194-4f8c-8c79-21b5b56d388f"},"effectiveDateTime":"2022-01-30T00:00:00+00:00","dosage":[{"doseAndRate":[{"doseQuantity":{"value":1,"unit":"TAB","system":"http://terminology.hl7.org/CodeSystem/v3-orderableDrugForm","code":"TAB"}}]}]},"request":{"method":"POST","url":"MedicationStatement"}},{"fullUrl":"MedicationStatement/a5f739f3-c1d7-4be2-bae8-78948cee7b51","resource":{"resourceType":"MedicationStatement","id":"a5f739f3-c1d7-4be2-bae8-78948cee7b51","status":"completed","medicationCodeableConcept":{"coding":[{"system":"http://www.nlm.nih.gov/research/umls/rxnorm","code":"7984"}]},"subject":{"reference":"Patient/7aaeeae6-3194-4f8c-8c79-21b5b56d388f"},"effectiveDateTime":"2022-10-24T00:00:00+00:00","dosage":[{"doseAndRate":[{"doseQuantity":{"value":2,"unit":"TAB","system":"http://terminology.hl7.org/CodeSystem/v3-orderableDrugForm","code":"TAB"}}]}]},"request":{"method":"POST","url":"MedicationStatement"}},{"fullUrl":"MedicationStatement/cde0525d-304b-41bb-b240-9fccdc692664","resource":{"resourceType":"MedicationStatement","id":"cde0525d-304b-41bb-b240-9fccdc692664","status":"completed","medicationCodeableConcept":{"coding":[{"system":"http://www.nlm.nih.gov/research/umls/rxnorm","code":"7984"}]},"subject":{"reference":"Patient/7aaeeae6-3194-4f8c-8c79-21b5b56d388f"},"effectiveDateTime":"2022-11-01T00:00:00+00:00","dosage":[{"doseAndRate":[{"doseQuantity":{"value":3.7,"unit":"TAB","system":"http://terminology.hl7.org/CodeSystem/v3-orderableDrugForm","code":"TAB"}}]}]},"request":{"method":"POST","url":"MedicationStatement"}},{"fullUrl":"MedicationStatement/73f8c075-6993-46b3-b6e3-d1e0455a94ab","resource":{"resourceType":"MedicationStatement","id":"73f8c075-6993-46b3-b6e3-d1e0455a94ab","status":"completed","medicationCodeableConcept":{"coding":[{"system":"http://www.nlm.nih.gov/research/umls/rxnorm","code":"7984"}]},"subject":{"reference":"Patient/7aaeeae6-3194-4f8c-8c79-21b5b56d388f"},"effectiveDateTime":"2022-05-30T00:00:00+00:00","dosage":[{"doseAndRate":[{"doseQuantity":{"value":6.4,"unit":"TAB","system":"http://terminology.hl7.org/CodeSystem/v3-orderableDrugForm","code":"TAB"}}]}]},"request":{"method":"POST","url":"MedicationStatement"}},{"fullUrl":"Encounter/acc215d3-6c18-46bf-b385-bf1f4e11f097","resource":{"resourceType":"Encounter","id":"acc215d3-6c18-46bf-b385-bf1f4e11f097","status":"finished","class":{"system":"http://terminology.hl7.org/CodeSystem/v3-ActCode","code":"IMP","display":"inpatient encounter"},"type":[{"coding":[{"system":"http://terminology.hl7.org/CodeSystem/encounter-type","code":"ADMS"}]}],"subject":{"reference":"Patient/7aaeeae6-3194-4f8c-8c79-21b5b56d388f"},"period":{"start":"2022-09-02T00:00:00+00:00","end":"2022-09-11T00:00:00+00:00"}},"request":{"method":"POST","url":"Encounter"}},{"fullUrl":"Encounter/a46ba455-aa69-4223-a53b-0ee47f0bdb5b","resource":{"resourceType":"Encounter","id":"a46ba455-aa69-4223-a53b-0ee47f0bdb5b","status":"finished","class":{"system":"http://terminology.hl7.org/CodeSystem/v3-ActCode","code":"IMP","display":"inpatient encounter"},"type":[{"coding":[{"system":"http://terminology.hl7.org/CodeSystem/encounter-type","code":"OKI"}]}],"subject":{"reference":"Patient/7aaeeae6-3194-4f8c-8c79-21b5b56d388f"},"period":{"start":"2022-09-20T00:00:00+00:00","end":"2022-09-27T00:00:00+00:00"}},"request":{"method":"POST","url":"Encounter"}},{"fullUrl":"Encounter/f08546d1-3ef1-4da6-aa26-8bef7b3b8c7b","resource":{"resourceType":"Encounter","id":"f08546d1-3ef1-4da6-aa26-8bef7b3b8c7b","status":"finished","class":{"system":"http://terminology.hl7.org/CodeSystem/v3-ActCode","code":"NONAC","display":"inpatient non-acute"},"type":[{"coding":[{"system":"http://terminology.hl7.org/CodeSystem/encounter-type","code":"CCS60"}]}],"subject":{"reference":"Patient/7aaeeae6-3194-4f8c-8c79-21b5b56d388f"},"period":{"start":"2022-08-30T00:00:00+00:00","end":"2022-09-01T00:00:00+00:00"}},"request":{"method":"POST","url":"Encounter"}},{"fullUrl":"Encounter/3ca0014d-6350-4cd8-a108-631ae00e1e28","resource":{"resourceType":"Encounter","id":"3ca0014d-6350-4cd8-a108-631ae00e1e28","status":"finished","class":{"system":"http://terminology.hl7.org/CodeSystem/v3-ActCode","code":"PRENC","display":"pre-admission"},"type":[{"coding":[{"system":"http://terminology.hl7.org/CodeSystem/encounter-type","code":"OKI"}]}],"subject":{"reference":"Patient/7aaeeae6-3194-4f8c-8c79-21b5b56d388f"},"period":{"start":"2022-07-29T00:00:00+00:00","end":"2022-08-03T00:00:00+00:00"}},"request":{"method":"POST","url":"Encounter"}},{"fullUrl":"Patient/b5026c2b-f34d-47f3-8543-97a7ba2d20dc","resource":{"resourceType":"Patient","id":"b5026c2b-f34d-47f3-8543-97a7ba2d20dc","identifier":[{"type":{"coding":[{"system":"http://terminology.hl7.org/CodeSystem/v2-0203","code":"MR"}]},"system":"urn:fhirgen:mrn","value":"025-95-6725"}],"name":[{"use":"official","family":"Barr","given":["Sandy"]},{"use":"maiden","family":"Rodriguez"}],"telecom":[{"system":"phone","value":"001-216-295-8616","use":"home"},{"system":"email","value":"kevinmorrow@yahoo.com","use":"work"}],"gender":"female","birthDate":"1955-07-30","address":[{"use":"home","line":["84745 Morrison Lodge Suite 092"],"city":"Murrayborough","state":"AR","postalCode":"71206"},{"use":"old","line":["5637 Tracy Springs Apt. 077"],"city":"East Williammouth","state":"NM","postalCode":"88046"}]},"request":{"method":"POST","url":"Patient"}},{"fullUrl":"Observation/31d3c6c8-7c9f-4d12-8ca6-a5cea7698803","resource":{"resourceType":"Observation","id":"31d3c6c8-7c9f-4d12-8ca6-a5cea7698803","status":"final","code":{"coding":[{"system":"http://loinc.org","code":"50695-6"}]},"subject":{"reference":"Patient/b5026c2b-f34d-47f3-8543-97a7ba2d20dc"},"effectiveDateTime":"2022-01-13T00:00:00+00:00","valueRatio":{"numerator":{"value":1},"denominator":{"value":64}}},"request":{"method":"POST","url":"Observation"}},{"fullUrl":"Observation/4b9c99ae-0e3b-4921-bd8a-7200e7d752d1","resource":{"resourceType":"Observation","id":"4b9c99ae-0e3b-4921-bd8a-7200e7d752d1","status":"final","code":{"coding":[{"system":"http://loinc.org","code":"47235-7"}]},"subject":{"reference":"Patient/b5026c2b-f34d-47f3-8543-97a7ba2d20dc"},"effectiveDateTime":"2022-08-23T00:00:00+00:00","valueRatio":{"numerator":{"value":1},"denominator":{"value":32}}},"request":{"method":"POST","url":"Observation"}},{"fullUrl":"Observation/6dff452d-f64d-4c39-8d2d-18e4d95a097c","resource":{"resourceType":"Observation","id":"6dff452d-f64d-4c39-8d2d-18e4d95a097c","status":"final","code":{"coding":[{"system":"http://loinc.org","code":"47476-7"}]},"subject":{"reference":"Patient/b5026c2b-f34d-47f3-8543-97a7ba2d20dc"},"effectiveDateTime":"2022-12-29T00:00:00+00:00","valueRatio":{"numerator":{"value":1},"denominator":{"value":64}}},"request":{"method":"POST","url":"Observation"}},{"fullUrl":"Condition/e5b9d220-641f-478e-bfba-dcdf79b6f9dc","resource":{"resourceType":"Condition","id":"e5b9d220-641f-478e-bfba-dcdf79b6f9dc","code":{"coding":[{"system":"http://snomed.info/sct","code":"418290006"}]},"subject":{"reference":"Patient/b5026c2b-f34d-47f3-8543-97a7ba2d20dc"},"onsetDateTime":"2022-02-02T00:00:00+00:00"},"request":{"method":"POST","url":"Condition"}},{"fullUrl":"Condition/09fe75e2-5b60-4f39-ac42-7022f0e95276","resource":{"resourceType":"Condition","id":"09fe75e2-5b60-4f39-ac42-7022f0e95276","code":{"coding":[{"system":"http://snomed.info/sct","code":"297123002"}]},"subject":{"reference":"Patient/b5026c2b-f34d-47f3-8543-97a7ba2d20dc"},"onsetDateTime":"2022-02-12T00:00:00+00:00"},"request":{"method":"POST","url":"Condition"}},{"fullUrl":"Condition/8a85585f-562a-4c16-9a8c-46f233efe65f","resource":{"resourceType":"Condition","id":"8a85585f-562a-4c16-9a8c-46f233efe65f","code":{"coding":[{"system":"http://snomed.info/sct","code":"736686006"}]},"subject":{"reference":"Patient/b5026c2b-f34d-47f3-8543-97a7ba2d20dc"},"onsetDateTime":"2022-10-26T00:00:00+00:00"},"request":{"method":"POST","url":"Condition"}},{"fullUrl":"Condition/aeda3501-fc63-484f-acee-03e9dfe58e26","resource":{"resourceType":"Condition","id":"aeda3501-fc63-484f-acee-03e9dfe58e26","code":{"coding":[{"system":"http://snomed.info/sct","code":"405737000"}]},"subject":{"reference":"Patient/b5026c2b-f34d-47f3-8543-97a7ba2d20dc"},"onsetDateTime":"2022-10-18T00:00:00+00:00"},"request":{"method":"POST","url":"Condition"}},{"fullUrl":"Observation/fece0c3f-0cd6-4563-a133-fb5de86d5504","resource":{"resourceType":"Observation","id":"fece0c3f-0cd6-4563-a133-fb5de86d5504","status":"final","code":{"coding":[{"system":"http://loinc.org","code":"49498-9"}]},"subject":{"reference":"Patient/b5026c2b-f34d-47f3-8543-97a7ba2d20dc"},"effectiveDateTime":"2022-02-03T00:00:00+00:00","valueQuantity":{"value":5}},"request":{"method":"POST","url":"Observation"}},{"fullUrl":"Observation/857e61a7-cf2a-4dfb-8125-c3231495279d","resource":{"resourceType":"Observation","id":"857e61a7-cf2a-4dfb-8125-c3231495279d","status":"final","code":{"coding":[{"system":"http://loinc.org","code":"6690-2"}]},"subject":{"reference":"Patient/b5026c2b-f34d-47f3-8543-97a7ba2d20dc"},"effectiveDateTime":"2022-03-13T00:00:00+00:00","valueQuantity":{"value":9.1}},"request":{"method":"POST","url":"Observation"}},{"fullUrl":"Observation/b1673afe-6238-4eca-b1ec-e5836dd9e4b9","resource":{"resourceType":"Observation","id":"b1673afe-6238-4eca-b1ec-e5836dd9e4b9","status":"final","code":{"coding":[{"system":"http://loinc.org","code":"49498-9"}]},"subject":{"reference":"Patient/b5026c2b-f34d-47f3-8543-97a7ba2d20dc"},"effectiveDateTime":"2022-03-09T00:00:00+00:00","valueQuantity":{"value":8.3}},"request":{"method":"POST","url":"Observation"}},{"fullUrl":"Observation/c236af78-0611-4f20-90f4-cb604ac58d57","resource":{"resourceType":"Observation","id":"c236af78-0611-4f20-90f4-cb604ac58d57","status":"final","code":{"coding":[{"system":"http://loinc.org","code":"49498-9"}]},"subject":{"reference":"Patient/b5026c2b-f34d-47f3-8543-97a7ba2d20dc"},"effectiveDateTime":"2022-10-29T00:00:00+00:00"},"request":{"method":"POST","url":"Observation"}},{"fullUrl":"Observation/9dd8af39-dea1-43ff-965f-225615ae2708","resource":{"resourceType":"Observation","id":"9dd8af39-dea1-43ff-965f-225615ae2708","status":"final","code":{"coding":[{"system":"http://loinc.org","code":"49498-9"}]},"subject":{"reference":"Patient/b5026c2b-f34d-47f3-8543-97a7ba2d20dc"},"effectiveDateTime":"2022-03-14T00:00:00+00:00"},"request":{"method":"POST","url":"Observation"}},{"fullUrl":"Procedure/bed68c20-1fac-4293-927f-69f3e34f8a3c","resource":{"resourceType":"Procedure","id":"bed68c20-1fac-4293-927f-69f3e34f8a3c","status":"completed","code":{"coding":[{"system":"http://snomed.info/sct","code":"115006"}]},"subject":{"reference":"Patient/b5026c2b-f34d-47f3-8543-97a7ba2d20dc"},"performedDateTime":"2022-05-04T00:00:00+00:00"},"request":{"method":"POST","url":"Procedure"}},{"fullUrl":"Procedure/f613070b-f540-42bc-809f-37f627e5c625","resource":{"resourceType":"Procedure","id":"f613070b-f540-42bc-809f-37f627e5c625","status":"completed","code":{"coding":[{"system":"http://snomed.info/sct","code":"647000"}]},"subject":{"reference":"Patient/b5026c2b-f34d-47f3-8543-97a7ba2d20dc"},"performedDateTime":"2022-08-04T00:00:00+00:00"},"request":{"method":"POST","url":"Procedure"}},{"fullUrl":"Procedure/da7b4c18-aa96-476b-9b36-1f981ba0633a","resource":{"resourceType":"Procedure","id":"da7b4c18-aa96-476b-9b36-1f981ba0633a","status":"completed","code":{"coding":[{"system":"http://snomed.info/sct","code":"146005"}]},"subject":{"reference":"Patient/b5026c2b-f34d-47f3-8543-97a7ba2d20dc"},"performedDateTime":"2022-11-01T00:00:00+00:00"},"request":{"method":"POST","url":"Procedure"}},{"fullUrl":"MedicationStatement/14546176-5a2a-473f-bb43-605e05e3afc8","resource":{"resourceType":"MedicationStatement","id":"14546176-5a2a-473f-bb43-605e05e3afc8","status":"completed","medicationCodeableConcept":{"coding":[{"system":"http://www.nlm.nih.gov/research/umls/rxnorm","code":"7980"}]},"subject":{"reference":"Patient/b5026c2b-f34d-47f3-8543-97a7ba2d20dc"},"effectiveDateTime":"2022-01-24T00:00:00+00:00","dosage":[{"doseAndRate":[{"doseQuantity":{"value":2,"unit":"TAB","system":"http://terminology.hl7.org/CodeSystem/v3-orderableDrugForm","code":"TAB"}}]}]},"request":{"method":"POST","url":"MedicationStatement"}},{"fullUrl":"MedicationStatement/04582d6c-2714-481f-8feb-3331adce8e57","resource":{"resourceType":"MedicationStatement","id":"04582d6c-2714-481f-8feb-3331adce8e57","status":"completed","medicationCodeableConcept":{"coding":[{"system":"http://www.nlm.nih.gov/research/umls/rxnorm","code":"2193"}]},"subject":{"reference":"Patient/b5026c2b-f34d-47f3-8543-97a7ba2d20dc"},"effectiveDateTime":"2022-07-29T00:00:00+00:00","dosage":[{"doseAndRate":[{"doseQuantity":{"value":1,"unit":"TAB","system":"http://terminology.hl7.org/CodeSystem/v3-orderableDrugForm","code":"TAB"}}]}]},"request":{"method":"POST","url":"MedicationStatement"}},{"fullUrl":"MedicationStatement/a2712838-1624-4a9e-8178-ff1c147d8270","resource":{"resourceType":"MedicationStatement","id":"a2712838-1624-4a9e-8178-ff1c147d8270","status":"completed","medicationCodeableConcept":{"coding":[{"system":"http://www.nlm.nih.gov/research/umls/rxnorm","code":"7984"}]},"subject":{"reference":"Patient/b5026c2b-f34d-47f3-8543-97a7ba2d20dc"},"effectiveDateTime":"2022-04-25T00:00:00+00:00","dosage":[{"doseAndRate":[{"doseQuantity":{"value":1,"unit":"TAB","system":"http://terminology.hl7.org/CodeSystem/v3-orderableDrugForm","code":"TAB"}}]}]},"request":{"method":"POST","url":"MedicationStatement"}},{"fullUrl":"MedicationStatement/3fda9176-0f76-4410-8ebe-207feb1804f7","resource":{"resourceType":"MedicationStatement","id":"3fda9176-0f76-4410-8ebe-207feb1804f7","status":"completed","medicationCodeableConcept":{"coding":[{"system":"http://www.nlm.nih.gov/research/umls/rxnorm","code":"10395"}]},"subject":{"reference":"Patient/b5026c2b-f34d-47f3-8543-97a7ba2d20dc"},"effectiveDateTime":"2022-07-15T00:00:00+00:00","dosage":[{"doseAndRate":[{"doseQuantity":{"value":2,"unit":"TAB","system":"http://terminology.hl7.org/CodeSystem/v3-orderableDrugForm","code":"TAB"}}]}]},"request":{"method":"POST","url":"MedicationStatement"}},{"fullUrl":"MedicationStatement/e51ce863-e7ed-48be-91da-93f73ff406ef","resource":{"resourceType":"MedicationStatement","id":"e51ce863-e7ed-48be-91da-93f73ff406ef","status":"completed","medicationCodeableConcept":{"coding":[{"system":"http://www.nlm.nih.gov/research/umls/rxnorm","code":"7980"}]},"subject":{"reference":"Patient/b5026c2b-f34d-47f3-8543-97a7ba2d20dc"},"effectiveDateTime":"2022-10-16T00:00:00+00:00","dosage":[{"doseAndRate":[{"doseQuantity":{"value":1,"unit":"TAB","system":"http://terminology.hl7.org/CodeSystem/v3-orderableDrugForm","code":"TAB"}}]}]},"request":{"method":"POST","url":"MedicationStatement"}},{"fullUrl":"MedicationStatement/6cbfe38a-a0de-40c0-9987-8f257bbac258","resource":{"resourceType":"MedicationStatement","id":"6cbfe38a-a0de-40c0-9987-8f257bbac258","status":"completed","medicationCodeableConcept":{"coding":[{"system":"http://www.nlm.nih.gov/research/umls/rxnorm","code":"10395"}]},"subject":{"reference":"Patient/b5026c2b-f34d-47f3-8543-97a7ba2d20dc"},"effectiveDateTime":"2022-05-15T00:00:00+00:00","dosage":[{"doseAndRate":[{"doseQuantity":{"value":4.4,"unit":"TAB","system":"http://terminology.hl7.org/CodeSystem/v3-orderableDrugForm","code":"TAB"}}]}]},"request":{"method":"POST","url":"MedicationStatement"}},{"fullUrl":"MedicationStatement/f7dbc431-dbd4-4307-bb1e-1fdf039dc2fc","resource":{"resourceType":"MedicationStatement","id":"f7dbc431-dbd4-4307-bb1e-1fdf039dc2fc","status":"completed","medicationCodeableConcept":{"coding":[{"system":"http://www.nlm.nih.gov/research/umls/rxnorm","code":"7984"}]},"subject":{"reference":"Patient/b5026c2b-f34d-47f3-8543-97a7ba2d20dc"},"effectiveDateTime":"2022-07-30T00:00:00+00:00","dosage":[{"doseAndRate":[{"doseQuantity":{"value":5.7,"unit":"TAB","system":"http://terminology.hl7.org/CodeSystem/v3-orderableDrugForm","code":"TAB"}}]}]},"request":{"method":"POST","url":"MedicationStatement"}},{"fullUrl":"MedicationStatement/37b634d2-78f3-46ab-a2d2-4932b149529c","resource":{"resourceType":"MedicationStatement","id":"37b634d2-78f3-46ab-a2d2-4932b149529c","status":"completed","medicationCodeableConcept":{"coding":[{"system":"http://www.nlm.nih.gov/research/umls/rxnorm","code":"7980"}]},"subject":{"reference":"Patient/b5026c2b-f34d-47f3-8543-97a7ba2d20dc"},"effectiveDateTime":"2022-04-18T00:00:00+00:00","dosage":[{"doseAndRate":[{"doseQuantity":{"value":6.9,"unit":"TAB","system":"http://terminology.hl7.org/CodeSystem/v3-orderableDrugForm","code":"TAB"}}]}]},"request":{"method":"POST","url":"MedicationStatement"}},{"fullUrl":"Encounter/0d19674c-0c7d-4eee-bf74-0e847a926524","resource":{"resourceType":"Encounter","id":"0d19674c-0c7d-4eee-bf74-0e847a926524","status":"finished","class":{"system":"http://terminology.hl7.org/CodeSystem/v3-ActCode","code":"IMP","display":"inpatient encounter"},"type":[{"coding":[{"system":"http://terminology.hl7.org/CodeSystem/encounter-type","code":"OKI"}]}],"subject":{"reference":"Patient/b5026c2b-f34d-47f3-8543-97a7ba2d20dc"},"period":{"start":"2022-01-11T00:00:00+00:00","end":"2022-01-17T00:00:00+00:00"}},"request":{"method":"POST","url":"Encounter"}},{"fullUrl":"Encounter/9e68e9ad-25f7-4630-8107-dc799b81bf4d","resource":{"resourceType":"Encounter","id":"9e68e9ad-25f7-4630-8107-dc799b81bf4d","status":"finished","class":{"system":"http://terminology.hl7.org/CodeSystem/v3-ActCode","code":"IMP","display":"inpatient encounter"},"type":[{"coding":[{"system":"http://terminology.hl7.org/CodeSystem/encounter-type","code":"ADMS"}]}],"subject":{"reference":"Patient/b5026c2b-f34d-47f3-8543-97a7ba2d20dc"},"period":{"start":"2022-09-08T00:00:00+00:00","end":"2022-09-13T00:00:00+00:00"}},"request":{"method":"POST","url":"Encounter"}},{"fullUrl":"Encounter/86d9f34a-b5ca-4069-a74d-7110584fc650","resource":{"resourceType":"Encounter","id":"86d9f34a-b5ca-4069-a74d-7110584fc650","status":"finished","class":{"system":"http://terminology.hl7.org/CodeSystem/v3-ActCode","code":"IMP","display":"inpatient encounter"},"type":[{"coding":[{"system":"http://terminology.hl7.org/CodeSystem/encounter-type","code":"OKI"}]}],"subject":{"reference":"Patient/b5026c2b-f34d-47f3-8543-97a7ba2d20dc"},"period":{"start":"2022-03-03T00:00:00+00:00","end":"2022-03-09T00:00:00+00:00"}},"request":{"method":"POST","url":"Encounter"}},{"fullUrl":"Encounter/6bca89e1-fb41-49ed-9a75-1ed2d85f8a14","resource":{"resourceType":"Encounter","id":"6bca89e1-fb41-49ed-9a75-1ed2d85f8a14","status":"finished","class":{"system":"http://terminology.hl7.org/CodeSystem/v3-ActCode","code":"EMER","display":"emergency"},"type":[{"coding":[{"system":"http://terminology.hl7.org/CodeSystem/encounter-type","code":"ADMS"}]}],"subject":{"reference":"Patient/b5026c2b-f34d-47f3-8543-97a7ba2d20dc"},"period":{"start":"2022-08-01T00:00:00+00:00","end":"2022-08-05T00:00:00+00:00"}},"request":{"method":"POST","url":"Encounter"}},{"fullUrl":"Encounter/08cbd732-4a7e-4e36-87ec-4d3c6ba7578a","resource":{"resourceType":"Encounter","id":"08cbd732-4a7e-4e36-87ec-4d3c6ba7578a","status":"finished","class":{"system":"http://terminology.hl7.org/CodeSystem/v3-ActCode","code":"VR","display":"virtual"},"type":[{"coding":[{"system":"http://terminology.hl7.org/CodeSystem/encounter-type","code":"OKI"}]}],"subject":{"reference":"Patient/b5026c2b-f34d-47f3-8543-97a7ba2d20dc"},"period":{"start":"2022-06-19T00:00:00+00:00","end":"2022-06-22T00:00:00+00:00"}},"request":{"method":"POST","url":"Encounter"}},{"fullUrl":"Encounter/96f1ac4e-ce37-4125-86b5-de4a4d997141","resource":{"resourceType":"Encounter","id":"96f1ac4e-ce37-4125-86b5-de4a4d997141","status":"finished","class":{"system":"http://terminology.hl7.org/CodeSystem/v3-ActCode","code":"ACUTE","display":"inpatient acute"},"type":[{"coding":[{"system":"http://terminology.hl7.org/CodeSystem/encounter-type","code":"OKI"}]}],"subject":{"reference":"Patient/b5026c2b-f34d-47f3-8543-97a7ba2d20dc"},"period":{"start":"2022-07-06T00:00:00+00:00","end":"2022-07-14T00:00:00+00:00"}},"request":{"method":"POST","url":"Encounter"}},{"fullUrl":"Patient/0fcb20c3-d3ad-4399-993f-e38a56254c97","resource":{"resourceType":"Patient","id":"0fcb20c3-d3ad-4399-993f-e38a56254c97","identifier":[{"type":{"coding":[{"system":"http://terminology.hl7.org/CodeSystem/v2-0203","code":"MR"}]},"system":"urn:fhirgen:mrn","value":"680-31-5304"}],"name":[{"use":"official","family":"Jones","given":["Caleb"]},{"use":"maiden","family":"Jackson"}],"telecom":[{"system":"phone","value":"313-236-4267","use":"work"},{"system":"email","value":"richardbranch@gmail.com","use":"work"}],"gender":"other","birthDate":"1960-12-28","address":[{"use":"home","line":["05373 Ellis Roads Apt. 005"],"city":"North Robert","state":"MN","postalCode":"03027"},{"use":"old","line":["6786 Joy Lane"],"city":"Murillofurt","state":"IN","postalCode":"74145"}]},"request":{"method":"POST","url":"Patient"}},{"fullUrl":"Observation/dd6b4bae-088f-499b-a83b-6619780ba75a","resource":{"resourceType":"Observation","id":"dd6b4bae-088f-499b-a83b-6619780ba75a","status":"final","code":{"coding":[{"system":"http://loinc.org","code":"50695-6"}]},"subject":{"reference":"Patient/0fcb20c3-d3ad-4399-993f-e38a56254c97"},"effectiveDateTime":"2022-10-05T00:00:00+00:00","valueRatio":{"numerator":{"value":1},"denominator":{"value":4}}},"request":{"method":"POST","url":"Observation"}},{"fullUrl":"Observation/4830ec26-f642-4619-b877-9fb0db06bf54","resource":{"resourceType":"Observation","id":"4830ec26-f642-4619-b877-9fb0db06bf54","status":"final","code":{"coding":[{"system":"http://loinc.org","code":"50695-6"}]},"subject":{"reference":"Patient/0fcb20c3-d3ad-4399-993f-e38a56254c97"},"effectiveDateTime":"2022-04-14T00:00:00+00:00","valueRatio":{"numerator":{"value":1},"denominator":{"value":4}}},"request":{"method":"POST","url":"Observation"}},{"fullUrl":"Observation/fb1cdd4f-d926-4a48-ab40-deb51fa8498c","resource":{"resourceType":"Observation","id":"fb1cdd4f-d926-4a48-ab40-deb51fa8498c","status":"final","code":{"coding":[{"system":"http://loinc.org","code":"50690-7"}]},"subject":{"reference":"Patient/0fcb20c3-d3ad-4399-993f-e38a56254c97"},"effectiveDateTime":"2022-02-19T00:00:00+00:00","valueRatio":{"numerator":{"value":1},"denominator":{"value":32}}},"request":{"method":"POST","url":"Observation"}},{"fullUrl":"Condition/20ad6209-36f4-4051-a3ca-3a6d7bfc4a19","resource":{"resourceType":"Condition","id":"20ad6209-36f4-4051-a3ca-3a6d7bfc4a19","code":{"coding":[{"system":"http://snomed.info/sct","code":"56317004"}]},"subject":{"reference":"Patient/0fcb20c3-d3ad-4399-993f-e38a56254c97"},"onsetDateTime":"2022-02-05T00:00:00+00:00"},"request":{"method":"POST","url":"Condition"}},{"fullUrl":"Condition/6c5ca372-5d9d-4e4e-afba-9fa13ab80813","resource":{"resourceType":"Condition","id":"6c5ca372-5d9d-4e4e-afba-9fa13ab80813","code":{"coding":[{"system":"http://snomed.info/sct","code":"405737000"}]},"subject":{"reference":"Patient/0fcb20c3-d3ad-4399-993f-e38a56254c97"},"onsetDateTime":"2022-09-16T00:00:00+00:00"},"request":{"method":"POST","url":"Condition"}},{"fullUrl":"Condition/58096c54-6fa0-4fb5-851a-3b1fb49eba32","resource":{"resourceType":"Condition","id":"58096c54-6fa0-4fb5-851a-3b1fb49eba32","code":{"coding":[{"system":"http://snomed.info/sct","code":"271807003"}]},"subject":{"reference":"Patient/0fcb20c3-d3ad-4399-993f-e38a56254c97"},"onsetDateTime":"2022-10-25T00:00:00+00:00"},"request":{"method":"POST","url":"Condition"}},{"fullUrl":"Condition/6a6fd3a7-ce27-4be1-9a54-19446972af93","resource":{"resourceType":"Condition","id":"6a6fd3a7-ce27-4be1-9a54-19446972af93","code":{"coding":[{"system":"http://snomed.info/sct","code":"3951002"}]},"subject":{"reference":"Patient/0fcb20c3-d3ad-4399-993f-e38a56254c97"},"onsetDateTime":"2022-11-07T00:00:00+00:00"},"request":{"method":"POST","url":"Condition"}},{"fullUrl":"Condition/dfcb7b3d-8793-4174-8680-08882e5a833c","resource":{"resourceType":"Condition","id":"dfcb7b3d-8793-4174-8680-08882e5a833c","code":{"coding":[{"system":"http://snomed.info/sct","code":"71315007"}]},"subject":{"reference":"Patient/0fcb20c3-d3ad-4399-993f-e38a56254c97"},"onsetDateTime":"2022-10-14T00:00:00+00:00"},"request":{"method":"POST","url":"Condition"}},{"fullUrl":"Condition/a7da40f8-f4b0-4150-947c-098b86822b28","resource":{"resourceType":"Condition","id":"a7da40f8-f4b0-4150-947c-098b86822b28","code":{"coding":[{"system":"http://snomed.info/sct","code":"30746006"}]},"subject":{"reference":"Patient/0fcb20c3-d3ad-4399-993f-e38a56254c97"},"onsetDateTime":"2022-08-08T00:00:00+00:00"},"request":{"method":"POST","url":"Condition"}},{"fullUrl":"Condition/bf07632f-e484-4a11-a03d-fd640c647d09","resource":{"resourceType":"Condition","id":"bf07632f-e484-4a11-a03d-fd640c647d09","code":{"coding":[{"system":"http://snomed.info/sct","code":"418290006"}]},"subject":{"reference":"Patient/0fcb20c3-d3ad-4399-993f-e38a56254c97"},"onsetDateTime":"2022-04-30T00:00:00+00:00"},"request":{"method":"POST","url":"Condition"}},{"fullUrl":"Condition/0544c7bf-1a67-450b-83e4-7775660e7369","resource":{"resourceType":"Condition","id":"0544c7bf-1a67-450b-83e4-7775660e7369","code":{"coding":[{"system":"http://snomed.info/sct","code":"71315007"}]},"subject":{"reference":"Patient/0fcb20c3-d3ad-4399-993f-e38a56254c97"},"onsetDateTime":"2022-10-04T00:00:00+00:00"},"request":{"method":"POST","url":"Condition"}},{"fullUrl":"Observation/3d792ee6-569b-4dcd-92eb-0fc12b6f4827","resource":{"resourceType":"Observation","id":"3d792ee6-569b-4dcd-92eb-0fc12b6f4827","status":"final","code":{"coding":[{"system":"http://loinc.org","code":"26464-8"}]},"subject":{"reference":"Patient/0fcb20c3-d3ad-4399-993f-e38a56254c97"},"effectiveDateTime":"2022-07-19T00:00:00+00:00","valueQuantity":{"value":6.4}},"request":{"method":"POST","url":"Observation"}},{"fullUrl":"Observation/6d3073ca-207f-4756-bbf7-1f956285b20f","resource":{"resourceType":"Observation","id":"6d3073ca-207f-4756-bbf7-1f956285b20f","status":"final","code":{"coding":[{"system":"http://www.ama-assn.org/go/cpt","code":"85048"}]},"subject":{"reference":"Patient/0fcb20c3-d3ad-4399-993f-e38a56254c97"},"effectiveDateTime":"2022-04-23T00:00:00+00:00","valueQuantity":{"value":6.8}},"request":{"method":"POST","url":"Observation"}},{"fullUrl":"Observation/f3f7dd68-71dc-43a7-8ad9-c9f341998448","resource":{"resourceType":"Observation","id":"f3f7dd68-71dc-43a7-8ad9-c9f341998448","status":"final","code":{"coding":[{"system":"http://loinc.org","code":"49498-9"}]},"subject":{"reference":"Patient/0fcb20c3-d3ad-4399-993f-e38a56254c97"},"effectiveDateTime":"2022-01-04T00:00:00+00:00","valueQuantity":{"value":10}},"request":{"method":"POST","url":"Observation"}},{"fullUrl":"Observation/d1cf9931-d026-452c-ab4f-470928d59382","resource":{"resourceType":"Observation","id":"d1cf9931-d026-452c-ab4f-470928d59382","status":"final","code":{"coding":[{"system":"http://loinc.org","code":"49498-9"}]},"subject":{"reference":"Patient/0fcb20c3-d3ad-4399-993f-e38a56254c97"},"effectiveDateTime":"2022-03-15T00:00:00+00:00"},"request":{"method":"POST","url":"Observation"}},{"fullUrl":"Observation/3873a61c-2347-4850-8a79-58f8d08f1a91","resource":{"resourceType":"Observation","id":"3873a61c-2347-4850-8a79-58f8d08f1a91","status":"final","code":{"coding":[{"system":"http://loinc.org","code":"49498-9"}]},"subject":{"reference":"Patient/0fcb20c3-d3ad-4399-993f-e38a56254c97"},"effectiveDateTime":"2022-11-28T00:00:00+00:00"},"request":{"method":"POST","url":"Observation"}},{"fullUrl":"Observation/3187b287-88f8-4a24-8769-f9e27db48849","resource":{"resourceType":"Observation","id":"3187b287-88f8-4a24-8769-f9e27db48849","status":"final","code":{"coding":[{"system":"http://loinc.org","code":"49498-9"}]},"subject":{"reference":"Patient/0fcb20c3-d3ad-4399-993f-e38a56254c97"},"effectiveDateTime":"2022-12-29T00:00:00+00:00"},"request":{"method":"POST","url":"Observation"}},{"fullUrl":"Procedure/b2f4334c-29a7-465e-aee3-feee964cff6c","resource":{"resourceType":"Procedure","id":"b2f4334c-29a7-465e-aee3-feee964cff6c","status":"completed","code":{"coding":[{"system":"http://snomed.info/sct","code":"104001"}]},"subject":{"reference":"Patient/0fcb20c3-d3ad-4399-993f-e38a56254c97"},"performedDateTime":"2022-05-10T00:00:00+00:00"},"request":{"method":"POST","url":"Procedure"}},{"fullUrl":"Procedure/6c03e02f-e009-49d6-8cf2-1a2fc1e74c3c","resource":{"resourceType":"Procedure","id":"6c03e02f-e009-49d6-8cf2-1a2fc1e74c3c","status":"completed","code":{"coding":[{"system":"http://snomed.info/sct","code":"647000"}]},"subject":{"reference":"Patient/0fcb20c3-d3ad-4399-993f-e38a56254c97"},"performedDateTime":"2022-04-03T00:00:00+00:00"},"request":{"method":"POST","url":"Procedure"}},{"fullUrl":"Procedure/da442c9e-468e-44c4-bb30-087e6994989c","resource":{"resourceType":"Procedure","id":"da442c9e-468e-44c4-bb30-087e6994989c","status":"completed","code":{"coding":[{"system":"http://snomed.info/sct","code":"104001"}]},"subject":{"reference":"Patient/0fcb20c3-d3ad-4399-993f-e38a56254c97"},"performedDateTime":"2022-09-20T00:00:00+00:00"},"request":{"method":"POST","url":"Procedure"}},{"fullUrl":"MedicationStatement/4f2a84de-4fa9-4a68-b072-5db3c6964ed8","resource":{"resourceType":"MedicationStatement","id":"4f2a84de-4fa9-4a68-b072-5db3c6964ed8","status":"completed","medicationCodeableConcept":{"coding":[{"system":"http://www.nlm.nih.gov/research/umls/rxnorm","code":"8698"}]},"subject":{"reference":"Patient/0fcb20c3-d3ad-4399-993f-e38a56254c97"},"effectiveDateTime":"2022-08-24T00:00:00+00:00","dosage":[{"doseAndRate":[{"doseQuantity":{"value":1,"unit":"TAB","system":"http://terminology.hl7.org/CodeSystem/v3-orderableDrugForm","code":"TAB"}}]}]},"request":{"method":"POST","url":"MedicationStatement"}},{"fullUrl":"MedicationStatement/9badcf88-6df8-4941-bdef-718837438b20","resource":{"resourceType":"MedicationStatement","id":"9badcf88-6df8-4941-bdef-718837438b20","status":"completed","medicationCodeableConcept":{"coding":[{"system":"http://www.nlm.nih.gov/research/umls/rxnorm","code":"7980"}]},"subject":{"reference":"Patient/0fcb20c3-d3ad-4399-993f-e38a56254c97"},"effectiveDateTime":"2022-12-10T00:00:00+00:00","dosage":[{"doseAndRate":[{"doseQuantity":{"value":2,"unit":"TAB","system":"http://terminology.hl7.org/CodeSystem/v3-orderableDrugForm","code":"TAB"}}]}]},"request":{"method":"POST","url":"MedicationStatement"}},{"fullUrl":"MedicationStatement/e7de4cb2-5bde-4f3e-a6af-03d0c9f7734b","resource":{"resourceType":"MedicationStatement","id":"e7de4cb2-5bde-4f3e-a6af-03d0c9f7734b","status":"completed","medicationCodeableConcept":{"coding":[{"system":"http://www.nlm.nih.gov/research/umls/rxnorm","code":"18631"}]},"subject":{"reference":"Patient/0fcb20c3-d3ad-4399-993f-e38a56254c97"},"effectiveDateTime":"2022-12-11T00:00:00+00:00","dosage":[{"doseAndRate":[{"doseQuantity":{"value":5.1,"unit":"TAB","system":"http://terminology.hl7.org/CodeSystem/v3-orderableDrugForm","code":"TAB"}}]}]},"request":{"method":"POST","url":"MedicationStatement"}},{"fullUrl":"MedicationStatement/c738e5e2-3444-4fcd-b5ec-c4c9237ee0bd","resource":{"resourceType":"MedicationStatement","id":"c738e5e2-3444-4fcd-b5ec-c4c9237ee0bd","status":"completed","medicationCodeableConcept":{"coding":[{"system":"http://www.nlm.nih.gov/research/umls/rxnorm","code":"8698"}]},"subject":{"reference":"Patient/0fcb20c3-d3ad-4399-993f-e38a56254c97"},"effectiveDateTime":"2022-07-29T00:00:00+00:00","dosage":[{"doseAndRate":[{"doseQuantity":{"value":4.3,"unit":"TAB","system":"http://terminology.hl7.org/CodeSystem/v3-orderableDrugForm","code":"TAB"}}]}]},"request":{"method":"POST","url":"MedicationStatement"}},{"fullUrl":"MedicationStatement/74c0d9f9-1d88-46cb-89c8-ba1a4a3e3ee4","resource":{"resourceType":"MedicationStatement","id":"74c0d9f9-1d88-46cb-89c8-ba1a4a3e3ee4","status":"completed","medicationCodeableConcept":{"coding":[{"system":"http://www.nlm.nih.gov/research/umls/rxnorm","code":"2193"}]},"subject":{"reference":"Patient/0fcb20c3-d3ad-4399-993f-e38a56254c97"},"effectiveDateTime":"2022-11-22T00:00:00+00:00","dosage":[{"doseAndRate":[{"doseQuantity":{"value":6.7,"unit":"TAB","system":"http://terminology.hl7.org/CodeSystem/v3-orderableDrugForm","code":"TAB"}}]}]},"request":{"method":"POST","url":"MedicationStatement"}},{"fullUrl":"MedicationStatement/1d607d44-c71a-4234-a120-ae3601772148","resource":{"resourceType":"MedicationStatement","id":"1d607d44-c71a-4234-a120-ae3601772148","status":"completed","medicationCodeableConcept":{"coding":[{"system":"http://www.nlm.nih.gov/research/umls/rxnorm","code":"10395"}]},"subject":{"reference":"Patient/0fcb20c3-d3ad-4399-993f-e38a56254c97"},"effectiveDateTime":"2022-12-27T00:00:00+00:00","dosage":[{"doseAndRate":[{"doseQuantity":{"value":5.2,"unit":"TAB","system":"http://terminology.hl7.org/CodeSystem/v3-orderableDrugForm","code":"TAB"}}]}]},"request":{"method":"POST","url":"MedicationStatement"}},{"fullUrl":"MedicationStatement/5e36ffca-e7b8-4d9c-b71f-7589f7afaea9","resource":{"resourceType":"MedicationStatement","id":"5e36ffca-e7b8-4d9c-b71f-7589f7afaea9","status":"completed","medicationCodeableConcept":{"coding":[{"system":"http://www.nlm.nih.gov/research/umls/rxnorm","code":"3640"}]},"subject":{"reference":"Patient/0fcb20c3-d3ad-4399-993f-e38a56254c97"},"effectiveDateTime":"2022-08-08T00:00:00+00:00","dosage":[{"doseAndRate":[{"doseQuantity":{"value":6,"unit":"TAB","system":"http://terminology.hl7.org/CodeSystem/v3-orderableDrugForm","code":"TAB"}}]}]},"request":{"method":"POST","url":"MedicationStatement"}},{"fullUrl":"MedicationStatement/6ed78d8e-ebfb-4c7a-9740-c378142eb241","resource":{"resourceType":"MedicationStatement","id":"6ed78d8e-ebfb-4c7a-9740-c378142eb241","status":"completed","medicationCodeableConcept":{"coding":[{"system":"http://www.nlm.nih.gov/research/umls/rxnorm","code":"10395"}]},"subject":{"reference":"Patient/0fcb20c3-d3ad-4399-993f-e38a56254c97"},"effectiveDateTime":"2022-01-03T00:00:00+00:00","dosage":[{"doseAndRate":[{"doseQuantity":{"value":5.5,"unit":"TAB","system":"http://terminology.hl7.org/CodeSystem/v3-orderableDrugForm","code":"TAB"}}]}]},"request":{"method":"POST","url":"MedicationStatement"}},{"fullUrl":"MedicationStatement/dcc91806-d965-400e-9c55-91cc3b0a5844","resource":{"resourceType":"MedicationStatement","id":"dcc91806-d965-400e-9c55-91cc3b0a5844","status":"completed","medicationCodeableConcept":{"coding":[{"system":"http://www.nlm.nih.gov/research/umls/rxnorm","code":"7980"}]},"subject":{"reference":"Patient/0fcb20c3-d3ad-4399-993f-e38a56254c97"},"effectiveDateTime":"2022-05-14T00:00:00+00:00","dosage":[{"doseAndRate":[{"doseQuantity":{"value":6.9,"unit":"TAB","system":"http://terminology.hl7.org/CodeSystem/v3-orderableDrugForm","code":"TAB"}}]}]},"request":{"method":"POST","url":"MedicationStatement"}},{"fullUrl":"Encounter/20445160-21db-4788-a6dc-3705550a1b24","resource":{"resourceType":"Encounter","id":"20445160-21db-4788-a6dc-3705550a1b24","status":"finished","class":{"system":"http://terminology.hl7.org/CodeSystem/v3-ActCode","code":"IMP","display":"inpatient encounter"},"type":[{"coding":[{"system":"http://terminology.hl7.org/CodeSystem/encounter-type","code":"ADMS"}]}],"subject":{"reference":"Patient/0fcb20c3-d3ad-4399-993f-e38a56254c97"},"period":{"start":"2022-05-18T00:00:00+00:00","end":"2022-05-27T00:00:00+00:00"}},"request":{"method":"POST","url":"Encounter"}},{"fullUrl":"Encounter/fd059d83-5cc0-4766-a709-24da294ffd6f","resource":{"resourceType":"Encounter","id":"fd059d83-5cc0-4766-a709-24da294ffd6f","status":"finished","class":{"system":"http://terminology.hl7.org/CodeSystem/v3-ActCode","code":"IMP","display":"inpatient encounter"},"type":[{"coding":[{"system":"http://terminology.hl7.org/CodeSystem/encounter-type","code":"OKI"}]}],"subject":{"reference":"Patient/0fcb20c3-d3ad-4399-993f-e38a56254c97"},"period":{"start":"2022-10-08T00:00:00+00:00","end":"2022-10-08T00:00:00+00:00"}},"request":{"method":"POST","url":"Encounter"}},{"fullUrl":"Encounter/e97e17be-cead-437d-a4d1-3e16ba01314b","resource":{"resourceType":"Encounter","id":"e97e17be-cead-437d-a4d1-3e16ba01314b","status":"finished","class":{"system":"http://terminology.hl7.org/CodeSystem/v3-ActCode","code":"EMER","display":"emergency"},"type":[{"coding":[{"system":"http://terminology.hl7.org/CodeSystem/encounter-type","code":"BD/BM-clin"}]}],"subject":{"reference":"Patient/0fcb20c3-d3ad-4399-993f-e38a56254c97"},"period":{"start":"2022-10-27T00:00:00+00:00","end":"2022-11-05T00:00:00+00:00"}},"request":{"method":"POST","url":"Encounter"}},{"fullUrl":"Encounter/e45bfd35-8605-467e-9b89-bab2435db849","resource":{"resourceType":"Encounter","id":"e45bfd35-8605-467e-9b89-bab2435db849","status":"finished","class":{"system":"http://terminology.hl7.org/CodeSystem/v3-ActCode","code":"EMER","display":"emergency"},"type":[{"coding":[{"system":"http://terminology.hl7.org/CodeSystem/encounter-type","code":"CCS60"}]}],"subject":{"reference":"Patient/0fcb20c3-d3ad-4399-993f-e38a56254c97"},"period":{"start":"2022-11-16T00:00:00+00:00","end":"2022-11-23T00:00:00+00:00"}},"request":{"method":"POST","url":"Encounter"}},{"fullUrl":"Encounter/eef38746-c3cf-4900-a8d8-d9a58c701da6","resource":{"resourceType":"Encounter","id":"eef38746-c3cf-4900-a8d8-d9a58c701da6","status":"finished","class":{"system":"http://terminology.hl7.org/CodeSystem/v3-ActCode","code":"OBSENC","display":"observation encounter"},"type":[{"coding":[{"system":"http://terminology.hl7.org/CodeSystem/encounter-type","code":"BD/BM-clin"}]}],"subject":{"reference":"Patient/0fcb20c3-d3ad-4399-993f-e38a56254c97"},"period":{"start":"2022-02-06T00:00:00+00:00","end":"2022-02-10T00:00:00+00:00"}},"request":{"method":"POST","url":"Encounter"}}]}