{"resourceType":"Bundle","id":"f25156cf-2998-45b5-850e-439a41934554","type":"collection","entry":[{"fullUrl":"Patient/cd1df3e8-d176-46cd-aac1-8c8eba719079","resource":{"resourceType":"Patient","id":"cd1df3e8-d176-46cd-aac1-8c8eba719079","identifier":[{"type":{"coding":[{"system":"http://terminology.hl7.org/CodeSystem/v2-0203","code":"MR"}]},"system":"urn:fhirgen:mrn","value":"646-81-0696"}],"name":[{"family":"Stevens","given":["Dennis"]}],"gender":"male","birthDate":"1945-05-25","address":[{"line":["9116 Decker Rest"],"city":"Tammyfort","state":"Alabama"}]}},{"fullUrl":"Observation/0540e02a-ac48-42d2-8166-d4662ba5d52c","resource":{"resourceType":"Observation","id":"0540e02a-ac48-42d2-8166-d4662ba5d52c","status":"final","code":{"coding":[{"system":"http://loinc.org","code":"47476-7"}]},"subject":{"reference":"Patient/cd1df3e8-d176-46cd-aac1-8c8eba719079"},"effectiveDateTime":"2022-12-10T00:00:00+00:00","valueRatio":{"numerator":{"value":1.0},"denominator":{"value":4.0}}}},{"fullUrl":"Observation/2c58e24e-b5b9-4982-969c-4f6dee00f098","resource":{"resourceType":"Observation","id":"2c58e24e-b5b9-4982-969c-4f6dee00f098","status":"final","code":{"coding":[{"system":"http://loinc.org","code":"50690-7"}]},"subject":{"reference":"Patient/cd1df3e8-d176-46cd-aac1-8c8eba719079"},"effectiveDateTime":"2022-10-24T00:00:00+00:00","valueRatio":{"numerator":{"value":1.0},"denominator":{"value":4.0}}}},{"fullUrl":"Condition/b004a19e-53cf-4de2-9e01-84dfc7fe33c4","resource":{"resourceType":"Condition","id":"b004a19e-53cf-4de2-9e01-84dfc7fe33c4","code":{"coding":[{"system":"http://snomed.info/sct","code":"44882003"}]},"subject":{"reference":"Patient/cd1df3e8-d176-46cd-aac1-8c8eba719079"},"onsetDateTime":"2022-07-22T00:00:00+00:00"}},{"fullUrl":"Condition/b3c0128c-131b-49bc-b10a-77a1f9d2e9d8","resource":{"resourceType":"Condition","id":"b3c0128c-131b-49bc-b10a-77a1f9d2e9d8","code":{"coding":[{"system":"http://snomed.info/sct","code":"198199009"}]},"subject":{"reference":"Patient/cd1df3e8-d176-46cd-aac1-8c8eba719079"},"onsetDateTime":"2022-04-28T00:00:00+00:00"}},{"fullUrl":"Condition/bcd59e73-393e-4f1b-825c-89d5f9f9ee1b","resource":{"resourceType":"Condition","id":"bcd59e73-393e-4f1b-825c-89d5f9f9ee1b","code":{"coding":[{"system":"http://snomed.info/sct","code":"271807003"}]},"subject":{"reference":"Patient/cd1df3e8-d176-46cd-aac1-8c8eba719079"},"onsetDateTime":"2022-01-17T00:00:00+00:00"}},{"fullUrl":"Condition/62a83ee7-ed6e-4f0f-bd26-b71191fd861b","resource":{"resourceType":"Condition","id":"62a83ee7-ed6e-4f0f-bd26-b71191fd861b","code":{"coding":[{"system":"http://snomed.info/sct","code":"271807003"}]},"subject":{"reference":"Patient/cd1df3e8-d176-46cd-aac1-8c8eba719079"},"onsetDateTime":"2022-10-31T00:00:00+00:00"}},{"fullUrl":"Condition/4fb6176b-7864-4782-8d2e-4f5cd724ad01","resource":{"resourceType":"Condition","id":"4fb6176b-7864-4782-8d2e-4f5cd724ad01","code":{"coding":[{"system":"http://snomed.info/sct","code":"31070006"}]},"subject":{"reference":"Patient/cd1df3e8-d176-46cd-aac1-8c8eba719079"},"onsetDateTime":"2022-01-19T00:00:00+00:00"}},{"fullUrl":"Condition/13552578-1fff-4756-8cf9-e5a6af8e1245","resource":{"resourceType":"Condition","id":"13552578-1fff-4756-8cf9-e5a6af8e1245","code":{"coding":[{"system":"http://snomed.info/sct","code":"198199009"}]},"subject":{"reference":"Patient/cd1df3e8-d176-46cd-aac1-8c8eba719079"},"onsetDateTime":"2022-10-17T00:00:00+00:00"}},{"fullUrl":"Observation/77669937-7585-499c-aba5-a3d4fd8e60d8","resource":{"resourceType":"Observation","id":"77669937-7585-499c-aba5-a3d4fd8e60d8","status":"final","code":{"coding":[{"system":"http://loinc.org","code":"6690-2"}]},"subject":{"reference":"Patient/cd1df3e8-d176-46cd-aac1-8c8eba719079"},"effectiveDateTime":"2022-10-15T00:00:00+00:00","valueQuantity":{"value":4.8}}},{"fullUrl":"Observation/69fe6f22-c00e-4510-84e6-7de899d046a3","resource":{"resourceType":"Observation","id":"69fe6f22-c00e-4510-84e6-7de899d046a3","status":"final","code":{"coding":[{"system":"http://loinc.org","code":"804-5"}]},"subject":{"reference":"Patient/cd1df3e8-d176-46cd-aac1-8c8eba719079"},"effectiveDateTime":"2022-07-29T00:00:00+00:00","valueQuantity":{"value":9.2}}},{"fullUrl":"Observation/3e44cd0b-3a40-4ca9-be8d-f90f6ea75a34","resource":{"resourceType":"Observation","id":"3e44cd0b-3a40-4ca9-be8d-f90f6ea75a34","status":"final","code":{"coding":[{"system":"http://loinc.org","code":"49498-9"}]},"subject":{"reference":"Patient/cd1df3e8-d176-46cd-aac1-8c8eba719079"},"effectiveDateTime":"2022-04-24T00:00:00+00:00","valueQuantity":{"value":5.7}}},{"fullUrl":"Patient/675e8f4b-b083-47b5-ac24-fd88987dc56e","resource":{"resourceType":"Patient","id":"675e8f4b-b083-47b5-ac24-fd88987dc56e","identifier":[{"type":{"coding":[{"system":"http://terminology.hl7.org/CodeSystem/v2-0203","code":"MR"}]},"system":"urn:fhirgen:mrn","value":"173-80-1343"}],"name":[{"family":"Duncan","given":["Scott"]}],"gender":"male","birthDate":"1953-10-15","address":[{"line":["48237 Danielle Streets Apt. 695"],"city":"North Henryfurt","state":"California"}]}},{"fullUrl":"Observation/37ff2f0d-a8d5-450f-bc39-ac8ee54a465d","resource":{"resourceType":"Observation","id":"37ff2f0d-a8d5-450f-bc39-ac8ee54a465d","status":"final","code":{"coding":[{"system":"http://loinc.org","code":"11084-1"}]},"subject":{"reference":"Patient/675e8f4b-b083-47b5-ac24-fd88987dc56e"},"effectiveDateTime":"2022-02-23T00:00:00+00:00","valueRatio":{"numerator":{"value":1.0},"denominator":{"value":64.0}}}},{"fullUrl":"Observation/d8463c13-3202-4966-b669-e89542bb991e","resource":{"resourceType":"Observation","id":"d8463c13-3202-4966-b669-e89542bb991e","status":"final","code":{"coding":[{"system":"http://loinc.org","code":"47476-7"}]},"subject":{"reference":"Patient/675e8f4b-b083-47b5-ac24-fd88987dc56e"},"effectiveDateTime":"2022-04-30T00:00:00+00:00","valueRatio":{"numerator":{"value":1.0},"denominator":{"value":32.0}}}},{"fullUrl":"Observation/912f963a-749f-4d51-941e-130cff104110","resource":{"resourceType":"Observation","id":"912f963a-749f-4d51-941e-130cff104110","status":"final","code":{"coding":[{"system":"http://loinc.org","code":"71793-4"}]},"subject":{"reference":"Patient/675e8f4b-b083-47b5-ac24-fd88987dc56e"},"effectiveDateTime":"2022-04-07T00:00:00+00:00","valueRatio":{"numerator":{"value":1.0},"denominator":{"value":64.0}}}},{"fullUrl":"Condition/4c31c860-6c3d-49d6-9beb-551924828129","resource":{"resourceType":"Condition","id":"4c31c860-6c3d-49d6-9beb-551924828129","code":{"coding":[{"system":"http://snomed.info/sct","code":"386661006"}]},"subject":{"reference":"Patient/675e8f4b-b083-47b5-ac24-fd88987dc56e"},"onsetDateTime":"2022-10-31T00:00:00+00:00"}},{"fullUrl":"Condition/fed5a3c5-e22c-4a6b-beea-6648ac66d2a3","resource":{"resourceType":"Condition","id":"fed5a3c5-e22c-4a6b-beea-6648ac66d2a3","code":{"coding":[{"system":"http://snomed.info/sct","code":"91554004"}]},"subject":{"reference":"Patient/675e8f4b-b083-47b5-ac24-fd88987dc56e"},"onsetDateTime":"2022-03-01T00:00:00+00:00"}},{"fullUrl":"Condition/4e613ce2-9169-4067-9c45-b01972be02b3","resource":{"resourceType":"Condition","id":"4e613ce2-9169-4067-9c45-b01972be02b3","code":{"coding":[{"system":"http://snomed.info/sct","code":"79342006"}]},"subject":{"reference":"Patient/675e8f4b-b083-47b5-ac24-fd88987dc56e"},"onsetDateTime":"2022-03-20T00:00:00+00:00"}},{"fullUrl":"Condition/9f0130dc-df92-4d67-bdc5-38876740b548","resource":{"resourceType":"Condition","id":"9f0130dc-df92-4d67-bdc5-38876740b548","code":{"coding":[{"system":"http://snomed.info/sct","code":"30746006"}]},"subject":{"reference":"Patient/675e8f4b-b083-47b5-ac24-fd88987dc56e"},"onsetDateTime":"2022-06-07T00:00:00+00:00"}},{"fullUrl":"Condition/4cc5e4a4-eab5-406d-826f-f6fbe8338f2f","resource":{"resourceType":"Condition","id":"4cc5e4a4-eab5-406d-826f-f6fbe8338f2f","code":{"coding":[{"system":"http://snomed.info/sct","code":"56317004"}]},"subject":{"reference":"Patient/675e8f4b-b083-47b5-ac24-fd88987dc56e"},"onsetDateTime":"2022-04-26T00:00:00+00:00"}},{"fullUrl":"Condition/8f440771-1717-4c3d-bf96-702c3c85e21d","resource":{"resourceType":"Condition","id":"8f440771-1717-4c3d-bf96-702c3c85e21d","code":{"coding":[{"system":"http://snomed.info/sct","code":"709977002"}]},"subject":{"reference":"Patient/675e8f4b-b083-47b5-ac24-fd88987dc56e"},"onsetDateTime":"2022-04-23T00:00:00+00:00"}},{"fullUrl":"Condition/c593edfb-f097-40e8-8879-3c1c17960fac","resource":{"resourceType":"Condition","id":"c593edfb-f097-40e8-8879-3c1c17960fac","code":{"coding":[{"system":"http://snomed.info/sct","code":"21522001"}]},"subject":{"reference":"Patient/675e8f4b-b083-47b5-ac24-fd88987dc56e"},"onsetDateTime":"2022-08-16T00:00:00+00:00"}},{"fullUrl":"Observation/d8f5a3cd-b62d-4a96-887e-c2a7552121b5","resource":{"resourceType":"Observation","id":"d8f5a3cd-b62d-4a96-887e-c2a7552121b5","status":"final","code":{"coding":[{"system":"http://loinc.org","code":"804-5"}]},"subject":{"reference":"Patient/675e8f4b-b083-47b5-ac24-fd88987dc56e"},"effectiveDateTime":"2022-12-19T00:00:00+00:00","valueQuantity":{"value":6.6}}},{"fullUrl":"Observation/2ef5d7f5-5846-4c76-a4ac-9140aca2800b","resource":{"resourceType":"Observation","id":"2ef5d7f5-5846-4c76-a4ac-9140aca2800b","status":"final","code":{"coding":[{"system":"http://www.ama-assn.org/go/cpt","code":"85048"}]},"subject":{"reference":"Patient/675e8f4b-b083-47b5-ac24-fd88987dc56e"},"effectiveDateTime":"2022-03-29T00:00:00+00:00","valueQuantity":{"value":10.6}}},{"fullUrl":"Patient/20a61faa-f930-4060-9797-54127677b9f3","resource":{"resourceType":"Patient","id":"20a61faa-f930-4060-9797-54127677b9f3","identifier":[{"type":{"coding":[{"system":"http://terminology.hl7.org/CodeSystem/v2-0203","code":"MR"}]},"system":"urn:fhirgen:mrn","value":"579-23-3432"}],"name":[{"family":"Carlson","given":["Renee"]}],"gender":"female","birthDate":"1948-04-14","address":[{"line":["907 Jessica Expressway"],"city":"North Bryan","state":"Utah"}]}},{"fullUrl":"Observation/d3234e93-08f9-430d-9c3b-69c6bc68b969","resource":{"resourceType":"Observation","id":"d3234e93-08f9-430d-9c3b-69c6bc68b969","status":"final","code":{"coding":[{"system":"http://loinc.org","code":"51475-2"}]},"subject":{"reference":"Patient/20a61faa-f930-4060-9797-54127677b9f3"},"effectiveDateTime":"2022-07-11T00:00:00+00:00","valueRatio":{"numerator":{"value":1.0},"denominator":{"value":64.0}}}},{"fullUrl":"Observation/cf54b326-7989-461a-b53b-f0dbd331cb25","resource":{"resourceType":"Observation","id":"cf54b326-7989-461a-b53b-f0dbd331cb25","status":"final","code":{"coding":[{"system":"http://loinc.org","code":"87925-4"}]},"subject":{"reference":"Patient/20a61faa-f930-4060-9797-54127677b9f3"},"effectiveDateTime":"2022-12-13T00:00:00+00:00","valueRatio":{"numerator":{"value":1.0},"denominator":{"value":32.0}}}},{"fullUrl":"Condition/099521f9-98af-40e6-98c9-23746dbd9d50","resource":{"resourceType":"Condition","id":"099521f9-98af-40e6-98c9-23746dbd9d50","code":{"coding":[{"system":"http://snomed.info/sct","code":"405737000"}]},"subject":{"reference":"Patient/20a61faa-f930-4060-9797-54127677b9f3"},"onsetDateTime":"2022-09-26T00:00:00+00:00"}},{"fullUrl":"Condition/55ce204c-dd7e-4036-902b-8e5201aad98f","resource":{"resourceType":"Condition","id":"55ce204c-dd7e-4036-902b-8e5201aad98f","code":{"coding":[{"system":"http://snomed.info/sct","code":"386661006"}]},"subject":{"reference":"Patient/20a61faa-f930-4060-9797-54127677b9f3"},"onsetDateTime":"2022-04-01T00:00:00+00:00"}},{"fullUrl":"Condition/0a1ee21c-80c2-4812-89be-4d674941f832","resource":{"resourceType":"Condition","id":"0a1ee21c-80c2-4812-89be-4d674941f832","code":{"coding":[{"system":"http://snomed.info/sct","code":"736686006"}]},"subject":{"reference":"Patient/20a61faa-f930-4060-9797-54127677b9f3"},"onsetDateTime":"2022-06-12T00:00:00+00:00"}},{"fullUrl":"Condition/d310b30f-0f6e-43c5-adf0-387c9a5d720f","resource":{"resourceType":"Condition","id":"d310b30f-0f6e-43c5-adf0-387c9a5d720f","code":{"coding":[{"system":"http://snomed.info/sct","code":"248980004"}]},"subject":{"reference":"Patient/20a61faa-f930-4060-9797-54127677b9f3"},"onsetDateTime":"2022-04-06T00:00:00+00:00"}},{"fullUrl":"Observation/dbd83f7a-fa91-46d7-a390-4cd12f9be9ab","resource":{"resourceType":"Observation","id":"dbd83f7a-fa91-46d7-a390-4cd12f9be9ab","status":"final","code":{"coding":[{"system":"http://loinc.org","code":"804-5"}]},"subject":{"reference":"Patient/20a61faa-f930-4060-9797-54127677b9f3"},"effectiveDateTime":"2022-04-29T00:00:00+00:00","valueQuantity":{"value":7.0}}},{"fullUrl":"Observation/7f660ce0-9ffc-4f98-bb54-2fc4e3b29b6e","resource":{"resourceType":"Observation","id":"7f660ce0-9ffc-4f98-bb54-2fc4e3b29b6e","status":"final","code":{"coding":[{"system":"http://loinc.org","code":"26464-8"}]},"subject":{"reference":"Patient/20a61faa-f930-4060-9797-54127677b9f3"},"effectiveDateTime":"2022-03-08T00:00:00+00:00","valueQuantity":{"value":8.0}}},{"fullUrl":"Observation/b733a54a-e125-48df-aff5-9dd30b7462a3","resource":{"resourceType":"Observation","id":"b733a54a-e125-48df-aff5-9dd30b7462a3","status":"final","code":{"coding":[{"system":"http://loinc.org","code":"26464-8"}]},"subject":{"reference":"Patient/20a61faa-f930-4060-9797-54127677b9f3"},"effectiveDateTime":"2022-10-30T00:00:00+00:00","valueQuantity":{"value":5.8}}},{"fullUrl":"Patient/c14cc6cf-68e1-4edb-8add-0ed4891ce5ef","resource":{"resourceType":"Patient","id":"c14cc6cf-68e1-4edb-8add-0ed4891ce5ef","identifier":[{"type":{"coding":[{"system":"http://terminology.hl7.org/CodeSystem/v2-0203","code":"MR"}]},"system":"urn:fhirgen:mrn","value":"312-76-7205"}],"name":[{"family":"Ray","given":["Jennifer"]}],"gender":"female","birthDate":"1967-01-04","address":[{"line":["880 Lisa Ville"],"city":"Laurafort","state":"Colorado"}]}},{"fullUrl":"Observation/9ef497e0-2007-4d9f-a6d3-623eb4f7eadf","resource":{"resourceType":"Observation","id":"9ef497e0-2007-4d9f-a6d3-623eb4f7eadf","status":"final","code":{"coding":[{"system":"http://loinc.org","code":"47476-7"}]},"subject":{"reference":"Patient/c14cc6cf-68e1-4edb-8add-0ed4891ce5ef"},"effectiveDateTime":"2022-02-17T00:00:00+00:00","valueRatio":{"numerator":{"value":1.0},"denominator":{"value":64.0}}}},{"fullUrl":"Observation/647129da-5e66-4e79-9184-1b199cab648a","resource":{"resourceType":"Observation","id":"647129da-5e66-4e79-9184-1b199cab648a","status":"final","code":{"coding":[{"system":"http://loinc.org","code":"46203-6"}]},"subject":{"reference":"Patient/c14cc6cf-68e1-4edb-8add-0ed4891ce5ef"},"effectiveDateTime":"2022-11-25T00:00:00+00:00","valueRatio":{"numerator":{"value":1.0},"denominator":{"value":64.0}}}},{"fullUrl":"Condition/7ce6920d-9840-4faa-b9cf-b8515cac1bf5","resource":{"resourceType":"Condition","id":"7ce6920d-9840-4faa-b9cf-b8515cac1bf5","code":{"coding":[{"system":"http://snomed.info/sct","code":"31070006"}]},"subject":{"reference":"Patient/c14cc6cf-68e1-4edb-8add-0ed4891ce5ef"},"onsetDateTime":"2022-05-05T00:00:00+00:00"}},{"fullUrl":"Condition/1d90a3d2-0304-4d38-98ee-5f5e374d1101","resource":{"resourceType":"Condition","id":"1d90a3d2-0304-4d38-98ee-5f5e374d1101","code":{"coding":[{"system":"http://snomed.info/sct","code":"386661006"}]},"subject":{"reference":"Patient/c14cc6cf-68e1-4edb-8add-0ed4891ce5ef"},"onsetDateTime":"2022-12-09T00:00:00+00:00"}},{"fullUrl":"Condition/9953f448-fb4a-4f05-80ef-8d186a99a504","resource":{"resourceType":"Condition","id":"9953f448-fb4a-4f05-80ef-8d186a99a504","code":{"coding":[{"system":"http://snomed.info/sct","code":"18165001"}]},"subject":{"reference":"Patient/c14cc6cf-68e1-4edb-8add-0ed4891ce5ef"},"onsetDateTime":"2022-04-02T00:00:00+00:00"}},{"fullUrl":"Observation/237900c9-6efb-4b3b-ba27-2ec1eeec8dc9","resource":{"resourceType":"Observation","id":"237900c9-6efb-4b3b-ba27-2ec1eeec8dc9","status":"final","code":{"coding":[{"system":"http://www.ama-assn.org/go/cpt","code":"85048"}]},"subject":{"reference":"Patient/c14cc6cf-68e1-4edb-8add-0ed4891ce5ef"},"effectiveDateTime":"2022-03-03T00:00:00+00:00","valueQuantity":{"value":8.8}}},{"fullUrl":"Observation/40c6c628-c1e8-41a3-8f93-6520b9838681","resource":{"resourceType":"Observation","id":"40c6c628-c1e8-41a3-8f93-6520b9838681","status":"final","code":{"coding":[{"system":"http://loinc.org","code":"804-5"}]},"subject":{"reference":"Patient/c14cc6cf-68e1-4edb-8add-0ed4891ce5ef"},"effectiveDateTime":"2022-10-07T00:00:00+00:00","valueQuantity":{"value":5.5}}},{"fullUrl":"Patient/33c66044-8830-49ca-9c31-114df6eefcab","resource":{"resourceType":"Patient","id":"33c66044-8830-49ca-9c31-114df6eefcab","identifier":[{"type":{"coding":[{"system":"http://terminology.hl7.org/CodeSystem/v2-0203","code":"MR"}]},"system":"urn:fhirgen:mrn","value":"251-71-0062"}],"name":[{"family":"Meza","given":["Steven"]}],"gender":"other","birthDate":"1992-09-07","address":[{"line":["3134 Moore Ferry"],"city":"Port Dillonstad","state":"New Mexico"}]}},{"fullUrl":"Observation/2b8ec07a-1cf3-4aa1-856e-348e712c32ce","resource":{"resourceType":"Observation","id":"2b8ec07a-1cf3-4aa1-856e-348e712c32ce","status":"final","code":{"coding":[{"system":"http://loinc.org","code":"31147-2"}]},"subject":{"reference":"Patient/33c66044-8830-49ca-9c31-114df6eefcab"},"effectiveDateTime":"2022-02-06T00:00:00+00:00","valueRatio":{"numerator":{"value":1.0},"denominator":{"value":32.0}}}},{"fullUrl":"Observation/cec0fd74-c8b9-4de6-883c-22f726ac76ff","resource":{"resourceType":"Observation","id":"cec0fd74-c8b9-4de6-883c-22f726ac76ff","status":"final","code":{"coding":[{"system":"http://loinc.org","code":"47235-7"}]},"subject":{"reference":"Patient/33c66044-8830-49ca-9c31-114df6eefcab"},"effectiveDateTime":"2022-11-21T00:00:00+00:00","valueRatio":{"numerator":{"value":1.0},"denominator":{"value":64.0}}}},{"fullUrl":"Observation/efb1be83-e377-4ba2-bdf7-1ad93a1fe9ab","resource":{"resourceType":"Observation","id":"efb1be83-e377-4ba2-bdf7-1ad93a1fe9ab","status":"final","code":{"coding":[{"system":"http://loinc.org","code":"47235-7"}]},"subject":{"reference":"Patient/33c66044-8830-49ca-9c31-114df6eefcab"},"effectiveDateTime":"2022-05-27T00:00:00+00:00","valueRatio":{"numerator":{"value":1.0},"denominator":{"value":64.0}}}},{"fullUrl":"Condition/6458644b-f913-4d17-8157-dc010b9da39d","resource":{"resourceType":"Condition","id":"6458644b-f913-4d17-8157-dc010b9da39d","code":{"coding":[{"system":"http://snomed.info/sct","code":"709977002"}]},"subject":{"reference":"Patient/33c66044-8830-49ca-9c31-114df6eefcab"},"onsetDateTime":"2022-10-03T00:00:00+00:00"}},{"fullUrl":"Condition/e420fb48-7dbe-4f2f-9f57-5040f3d0dc57","resource":{"resourceType":"Condition","id":"e420fb48-7dbe-4f2f-9f57-5040f3d0dc57","code":{"coding":[{"system":"http://snomed.info/sct","code":"71315007"}]},"subject":{"reference":"Patient/33c66044-8830-49ca-9c31-114df6eefcab"},"onsetDateTime":"2022-11-24T00:00:00+00:00"}},{"fullUrl":"Condition/ca5b9e02-8102-408a-9f05-f97c358803c6","resource":{"resourceType":"Condition","id":"ca5b9e02-8102-408a-9f05-f97c358803c6","code":{"coding":[{"system":"http://snomed.info/sct","code":"18165001"}]},"subject":{"reference":"Patient/33c66044-8830-49ca-9c31-114df6eefcab"},"onsetDateTime":"2022-04-21T00:00:00+00:00"}},{"fullUrl":"Condition/71c85c45-befd-441d-bea9-fce42ec0c10f","resource":{"resourceType":"Condition","id":"71c85c45-befd-441d-bea9-fce42ec0c10f","code":{"coding":[{"system":"http://snomed.info/sct","code":"248980004"}]},"subject":{"reference":"Patient/33c66044-8830-49ca-9c31-114df6eefcab"},"onsetDateTime":"2022-12-13T00:00:00+00:00"}},{"fullUrl":"Condition/f5537175-ae79-4472-95fe-9c9eba677f44","resource":{"resourceType":"Condition","id":"f5537175-ae79-4472-95fe-9c9eba677f44","code":{"coding":[{"system":"http://snomed.info/sct","code":"198199009"}]},"subject":{"reference":"Patient/33c66044-8830-49ca-9c31-114df6eefcab"},"onsetDateTime":"2022-03-03T00:00:00+00:00"}},{"fullUrl":"Condition/a1bf5e2a-bcaa-4bfc-bcd5-f271fe6329bf","resource":{"resourceType":"Condition","id":"a1bf5e2a-bcaa-4bfc-bcd5-f271fe6329bf","code":{"coding":[{"system":"http://snomed.info/sct","code":"21522001"}]},"subject":{"reference":"Patient/33c66044-8830-49ca-9c31-114df6eefcab"},"onsetDateTime":"2022-10-08T00:00:00+00:00"}},{"fullUrl":"Observation/2b3d890e-960e-4ba0-960d-1b3b4d221837","resource":{"resourceType":"Observation","id":"2b3d890e-960e-4ba0-960d-1b3b4d221837","status":"final","code":{"coding":[{"system":"http://www.ama-assn.org/go/cpt","code":"85048"}]},"subject":{"reference":"Patient/33c66044-8830-49ca-9c31-114df6eefcab"},"effectiveDateTime":"2022-12-17T00:00:00+00:00","valueQuantity":{"value":8.0}}},{"fullUrl":"Observation/48d04a9f-83e2-423c-93a8-bcf2c939a05d","resource":{"resourceType":"Observation","id":"48d04a9f-83e2-423c-93a8-bcf2c939a05d","status":"final","code":{"coding":[{"system":"http://www.ama-assn.org/go/cpt","code":"85048"}]},"subject":{"reference":"Patient/33c66044-8830-49ca-9c31-114df6eefcab"},"effectiveDateTime":"2022-10-13T00:00:00+00:00","valueQuantity":{"value":10.1}}},{"fullUrl":"Observation/05e05c1a-390f-4779-ad1a-f27a1d60ff38","resource":{"resourceType":"Observation","id":"05e05c1a-390f-4779-ad1a-f27a1d60ff38","status":"final","code":{"coding":[{"system":"http://loinc.org","code":"804-5"}]},"subject":{"reference":"Patient/33c66044-8830-49ca-9c31-114df6eefcab"},"effectiveDateTime":"2022-06-15T00:00:00+00:00","valueQuantity":{"value":4.4}}}]}