{"resourceType":"Bundle","id":"d63a75ce-2791-46c8-9860-a8f46f46c1b2","type":"collection","entry":[{"fullUrl":"Patient/ec90d48d-47ae-4956-9ca9-3acaf2f20452","resource":{"resourceType":"Patient","id":"ec90d48d-47ae-4956-9ca9-3acaf2f20452","identifier":[{"type":{"coding":[{"system":"http://terminology.hl7.org/CodeSystem/v2-0203","code":"MR"}]},"system":"urn:fhirgen:mrn","value":"456-15-2397"}],"name":[{"family":"Hayes","given":["Joseph"]}],"gender":"male","birthDate":"1969-10-04","address":[{"line":["9992 Teresa Circle Suite 711"],"city":"Jonesland","state":"Missouri"}]}},{"fullUrl":"Observation/a80ab1bf-ed00-4cec-ba94-c5a01095f2e1","resource":{"resourceType":"Observation","id":"a80ab1bf-ed00-4cec-ba94-c5a01095f2e1","status":"final","code":{"coding":[{"system":"http://loinc.org","code":"50695-6"}]},"subject":{"reference":"Patient/ec90d48d-47ae-4956-9ca9-3acaf2f20452"},"effectiveDateTime":"2022-07-15T00:00:00+00:00","valueRatio":{"numerator":{"value":1.0},"denominator":{"value":4.0}}}},{"fullUrl":"Observation/a7f7c208-39b4-47d0-ac94-96b4d614aab4","resource":{"resourceType":"Observation","id":"a7f7c208-39b4-47d0-ac94-96b4d614aab4","status":"final","code":{"coding":[{"system":"http://loinc.org","code":"11084-1"}]},"subject":{"reference":"Patient/ec90d48d-47ae-4956-9ca9-3acaf2f20452"},"effectiveDateTime":"2022-09-04T00:00:00+00:00","valueRatio":{"numerator":{"value":1.0},"denominator":{"value":32.0}}}},{"fullUrl":"Condition/3fca1c98-7fe1-4c75-b1e3-f4c3f47cfb8c","resource":{"resourceType":"Condition","id":"3fca1c98-7fe1-4c75-b1e3-f4c3f47cfb8c","code":{"coding":[{"system":"http://snomed.info/sct","code":"44882003"}]},"subject":{"reference":"Patient/ec90d48d-47ae-4956-9ca9-3acaf2f20452"},"onsetDateTime":"2022-12-05T00:00:00+00:00"}},{"fullUrl":"Condition/fb4b7b74-41be-4a7e-8822-77e004df6905","resource":{"resourceType":"Condition","id":"fb4b7b74-41be-4a7e-8822-77e004df6905","code":{"coding":[{"system":"http://snomed.info/sct","code":"297123002"}]},"subject":{"reference":"Patient/ec90d48d-47ae-4956-9ca9-3acaf2f20452"},"onsetDateTime":"2022-10-24T00:00:00+00:00"}},{"fullUrl":"Condition/3dd0f179-1e64-4beb-8b47-efbcc77580ad","resource":{"resourceType":"Condition","id":"3dd0f179-1e64-4beb-8b47-efbcc77580ad","code":{"coding":[{"system":"http://snomed.info/sct","code":"31070006"}]},"subject":{"reference":"Patient/ec90d48d-47ae-4956-9ca9-3acaf2f20452"},"onsetDateTime":"2022-02-04T00:00:00+00:00"}},{"fullUrl":"Condition/ec00da0c-6699-44d4-af56-4e7803bdbb0e","resource":{"resourceType":"Condition","id":"ec00da0c-6699-44d4-af56-4e7803bdbb0e","code":{"coding":[{"system":"http://snomed.info/sct","code":"736686006"}]},"subject":{"reference":"Patient/ec90d48d-47ae-4956-9ca9-3acaf2f20452"},"onsetDateTime":"2022-04-12T00:00:00+00:00"}},{"fullUrl":"Condition/b8e30e50-59ce-4069-a445-12851ca098ad","resource":{"resourceType":"Condition","id":"b8e30e50-59ce-4069-a445-12851ca098ad","code":{"coding":[{"system":"http://snomed.info/sct","code":"709977002"}]},"subject":{"reference":"Patient/ec90d48d-47ae-4956-9ca9-3acaf2f20452"},"onsetDateTime":"2022-01-10T00:00:00+00:00"}},{"fullUrl":"Condition/b0cdb5a6-2608-4b7d-bb23-7c14522c101d","resource":{"resourceType":"Condition","id":"b0cdb5a6-2608-4b7d-bb23-7c14522c101d","code":{"coding":[{"system":"http://snomed.info/sct","code":"736686006"}]},"subject":{"reference":"Patient/ec90d48d-47ae-4956-9ca9-3acaf2f20452"},"onsetDateTime":"2022-12-28T00:00:00+00:00"}},{"fullUrl":"Observation/d22b002a-f986-4ed5-b32c-a0481424817a","resource":{"resourceType":"Observation","id":"d22b002a-f986-4ed5-b32c-a0481424817a","status":"final","code":{"coding":[{"system":"http://loinc.org","code":"49498-9"}]},"subject":{"reference":"Patient/ec90d48d-47ae-4956-9ca9-3acaf2f20452"},"effectiveDateTime":"2022-08-27T00:00:00+00:00","valueQuantity":{"value":6.8}}},{"fullUrl":"Observation/40ffc982-2a9e-4a40-9e34-d883f4520d3e","resource":{"resourceType":"Observation","id":"40ffc982-2a9e-4a40-9e34-d883f4520d3e","status":"final","code":{"coding":[{"system":"http://loinc.org","code":"804-5"}]},"subject":{"reference":"Patient/ec90d48d-47ae-4956-9ca9-3acaf2f20452"},"effectiveDateTime":"2022-04-28T00:00:00+00:00","valueQuantity":{"value":6.7}}},{"fullUrl":"Observation/a5668e4a-5ca1-4e61-a711-e8af75a60f49","resource":{"resourceType":"Observation","id":"a5668e4a-5ca1-4e61-a711-e8af75a60f49","status":"final","code":{"coding":[{"system":"http://loinc.org","code":"6690-2"}]},"subject":{"reference":"Patient/ec90d48d-47ae-4956-9ca9-3acaf2f20452"},"effectiveDateTime":"2022-01-02T00:00:00+00:00","valueQuantity":{"value":10.8}}},{"fullUrl":"Procedure/1762b448-c85d-49a0-b767-4e2e34344a85","resource":{"resourceType":"Procedure","id":"1762b448-c85d-49a0-b767-4e2e34344a85","status":"completed","code":{"coding":[{"system":"http://snomed.info/sct","code":"104001"}]},"subject":{"reference":"Patient/ec90d48d-47ae-4956-9ca9-3acaf2f20452"},"performedDateTime":"2022-03-04T00:00:00+00:00"}},{"fullUrl":"Procedure/5826c118-c757-454b-bb92-df8edd63bd12","resource":{"resourceType":"Procedure","id":"5826c118-c757-454b-bb92-df8edd63bd12","status":"completed","code":{"coding":[{"system":"http://snomed.info/sct","code":"146005"}]},"subject":{"reference":"Patient/ec90d48d-47ae-4956-9ca9-3acaf2f20452"},"performedDateTime":"2022-11-28T00:00:00+00:00"}},{"fullUrl":"Procedure/8e16c76c-0bc6-4ee7-86de-9b49e9fecbaa","resource":{"resourceType":"Procedure","id":"8e16c76c-0bc6-4ee7-86de-9b49e9fecbaa","status":"completed","code":{"coding":[{"system":"http://snomed.info/sct","code":"189009"}]},"subject":{"reference":"Patient/ec90d48d-47ae-4956-9ca9-3acaf2f20452"},"performedDateTime":"2022-07-19T00:00:00+00:00"}},{"fullUrl":"MedicationStatement/55ff9928-9e2e-450c-a57e-465af8861248","resource":{"resourceType":"MedicationStatement","id":"55ff9928-9e2e-450c-a57e-465af8861248","status":"completed","medicationCodeableConcept":{"coding":[{"system":"http://www.nlm.nih.gov/research/umls/rxnorm","code":"7984"}]},"subject":{"reference":"Patient/ec90d48d-47ae-4956-9ca9-3acaf2f20452"},"effectiveDateTime":"2022-04-30T00:00:00+00:00","dosage":[{"doseAndRate":[{"doseQuantity":{"value":2.0,"unit":"TAB","system":"http://terminology.hl7.org/CodeSystem/v3-orderableDrugForm","code":"TAB"}}]}]}},{"fullUrl":"MedicationStatement/55c4e745-7e33-486c-8d92-60d8aac9e247","resource":{"resourceType":"MedicationStatement","id":"55c4e745-7e33-486c-8d92-60d8aac9e247","status":"completed","medicationCodeableConcept":{"coding":[{"system":"http://www.nlm.nih.gov/research/umls/rxnorm","code":"8698"}]},"subject":{"reference":"Patient/ec90d48d-47ae-4956-9ca9-3acaf2f20452"},"effectiveDateTime":"2022-03-22T00:00:00+00:00","dosage":[{"doseAndRate":[{"doseQuantity":{"value":1.0,"unit":"TAB","system":"http://terminology.hl7.org/CodeSystem/v3-orderableDrugForm","code":"TAB"}}]}]}},{"fullUrl":"MedicationStatement/edf040aa-cd49-49cb-b792-f5955a1bbad8","resource":{"resourceType":"MedicationStatement","id":"edf040aa-cd49-49cb-b792-f5955a1bbad8","status":"completed","medicationCodeableConcept":{"coding":[{"system":"http://www.nlm.nih.gov/research/umls/rxnorm","code":"2193"}]},"subject":{"reference":"Patient/ec90d48d-47ae-4956-9ca9-3acaf2f20452"},"effectiveDateTime":"2022-07-18T00:00:00+00:00","dosage":[{"doseAndRate":[{"doseQuantity":{"value":2.0,"unit":"TAB","system":"http://terminology.hl7.org/CodeSystem/v3-orderableDrugForm","code":"TAB"}}]}]}},{"fullUrl":"MedicationStatement/5802c65d-fa1b-48d2-bd1a-43834384b182","resource":{"resourceType":"MedicationStatement","id":"5802c65d-fa1b-48d2-bd1a-43834384b182","status":"completed","medicationCodeableConcept":{"coding":[{"system":"http://www.nlm.nih.gov/research/umls/rxnorm","code":"18631"}]},"subject":{"reference":"Patient/ec90d48d-47ae-4956-9ca9-3acaf2f20452"},"effectiveDateTime":"2022-04-30T00:00:00+00:00","dosage":[{"doseAndRate":[{"doseQuantity":{"value":2.0,"unit":"TAB","system":"http://terminology.hl7.org/CodeSystem/v3-orderableDrugForm","code":"TAB"}}]}]}},{"fullUrl":"MedicationStatement/8620b30a-d592-4642-8279-f35a932ae645","resource":{"resourceType":"MedicationStatement","id":"8620b30a-d592-4642-8279-f35a932ae645","status":"completed","medicationCodeableConcept":{"coding":[{"system":"http://www.nlm.nih.gov/research/umls/rxnorm","code":"7984"}]},"subject":{"reference":"Patient/ec90d48d-47ae-4956-9ca9-3acaf2f20452"},"effectiveDateTime":"2022-09-06T00:00:00+00:00","dosage":[{"doseAndRate":[{"doseQuantity":{"value":1.0,"unit":"TAB","system":"http://terminology.hl7.org/CodeSystem/v3-orderableDrugForm","code":"TAB"}}]}]}},{"fullUrl":"MedicationStatement/a1e79309-1c63-4b3b-b567-c870f7d992ec","resource":{"resourceType":"MedicationStatement","id":"a1e79309-1c63-4b3b-b567-c870f7d992ec","status":"completed","medicationCodeableConcept":{"coding":[{"system":"http://www.nlm.nih.gov/research/umls/rxnorm","code":"10395"}]},"subject":{"reference":"Patient/ec90d48d-47ae-4956-9ca9-3acaf2f20452"},"effectiveDateTime":"2022-09-16T00:00:00+00:00","dosage":[{"doseAndRate":[{"doseQuantity":{"value":1.0,"unit":"TAB","system":"http://terminology.hl7.org/CodeSystem/v3-orderableDrugForm","code":"TAB"}}]}]}},{"fullUrl":"Encounter/45cf5b06-9bcd-4b48-86cc-f4b421e159ff","resource":{"resourceType":"Encounter","id":"45cf5b06-9bcd-4b48-86cc-f4b421e159ff","status":"finished","class":{"system":"http://terminology.hl7.org/CodeSystem/v3-ActCode","code":"AMB","display":"ambulatory"},"type":[{"coding":[{"system":"http://terminology.hl7.org/CodeSystem/encounter-type","code":"BD/BM-clin"}]}],"subject":{"reference":"Patient/ec90d48d-47ae-4956-9ca9-3acaf2f20452"},"period":{"start":"2022-04-07T00:00:00+00:00","end":"2022-04-11T00:00:00+00:00"}}},{"fullUrl":"Encounter/2c9a1788-f4eb-410c-8a36-3f76a1fdd9bb","resource":{"resourceType":"Encounter","id":"2c9a1788-f4eb-410c-8a36-3f76a1fdd9bb","status":"finished","class":{"system":"http://terminology.hl7.org/CodeSystem/v3-ActCode","code":"OBSENC","display":"observation encounter"},"type":[{"coding":[{"system":"http://terminology.hl7.org/CodeSystem/encounter-type","code":"ADMS"}]}],"subject":{"reference":"Patient/ec90d48d-47ae-4956-9ca9-3acaf2f20452"},"period":{"start":"2022-08-30T00:00:00+00:00","end":"2022-09-06T00:00:00+00:00"}}},{"fullUrl":"Patient/d1ecf74b-2412-413b-89e3-72def8d70233","resource":{"resourceType":"Patient","id":"d1ecf74b-2412-413b-89e3-72def8d70233","identifier":[{"type":{"coding":[{"system":"http://terminology.hl7.org/CodeSystem/v2-0203","code":"MR"}]},"system":"urn:fhirgen:mrn","value":"874-49-7281"}],"name":[{"family":"Melton","given":["Jeffrey"]}],"gender":"male","birthDate":"1973-09-15","address":[{"line":["2871 Anthony Way Suite 600"],"city":"South Jonathanview","state":"Mississippi"}]}},{"fullUrl":"Observation/8d5f4e8d-d665-4b88-bb42-888017c3fc35","resource":{"resourceType":"Observation","id":"8d5f4e8d-d665-4b88-bb42-888017c3fc35","status":"final","code":{"coding":[{"system":"http://loinc.org","code":"87925-4"}]},"subject":{"reference":"Patient/d1ecf74b-2412-413b-89e3-72def8d70233"},"effectiveDateTime":"2022-10-02T00:00:00+00:00","valueRatio":{"numerator":{"value":1.0},"denominator":{"value":64.0}}}},{"fullUrl":"Observation/cd9a5a13-0f4d-4269-b016-be1e294d8bd8","resource":{"resourceType":"Observation","id":"cd9a5a13-0f4d-4269-b016-be1e294d8bd8","status":"final","code":{"coding":[{"system":"http://loinc.org","code":"22590-4"}]},"subject":{"reference":"Patient/d1ecf74b-2412-413b-89e3-72def8d70233"},"effectiveDateTime":"2022-05-19T00:00:00+00:00","valueRatio":{"numerator":{"value":1.0},"denominator":{"value":64.0}}}},{"fullUrl":"Observation/a99d9ecf-f102-4d9b-a938-eadb778b20ac","resource":{"resourceType":"Observation","id":"a99d9ecf-f102-4d9b-a938-eadb778b20ac","status":"final","code":{"coding":[{"system":"http://loinc.org","code":"47235-7"}]},"subject":{"reference":"Patient/d1ecf74b-2412-413b-89e3-72def8d70233"},"effectiveDateTime":"2022-09-27T00:00:00+00:00","valueRatio":{"numerator":{"value":1.0},"denominator":{"value":4.0}}}},{"fullUrl":"Condition/449dc8a8-be7c-4f2a-a51b-0a1b1ede8d46","resource":{"resourceType":"Condition","id":"449dc8a8-be7c-4f2a-a51b-0a1b1ede8d46","code":{"coding":[{"system":"http://snomed.info/sct","code":"198199009"}]},"subject":{"reference":"Patient/d1ecf74b-2412-413b-89e3-72def8d70233"},"onsetDateTime":"2022-12-21T00:00:00+00:00"}},{"fullUrl":"Condition/7c8fba5a-7c2d-4345-bb4d-d57fcb1949ee","resource":{"resourceType":"Condition","id":"7c8fba5a-7c2d-4345-bb4d-d57fcb1949ee","code":{"coding":[{"system":"http://snomed.info/sct","code":"271939006"}]},"subject":{"reference":"Patient/d1ecf74b-2412-413b-89e3-72def8d70233"},"onsetDateTime":"2022-12-31T00:00:00+00:00"}},{"fullUrl":"Condition/39a89cd5-cba5-4932-9a3b-69db763c51ff","resource":{"resourceType":"Condition","id":"39a89cd5-cba5-4932-9a3b-69db763c51ff","code":{"coding":[{"system":"http://snomed.info/sct","code":"30746006"}]},"subject":{"reference":"Patient/d1ecf74b-2412-413b-89e3-72def8d70233"},"onsetDateTime":"2022-07-21T00:00:00+00:00"}},{"fullUrl":"Condition/89562af8-2b5b-4c2b-bbed-410e841371b5","resource":{"resourceType":"Condition","id":"89562af8-2b5b-4c2b-bbed-410e841371b5","code":{"coding":[{"system":"http://snomed.info/sct","code":"297123002"}]},"subject":{"reference":"Patient/d1ecf74b-2412-413b-89e3-72def8d70233"},"onsetDateTime":"2022-06-20T00:00:00+00:00"}},{"fullUrl":"Condition/35ad5b2e-0e9e-452b-894b-40c963c56e38","resource":{"resourceType":"Condition","id":"35ad5b2e-0e9e-452b-894b-40c963c56e38","code":{"coding":[{"system":"http://snomed.info/sct","code":"31070006"}]},"subject":{"reference":"Patient/d1ecf74b-2412-413b-89e3-72def8d70233"},"onsetDateTime":"2022-11-18T00:00:00+00:00"}},{"fullUrl":"Condition/d75493c4-99f3-4cc4-8a5b-7f8e6db67948","resource":{"resourceType":"Condition","id":"d75493c4-99f3-4cc4-8a5b-7f8e6db67948","code":{"coding":[{"system":"http://snomed.info/sct","code":"198199009"}]},"subject":{"reference":"Patient/d1ecf74b-2412-413b-89e3-72def8d70233"},"onsetDateTime":"2022-04-03T00:00:00+00:00"}},{"fullUrl":"Condition/c98f006d-eba5-48ce-9a4b-a59c402449c1","resource":{"resourceType":"Condition","id":"c98f006d-eba5-48ce-9a4b-a59c402449c1","code":{"coding":[{"system":"http://snomed.info/sct","code":"31070006"}]},"subject":{"reference":"Patient/d1ecf74b-2412-413b-89e3-72def8d70233"},"onsetDateTime":"2022-06-01T00:00:00+00:00"}},{"fullUrl":"Observation/20efc3a1-8e16-4e3d-9648-6503205876b7","resource":{"resourceType":"Observation","id":"20efc3a1-8e16-4e3d-9648-6503205876b7","status":"final","code":{"coding":[{"system":"http://loinc.org","code":"6690-2"}]},"subject":{"reference":"Patient/d1ecf74b-2412-413b-89e3-72def8d70233"},"effectiveDateTime":"2022-03-09T00:00:00+00:00","valueQuantity":{"value":10.0}}},{"fullUrl":"Observation/13fc30b6-c558-4027-a812-9feea280a6a6","resource":{"resourceType":"Observation","id":"13fc30b6-c558-4027-a812-9feea280a6a6","status":"final","code":{"coding":[{"system":"http://loinc.org","code":"6690-2"}]},"subject":{"reference":"Patient/d1ecf74b-2412-413b-89e3-72def8d70233"},"effectiveDateTime":"2022-04-22T00:00:00+00:00","valueQuantity":{"value":7.5}}},{"fullUrl":"Observation/404e06f2-2c04-4add-8828-17b937788e08","resource":{"resourceType":"Observation","id":"404e06f2-2c04-4add-8828-17b937788e08","status":"final","code":{"coding":[{"system":"http://loinc.org","code":"49498-9"}]},"subject":{"reference":"Patient/d1ecf74b-2412-413b-89e3-72def8d70233"},"effectiveDateTime":"2022-03-18T00:00:00+00:00","valueQuantity":{"value":6.6}}},{"fullUrl":"Procedure/f7f9d9eb-735c-48c2-8c8c-c3dbefdf4790","resource":{"resourceType":"Procedure","id":"f7f9d9eb-735c-48c2-8c8c-c3dbefdf4790","status":"completed","code":{"coding":[{"system":"http://snomed.info/sct","code":"115006"}]},"subject":{"reference":"Patient/d1ecf74b-2412-413b-89e3-72def8d70233"},"performedDateTime":"2022-01-17T00:00:00+00:00"}},{"fullUrl":"Procedure/ec486f1e-8418-41d7-a0f3-4e64c09b6b9f","resource":{"resourceType":"Procedure","id":"ec486f1e-8418-41d7-a0f3-4e64c09b6b9f","status":"completed","code":{"coding":[{"system":"http://snomed.info/sct","code":"104001"}]},"subject":{"reference":"Patient/d1ecf74b-2412-413b-89e3-72def8d70233"},"performedDateTime":"2022-09-18T00:00:00+00:00"}},{"fullUrl":"Procedure/46e846cf-ea71-4cd1-ade1-fd22f8c20a7f","resource":{"resourceType":"Procedure","id":"46e846cf-ea71-4cd1-ade1-fd22f8c20a7f","status":"completed","code":{"coding":[{"system":"http://snomed.info/sct","code":"115006"}]},"subject":{"reference":"Patient/d1ecf74b-2412-413b-89e3-72def8d70233"},"performedDateTime":"2022-10-30T00:00:00+00:00"}},{"fullUrl":"MedicationStatement/8d164bb4-a8b1-4a86-b0fd-dc3271beae9d","resource":{"resourceType":"MedicationStatement","id":"8d164bb4-a8b1-4a86-b0fd-dc3271beae9d","status":"completed","medicationCodeableConcept":{"coding":[{"system":"http://www.nlm.nih.gov/research/umls/rxnorm","code":"8698"}]},"subject":{"reference":"Patient/d1ecf74b-2412-413b-89e3-72def8d70233"},"effectiveDateTime":"2022-09-17T00:00:00+00:00","dosage":[{"doseAndRate":[{"doseQuantity":{"value":2.0,"unit":"TAB","system":"http://terminology.hl7.org/CodeSystem/v3-orderableDrugForm","code":"TAB"}}]}]}},{"fullUrl":"MedicationStatement/452ff733-d076-4591-98e9-b7bf51529a33","resource":{"resourceType":"MedicationStatement","id":"452ff733-d076-4591-98e9-b7bf51529a33","status":"completed","medicationCodeableConcept":{"coding":[{"system":"http://www.nlm.nih.gov/research/umls/rxnorm","code":"10395"}]},"subject":{"reference":"Patient/d1ecf74b-2412-413b-89e3-72def8d70233"},"effectiveDateTime":"2022-12-19T00:00:00+00:00","dosage":[{"doseAndRate":[{"doseQuantity":{"value":2.0,"unit":"TAB","system":"http://terminology.hl7.org/CodeSystem/v3-orderableDrugForm","code":"TAB"}}]}]}},{"fullUrl":"MedicationStatement/7bb35f58-eab3-4278-b8de-7d532e2299da","resource":{"resourceType":"MedicationStatement","id":"7bb35f58-eab3-4278-b8de-7d532e2299da","status":"completed","medicationCodeableConcept":{"coding":[{"system":"http://www.nlm.nih.gov/research/umls/rxnorm","code":"3640"}]},"subject":{"reference":"Patient/d1ecf74b-2412-413b-89e3-72def8d70233"},"effectiveDateTime":"2022-01-31T00:00:00+00:00","dosage":[{"doseAndRate":[{"doseQuantity":{"value":1.0,"unit":"TAB","system":"http://terminology.hl7.org/CodeSystem/v3-orderableDrugForm","code":"TAB"}}]}]}},{"fullUrl":"MedicationStatement/f0ad9627-cdc3-479d-b9c5-d4840b86a5ee","resource":{"resourceType":"MedicationStatement","id":"f0ad9627-cdc3-479d-b9c5-d4840b86a5ee","status":"completed","medicationCodeableConcept":{"coding":[{"system":"http://www.nlm.nih.gov/research/umls/rxnorm","code":"2193"}]},"subject":{"reference":"Patient/d1ecf74b-2412-413b-89e3-72def8d70233"},"effectiveDateTime":"2022-05-25T00:00:00+00:00","dosage":[{"doseAndRate":[{"doseQuantity":{"value":2.0,"unit":"TAB","system":"http://terminology.hl7.org/CodeSystem/v3-orderableDrugForm","code":"TAB"}}]}]}},{"fullUrl":"MedicationStatement/3a13d017-685e-455a-b76b-c584bb23391e","resource":{"resourceType":"MedicationStatement","id":"3a13d017-685e-455a-b76b-c584bb23391e","status":"completed","medicationCodeableConcept":{"coding":[{"system":"http://www.nlm.nih.gov/research/umls/rxnorm","code":"7980"}]},"subject":{"reference":"Patient/d1ecf74b-2412-413b-89e3-72def8d70233"},"effectiveDateTime":"2022-10-16T00:00:00+00:00","dosage":[{"doseAndRate":[{"doseQuantity":{"value":2.0,"unit":"TAB","system":"http://terminology.hl7.org/CodeSystem/v3-orderableDrugForm","code":"TAB"}}]}]}},{"fullUrl":"MedicationStatement/a0572224-7da7-4d9f-9537-597d27a021d4","resource":{"resourceType":"MedicationStatement","id":"a0572224-7da7-4d9f-9537-597d27a021d4","status":"completed","medicationCodeableConcept":{"coding":[{"system":"http://www.nlm.nih.gov/research/umls/rxnorm","code":"3640"}]},"subject":{"reference":"Patient/d1ecf74b-2412-413b-89e3-72def8d70233"},"effectiveDateTime":"2022-05-20T00:00:00+00:00","dosage":[{"doseAndRate":[{"doseQuantity":{"value":1.0,"unit":"TAB","system":"http://terminology.hl7.org/CodeSystem/v3-orderableDrugForm","code":"TAB"}}]}]}},{"fullUrl":"Encounter/a0e637f7-1e9f-4f31-ae54-c67b8728805f","resource":{"resourceType":"Encounter","id":"a0e637f7-1e9f-4f31-ae54-c67b8728805f","status":"finished","class":{"system":"http://terminology.hl7.org/CodeSystem/v3-ActCode","code":"SS","display":"short-stay"},"type":[{"coding":[{"system":"http://terminology.hl7.org/CodeSystem/encounter-type","code":"OKI"}]}],"subject":{"reference":"Patient/d1ecf74b-2412-413b-89e3-72def8d70233"},"period":{"start":"2022-01-23T00:00:00+00:00","end":"2022-01-25T00:00:00+00:00"}}},{"fullUrl":"Encounter/0dc36a85-3ab0-4dcf-9a42-7d3747d7d27f","resource":{"resourceType":"Encounter","id":"0dc36a85-3ab0-4dcf-9a42-7d3747d7d27f","status":"finished","class":{"system":"http://terminology.hl7.org/CodeSystem/v3-ActCode","code":"FLD","display":"field"},"type":[{"coding":[{"system":"http://terminology.hl7.org/CodeSystem/encounter-type","code":"BD/BM-clin"}]}],"subject":{"reference":"Patient/d1ecf74b-2412-413b-89e3-72def8d70233"},"period":{"start":"2022-12-28T00:00:00+00:00","end":"2023-01-02T00:00:00+00:00"}}},{"fullUrl":"Encounter/74b83803-cf6b-4c02-a461-ea8222c1e19a","resource":{"resourceType":"Encounter","id":"74b83803-cf6b-4c02-a461-ea8222c1e19a","status":"finished","class":{"system":"http://terminology.hl7.org/CodeSystem/v3-ActCode","code":"IMP","display":"inpatient encounter"},"type":[{"coding":[{"system":"http://terminology.hl7.org/CodeSystem/encounter-type","code":"CCS60"}]}],"subject":{"reference":"Patient/d1ecf74b-2412-413b-89e3-72def8d70233"},"period":{"start":"2022-10-18T00:00:00+00:00","end":"2022-10-20T00:00:00+00:00"}}},{"fullUrl":"Patient/05caf008-14d8-414f-b786-8adf3b315144","resource":{"resourceType":"Patient","id":"05caf008-14d8-414f-b786-8adf3b315144","identifier":[{"type":{"coding":[{"system":"http://terminology.hl7.org/CodeSystem/v2-0203","code":"MR"}]},"system":"urn:fhirgen:mrn","value":"047-08-0382"}],"name":[{"family":"Caldwell","given":["Nicole"]}],"gender":"female","birthDate":"1962-01-15","address":[{"line":["977 Jacob Islands"],"city":"Floydland","state":"New Jersey"}]}},{"fullUrl":"Observation/737c000c-3b45-409d-a956-9977e1e39cbc","resource":{"resourceType":"Observation","id":"737c000c-3b45-409d-a956-9977e1e39cbc","status":"final","code":{"coding":[{"system":"http://loinc.org","code":"50695-6"}]},"subject":{"reference":"Patient/05caf008-14d8-414f-b786-8adf3b315144"},"effectiveDateTime":"2022-04-11T00:00:00+00:00","valueRatio":{"numerator":{"value":1.0},"denominator":{"value":64.0}}}},{"fullUrl":"Observation/33f8c042-a50d-4f7e-b265-73ebffe38d41","resource":{"resourceType":"Observation","id":"33f8c042-a50d-4f7e-b265-73ebffe38d41","status":"final","code":{"coding":[{"system":"http://loinc.org","code":"34382-2"}]},"subject":{"reference":"Patient/05caf008-14d8-414f-b786-8adf3b315144"},"effectiveDateTime":"2022-09-06T00:00:00+00:00","valueRatio":{"numerator":{"value":1.0},"denominator":{"value":64.0}}}},{"fullUrl":"Condition/ba94a43c-941c-4b16-800d-7a39de2c08bf","resource":{"resourceType":"Condition","id":"ba94a43c-941c-4b16-800d-7a39de2c08bf","code":{"coding":[{"system":"http://snomed.info/sct","code":"71315007"}]},"subject":{"reference":"Patient/05caf008-14d8-414f-b786-8adf3b315144"},"onsetDateTime":"2022-10-25T00:00:00+00:00"}},{"fullUrl":"Condition/22c3bd49-7531-4f3d-a7b9-027c5f3b86d0","resource":{"resourceType":"Condition","id":"22c3bd49-7531-4f3d-a7b9-027c5f3b86d0","code":{"coding":[{"system":"http://snomed.info/sct","code":"30746006"}]},"subject":{"reference":"Patient/05caf008-14d8-414f-b786-8adf3b315144"},"onsetDateTime":"2022-05-30T00:00:00+00:00"}},{"fullUrl":"Condition/ed93a35a-3d78-40ab-a966-d4ab1de0d10c","resource":{"resourceType":"Condition","id":"ed93a35a-3d78-40ab-a966-d4ab1de0d10c","code":{"coding":[{"system":"http://snomed.info/sct","code":"198199009"}]},"subject":{"reference":"Patient/05caf008-14d8-414f-b786-8adf3b315144"},"onsetDateTime":"2022-03-09T00:00:00+00:00"}},{"fullUrl":"Observation/4c0ac7b0-21af-4651-8011-30ace7901f7b","resource":{"resourceType":"Observation","id":"4c0ac7b0-21af-4651-8011-30ace7901f7b","status":"final","code":{"coding":[{"system":"http://loinc.org","code":"804-5"}]},"subject":{"reference":"Patient/05caf008-14d8-414f-b786-8adf3b315144"},"effectiveDateTime":"2022-11-24T00:00:00+00:00","valueQuantity":{"value":8.6}}},{"fullUrl":"Observation/f30c0e35-ee21-40c2-81e4-21b33ec3a1ff","resource":{"resourceType":"Observation","id":"f30c0e35-ee21-40c2-81e4-21b33ec3a1ff","status":"final","code":{"coding":[{"system":"http://loinc.org","code":"804-5"}]},"subject":{"reference":"Patient/05caf008-14d8-414f-b786-8adf3b315144"},"effectiveDateTime":"2022-03-11T00:00:00+00:00","valueQuantity":{"value":5.7}}},{"fullUrl":"Observation/0717cba1-ab59-4640-9f9e-972f49183e33","resource":{"resourceType":"Observation","id":"0717cba1-ab59-4640-9f9e-972f49183e33","status":"final","code":{"coding":[{"system":"http://loinc.org","code":"804-5"}]},"subject":{"reference":"Patient/05caf008-14d8-414f-b786-8adf3b315144"},"effectiveDateTime":"2022-10-28T00:00:00+00:00","valueQuantity":{"value":9.0}}},{"fullUrl":"Procedure/57199240-5260-4f1f-a913-21e5a26b9043","resource":{"resourceType":"Procedure","id":"57199240-5260-4f1f-a913-21e5a26b9043","status":"completed","code":{"coding":[{"system":"http://snomed.info/sct","code":"647000"}]},"subject":{"reference":"Patient/05caf008-14d8-414f-b786-8adf3b315144"},"performedDateTime":"2022-11-11T00:00:00+00:00"}},{"fullUrl":"Procedure/70509482-5f45-43b2-aebf-c9d1a6cf8642","resource":{"resourceType":"Procedure","id":"70509482-5f45-43b2-aebf-c9d1a6cf8642","status":"completed","code":{"coding":[{"system":"http://snomed.info/sct","code":"115006"}]},"subject":{"reference":"Patient/05caf008-14d8-414f-b786-8adf3b315144"},"performedDateTime":"2022-02-11T00:00:00+00:00"}},{"fullUrl":"Procedure/aab359a4-043a-4303-a297-fd51c08d9dc1","resource":{"resourceType":"Procedure","id":"aab359a4-043a-4303-a297-fd51c08d9dc1","status":"completed","code":{"coding":[{"system":"http://snomed.info/sct","code":"647000"}]},"subject":{"reference":"Patient/05caf008-14d8-414f-b786-8adf3b315144"},"performedDateTime":"2022-04-22T00:00:00+00:00"}},{"fullUrl":"MedicationStatement/62d28aa1-57bd-41d1-8230-f88220e9c9d3","resource":{"resourceType":"MedicationStatement","id":"62d28aa1-57bd-41d1-8230-f88220e9c9d3","status":"completed","medicationCodeableConcept":{"coding":[{"system":"http://www.nlm.nih.gov/research/umls/rxnorm","code":"10395"}]},"subject":{"reference":"Patient/05caf008-14d8-414f-b786-8adf3b315144"},"effectiveDateTime":"2022-10-01T00:00:00+00:00","dosage":[{"doseAndRate":[{"doseQuantity":{"value":2.0,"unit":"TAB","system":"http://terminology.hl7.org/CodeSystem/v3-orderableDrugForm","code":"TAB"}}]}]}},{"fullUrl":"MedicationStatement/bffd590b-69dc-4164-82bb-5d4eaa0897a6","resource":{"resourceType":"MedicationStatement","id":"bffd590b-69dc-4164-82bb-5d4eaa0897a6","status":"completed","medicationCodeableConcept":{"coding":[{"system":"http://www.nlm.nih.gov/research/umls/rxnorm","code":"3640"}]},"subject":{"reference":"Patient/05caf008-14d8-414f-b786-8adf3b315144"},"effectiveDateTime":"2022-04-17T00:00:00+00:00","dosage":[{"doseAndRate":[{"doseQuantity":{"value":1.0,"unit":"TAB","system":"http://terminology.hl7.org/CodeSystem/v3-orderableDrugForm","code":"TAB"}}]}]}},{"fullUrl":"MedicationStatement/baec8382-079d-4b08-bdf5-e3f4f2b8beb3","resource":{"resourceType":"MedicationStatement","id":"baec8382-079d-4b08-bdf5-e3f4f2b8beb3","status":"completed","medicationCodeableConcept":{"coding":[{"system":"http://www.nlm.nih.gov/research/umls/rxnorm","code":"8698"}]},"subject":{"reference":"Patient/05caf008-14d8-414f-b786-8adf3b315144"},"effectiveDateTime":"2022-06-03T00:00:00+00:00","dosage":[{"doseAndRate":[{"doseQuantity":{"value":1.0,"unit":"TAB","system":"http://terminology.hl7.org/CodeSystem/v3-orderableDrugForm","code":"TAB"}}]}]}},{"fullUrl":"MedicationStatement/8725def5-08a0-40d9-9cb9-2d0c4e07f785","resource":{"resourceType":"MedicationStatement","id":"8725def5-08a0-40d9-9cb9-2d0c4e07f785","status":"completed","medicationCodeableConcept":{"coding":[{"system":"http://www.nlm.nih.gov/research/umls/rxnorm","code":"10395"}]},"subject":{"reference":"Patient/05caf008-14d8-414f-b786-8adf3b315144"},"effectiveDateTime":"2022-11-30T00:00:00+00:00","dosage":[{"doseAndRate":[{"doseQuantity":{"value":2.0,"unit":"TAB","system":"http://terminology.hl7.org/CodeSystem/v3-orderableDrugForm","code":"TAB"}}]}]}},{"fullUrl":"MedicationStatement/cf9710bd-ca72-4368-9830-82389b9cc084","resource":{"resourceType":"MedicationStatement","id":"cf9710bd-ca72-4368-9830-82389b9cc084","status":"completed","medicationCodeableConcept":{"coding":[{"system":"http://www.nlm.nih.gov/research/umls/rxnorm","code":"2193"}]},"subject":{"reference":"Patient/05caf008-14d8-414f-b786-8adf3b315144"},"effectiveDateTime":"2022-09-08T00:00:00+00:00","dosage":[{"doseAndRate":[{"doseQuantity":{"value":1.0,"unit":"TAB","system":"http://terminology.hl7.org/CodeSystem/v3-orderableDrugForm","code":"TAB"}}]}]}},{"fullUrl":"MedicationStatement/68d94cc4-d00c-422d-ae80-5d3b804bbf33","resource":{"resourceType":"MedicationStatement","id":"68d94cc4-d00c-422d-ae80-5d3b804bbf33","status":"completed","medicationCodeableConcept":{"coding":[{"system":"http://www.nlm.nih.gov/research/umls/rxnorm","code":"7980"}]},"subject":{"reference":"Patient/05caf008-14d8-414f-b786-8adf3b315144"},"effectiveDateTime":"2022-06-09T00:00:00+00:00","dosage":[{"doseAndRate":[{"doseQuantity":{"value":2.0,"unit":"TAB","system":"http://terminology.hl7.org/CodeSystem/v3-orderableDrugForm","code":"TAB"}}]}]}},{"fullUrl":"MedicationStatement/3d1d280c-1c54-42b3-8873-84f7be43d7bc","resource":{"resourceType":"MedicationStatement","id":"3d1d280c-1c54-42b3-8873-84f7be43d7bc","status":"completed","medicationCodeableConcept":{"coding":[{"system":"http://www.nlm.nih.gov/research/umls/rxnorm","code":"7984"}]},"subject":{"reference":"Patient/05caf008-14d8-414f-b786-8adf3b315144"},"effectiveDateTime":"2022-10-24T00:00:00+00:00","dosage":[{"doseAndRate":[{"doseQuantity":{"value":2.0,"unit":"TAB","system":"http://terminology.hl7.org/CodeSystem/v3-orderableDrugForm","code":"TAB"}}]}]}},{"fullUrl":"Encounter/d7ff2f12-a5e0-411b-9bdf-ef216c7f4e39","resource":{"resourceType":"Encounter","id":"d7ff2f12-a5e0-411b-9bdf-ef216c7f4e39","status":"finished","class":{"system":"http://terminology.hl7.org/CodeSystem/v3-ActCode","code":"PRENC","display":"pre-admission"},"type":[{"coding":[{"system":"http://terminology.hl7.org/CodeSystem/encounter-type","code":"ADMS"}]}],"subject":{"reference":"Patient/05caf008-14d8-414f-b786-8adf3b315144"},"period":{"start":"2022-11-01T00:00:00+00:00","end":"2022-11-10T00:00:00+00:00"}}},{"fullUrl":"Encounter/af725b59-186a-49ed-b57f-8456266ce13b","resource":{"resourceType":"Encounter","id":"af725b59-186a-49ed-b57f-8456266ce13b","status":"finished","class":{"system":"http://terminology.hl7.org/CodeSystem/v3-ActCode","code":"IMP","display":"inpatient encounter"},"type":[{"coding":[{"system":"http://terminology.hl7.org/CodeSystem/encounter-type","code":"BD/BM-clin"}]}],"subject":{"reference":"Patient/05caf008-14d8-414f-b786-8adf3b315144"},"period":{"start":"2022-05-15T00:00:00+00:00","end":"2022-05-22T00:00:00+00:00"}}},{"fullUrl":"Encounter/92a6b65f-d8ba-4c3e-8917-9533b60879a7","resource":{"resourceType":"Encounter","id":"92a6b65f-d8ba-4c3e-8917-9533b60879a7","status":"finished","class":{"system":"http://terminology.hl7.org/CodeSystem/v3-ActCode","code":"VR","display":"virtual"},"type":[{"coding":[{"system":"http://terminology.hl7.org/CodeSystem/encounter-type","code":"OKI"}]}],"subject":{"reference":"Patient/05caf008-14d8-414f-b786-8adf3b315144"},"period":{"start":"2022-04-23T00:00:00+00:00","end":"2022-04-25T00:00:00+00:00"}}},{"fullUrl":"Patient/2a59d3b7-975f-4597-ac99-e38072eb1213","resource":{"resourceType":"Patient","id":"2a59d3b7-975f-4597-ac99-e38072eb1213","identifier":[{"type":{"coding":[{"system":"http://terminology.hl7.org/CodeSystem/v2-0203","code":"MR"}]},"system":"urn:fhirgen:mrn","value":"734-74-9006"}],"name":[{"family":"Salazar","given":["Carrie"]}],"gender":"female","birthDate":"1955-03-15","address":[{"line":["74727 Laura Grove Apt. 639"],"city":"Jameshaven","state":"North Dakota"}]}},{"fullUrl":"Observation/e0a3a31f-df4c-44e3-94f9-a9cc19cf6cb1","resource":{"resourceType":"Observation","id":"e0a3a31f-df4c-44e3-94f9-a9cc19cf6cb1","status":"final","code":{"coding":[{"system":"http://loinc.org","code":"46203-6"}]},"subject":{"reference":"Patient/2a59d3b7-975f-4597-ac99-e38072eb1213"},"effectiveDateTime":"2022-07-29T00:00:00+00:00","valueRatio":{"numerator":{"value":1.0},"denominator":{"value":4.0}}}},{"fullUrl":"Observation/0417f153-9b7a-402e-b547-75c9432a9c83","resource":{"resourceType":"Observation","id":"0417f153-9b7a-402e-b547-75c9432a9c83","status":"final","code":{"coding":[{"system":"http://loinc.org","code":"50690-7"}]},"subject":{"reference":"Patient/2a59d3b7-975f-4597-ac99-e38072eb1213"},"effectiveDateTime":"2022-12-07T00:00:00+00:00","valueRatio":{"numerator":{"value":1.0},"denominator":{"value":4.0}}}},{"fullUrl":"Observation/69555d54-9a84-4b27-85b6-15d9dfb0fd39","resource":{"resourceType":"Observation","id":"69555d54-9a84-4b27-85b6-15d9dfb0fd39","status":"final","code":{"coding":[{"system":"http://loinc.org","code":"47476-7"}]},"subject":{"reference":"Patient/2a59d3b7-975f-4597-ac99-e38072eb1213"},"effectiveDateTime":"2022-10-28T00:00:00+00:00","valueRatio":{"numerator":{"value":1.0},"denominator":{"value":4.0}}}},{"fullUrl":"Condition/2c4516c9-0a05-49fa-9c24-7d03c886be93","resource":{"resourceType":"Condition","id":"2c4516c9-0a05-49fa-9c24-7d03c886be93","code":{"coding":[{"system":"http://snomed.info/sct","code":"3951002"}]},"subject":{"reference":"Patient/2a59d3b7-975f-4597-ac99-e38072eb1213"},"onsetDateTime":"2022-02-08T00:00:00+00:00"}},{"fullUrl":"Condition/38a1bd92-2529-4d02-a7e8-75639646283a","resource":{"resourceType":"Condition","id":"38a1bd92-2529-4d02-a7e8-75639646283a","code":{"coding":[{"system":"http://snomed.info/sct","code":"91554004"}]},"subject":{"reference":"Patient/2a59d3b7-975f-4597-ac99-e38072eb1213"},"onsetDateTime":"2022-05-12T00:00:00+00:00"}},{"fullUrl":"Condition/f3763893-1d83-4869-8030-3e259c7d5a23","resource":{"resourceType":"Condition","id":"f3763893-1d83-4869-8030-3e259c7d5a23","code":{"coding":[{"system":"http://snomed.info/sct","code":"79342006"}]},"subject":{"reference":"Patient/2a59d3b7-975f-4597-ac99-e38072eb1213"},"onsetDateTime":"2022-03-13T00:00:00+00:00"}},{"fullUrl":"Condition/4fa51b10-115e-4ad9-96ed-8cb6d04d26fb","resource":{"resourceType":"Condition","id":"4fa51b10-115e-4ad9-96ed-8cb6d04d26fb","code":{"coding":[{"system":"http://snomed.info/sct","code":"271807003"}]},"subject":{"reference":"Patient/2a59d3b7-975f-4597-ac99-e38072eb1213"},"onsetDateTime":"2022-09-15T00:00:00+00:00"}},{"fullUrl":"Condition/b585bba2-4026-4dd7-b170-30b8987d0451","resource":{"resourceType":"Condition","id":"b585bba2-4026-4dd7-b170-30b8987d0451","code":{"coding":[{"system":"http://snomed.info/sct","code":"198199009"}]},"subject":{"reference":"Patient/2a59d3b7-975f-4597-ac99-e38072eb1213"},"onsetDateTime":"2022-07-23T00:00:00+00:00"}},{"fullUrl":"Condition/db851e87-c850-428c-8858-2c08bb6d2fc1","resource":{"resourceType":"Condition","id":"db851e87-c850-428c-8858-2c08bb6d2fc1","code":{"coding":[{"system":"http://snomed.info/sct","code":"44882003"}]},"subject":{"reference":"Patient/2a59d3b7-975f-4597-ac99-e38072eb1213"},"onsetDateTime":"2022-07-10T00:00:00+00:00"}},{"fullUrl":"Condition/38b3b12e-f8f7-4462-8409-ac1c341d755b","resource":{"resourceType":"Condition","id":"38b3b12e-f8f7-4462-8409-ac1c341d755b","code":{"coding":[{"system":"http://snomed.info/sct","code":"405737000"}]},"subject":{"reference":"Patient/2a59d3b7-975f-4597-ac99-e38072eb1213"},"onsetDateTime":"2022-09-15T00:00:00+00:00"}},{"fullUrl":"Observation/4df631f6-26b2-4a28-96d6-8575a97a8508","resource":{"resourceType":"Observation","id":"4df631f6-26b2-4a28-96d6-8575a97a8508","status":"final","code":{"coding":[{"system":"http://loinc.org","code":"49498-9"}]},"subject":{"reference":"Patient/2a59d3b7-975f-4597-ac99-e38072eb1213"},"effectiveDateTime":"2022-09-18T00:00:00+00:00","valueQuantity":{"value":9.8}}},{"fullUrl":"Observation/4bbea3b1-603b-42f0-b6dc-a7c69ea9fc9a","resource":{"resourceType":"Observation","id":"4bbea3b1-603b-42f0-b6dc-a7c69ea9fc9a","status":"final","code":{"coding":[{"system":"http://loinc.org","code":"804-5"}]},"subject":{"reference":"Patient/2a59d3b7-975f-4597-ac99-e38072eb1213"},"effectiveDateTime":"2022-05-16T00:00:00+00:00","valueQuantity":{"value":10.6}}},{"fullUrl":"Observation/b495599b-1ae8-45b7-83d5-c0d2d5fe2f74","resource":{"resourceType":"Observation","id":"b495599b-1ae8-45b7-83d5-c0d2d5fe2f74","status":"final","code":{"coding":[{"system":"http://www.ama-assn.org/go/cpt","code":"85048"}]},"subject":{"reference":"Patient/2a59d3b7-975f-4597-ac99-e38072eb1213"},"effectiveDateTime":"2022-07-04T00:00:00+00:00","valueQuantity":{"value":9.7}}},{"fullUrl":"Procedure/6b8d0084-bafb-4096-84cc-a6d97f203f82","resource":{"resourceType":"Procedure","id":"6b8d0084-bafb-4096-84cc-a6d97f203f82","status":"completed","code":{"coding":[{"system":"http://snomed.info/sct","code":"647000"}]},"subject":{"reference":"Patient/2a59d3b7-975f-4597-ac99-e38072eb1213"},"performedDateTime":"2022-11-09T00:00:00+00:00"}},{"fullUrl":"Procedure/2abb9f88-8bd5-4a29-a115-41c8e2a0ca5f","resource":{"resourceType":"Procedure","id":"2abb9f88-8bd5-4a29-a115-41c8e2a0ca5f","status":"completed","code":{"coding":[{"system":"http://snomed.info/sct","code":"115006"}]},"subject":{"reference":"Patient/2a59d3b7-975f-4597-ac99-e38072eb1213"},"performedDateTime":"2022-12-25T00:00:00+00:00"}},{"fullUrl":"Procedure/73b13d54-8a52-4b44-a144-5ddbf4fd3b73","resource":{"resourceType":"Procedure","id":"73b13d54-8a52-4b44-a144-5ddbf4fd3b73","status":"completed","code":{"coding":[{"system":"http://snomed.info/sct","code":"146005"}]},"subject":{"reference":"Patient/2a59d3b7-975f-4597-ac99-e38072eb1213"},"performedDateTime":"2022-09-13T00:00:00+00:00"}},{"fullUrl":"MedicationStatement/d501f5f6-9566-458d-b991-77b864820c12","resource":{"resourceType":"MedicationStatement","id":"d501f5f6-9566-458d-b991-77b864820c12","status":"completed","medicationCodeableConcept":{"coding":[{"system":"http://www.nlm.nih.gov/research/umls/rxnorm","code":"3640"}]},"subject":{"reference":"Patient/2a59d3b7-975f-4597-ac99-e38072eb1213"},"effectiveDateTime":"2022-05-15T00:00:00+00:00","dosage":[{"doseAndRate":[{"doseQuantity":{"value":2.0,"unit":"TAB","system":"http://terminology.hl7.org/CodeSystem/v3-orderableDrugForm","code":"TAB"}}]}]}},{"fullUrl":"MedicationStatement/16cb8a8e-1aad-4424-96a7-81c71757f3eb","resource":{"resourceType":"MedicationStatement","id":"16cb8a8e-1aad-4424-96a7-81c71757f3eb","status":"completed","medicationCodeableConcept":{"coding":[{"system":"http://www.nlm.nih.gov/research/umls/rxnorm","code":"7980"}]},"subject":{"reference":"Patient/2a59d3b7-975f-4597-ac99-e38072eb1213"},"effectiveDateTime":"2022-01-15T00:00:00+00:00","dosage":[{"doseAndRate":[{"doseQuantity":{"value":1.0,"unit":"TAB","system":"http://terminology.hl7.org/CodeSystem/v3-orderableDrugForm","code":"TAB"}}]}]}},{"fullUrl":"MedicationStatement/09843463-cf3d-4262-a9c4-8c6b7f96244c","resource":{"resourceType":"MedicationStatement","id":"09843463-cf3d-4262-a9c4-8c6b7f96244c","status":"completed","medicationCodeableConcept":{"coding":[{"system":"http://www.nlm.nih.gov/research/umls/rxnorm","code":"10395"}]},"subject":{"reference":"Patient/2a59d3b7-975f-4597-ac99-e38072eb1213"},"effectiveDateTime":"2022-07-02T00:00:00+00:00","dosage":[{"doseAndRate":[{"doseQuantity":{"value":1.0,"unit":"TAB","system":"http://terminology.hl7.org/CodeSystem/v3-orderableDrugForm","code":"TAB"}}]}]}},{"fullUrl":"MedicationStatement/d99e1677-7e43-4e38-b907-30196e08f2b1","resource":{"resourceType":"MedicationStatement","id":"d99e1677-7e43-4e38-b907-30196e08f2b1","status":"completed","medicationCodeableConcept":{"coding":[{"system":"http://www.nlm.nih.gov/research/umls/rxnorm","code":"18631"}]},"subject":{"reference":"Patient/2a59d3b7-975f-4597-ac99-e38072eb1213"},"effectiveDateTime":"2022-07-16T00:00:00+00:00","dosage":[{"doseAndRate":[{"doseQuantity":{"value":1.0,"unit":"TAB","system":"http://terminology.hl7.org/CodeSystem/v3-orderableDrugForm","code":"TAB"}}]}]}},{"fullUrl":"MedicationStatement/b1dee931-80b3-41b1-a86b-ce322e4cf653","resource":{"resourceType":"MedicationStatement","id":"b1dee931-80b3-41b1-a86b-ce322e4cf653","status":"completed","medicationCodeableConcept":{"coding":[{"system":"http://www.nlm.nih.gov/research/umls/rxnorm","code":"3640"}]},"subject":{"reference":"Patient/2a59d3b7-975f-4597-ac99-e38072eb1213"},"effectiveDateTime":"2022-04-01T00:00:00+00:00","dosage":[{"doseAndRate":[{"doseQuantity":{"value":1.0,"unit":"TAB","system":"http://terminology.hl7.org/CodeSystem/v3-orderableDrugForm","code":"TAB"}}]}]}},{"fullUrl":"MedicationStatement/f332601a-1db7-4804-b48c-e89f1097eb51","resource":{"resourceType":"MedicationStatement","id":"f332601a-1db7-4804-b48c-e89f1097eb51","status":"completed","medicationCodeableConcept":{"coding":[{"system":"http://www.nlm.nih.gov/research/umls/rxnorm","code":"7984"}]},"subject":{"reference":"Patient/2a59d3b7-975f-4597-ac99-e38072eb1213"},"effectiveDateTime":"2022-06-21T00:00:00+00:00","dosage":[{"doseAndRate":[{"doseQuantity":{"value":1.0,"unit":"TAB","system":"http://terminology.hl7.org/CodeSystem/v3-orderableDrugForm","code":"TAB"}}]}]}},{"fullUrl":"MedicationStatement/97e0101c-2142-444c-a0d5-7073bb60783e","resource":{"resourceType":"MedicationStatement","id":"97e0101c-2142-444c-a0d5-7073bb60783e","status":"completed","medicationCodeableConcept":{"coding":[{"system":"http://www.nlm.nih.gov/research/umls/rxnorm","code":"2193"}]},"subject":{"reference":"Patient/2a59d3b7-975f-4597-ac99-e38072eb1213"},"effectiveDateTime":"2022-03-25T00:00:00+00:00","dosage":[{"doseAndRate":[{"doseQuantity":{"value":2.0,"unit":"TAB","system":"http://terminology.hl7.org/CodeSystem/v3-orderableDrugForm","code":"TAB"}}]}]}},{"fullUrl":"Encounter/6453caa7-c3b1-4e8f-bcb6-191a13858f55","resource":{"resourceType":"Encounter","id":"6453caa7-c3b1-4e8f-bcb6-191a13858f55","status":"finished","class":{"system":"http://terminology.hl7.org/CodeSystem/v3-ActCode","code":"OBSENC","display":"observation encounter"},"type":[{"coding":[{"system":"http://terminology.hl7.org/CodeSystem/encounter-type","code":"BD/BM-clin"}]}],"subject":{"reference":"Patient/2a59d3b7-975f-4597-ac99-e38072eb1213"},"period":{"start":"2022-09-05T00:00:00+00:00","end":"2022-09-06T00:00:00+00:00"}}},{"fullUrl":"Encounter/3423cd1e-7300-44cb-8844-3aa3670118c3","resource":{"resourceType":"Encounter","id":"3423cd1e-7300-44cb-8844-3aa3670118c3","status":"finished","class":{"system":"http://terminology.hl7.org/CodeSystem/v3-ActCode","code":"SS","display":"short-stay"},"type":[{"coding":[{"system":"http://terminology.hl7.org/CodeSystem/encounter-type","code":"OKI"}]}],"subject":{"reference":"Patient/2a59d3b7-975f-4597-ac99-e38072eb1213"},"period":{"start":"2022-03-21T00:00:00+00:00","end":"2022-03-30T00:00:00+00:00"}}},{"fullUrl":"Encounter/9994d985-8b37-4d18-ac39-87f0bd6a1618","resource":{"resourceType":"Encounter","id":"9994d985-8b37-4d18-ac39-87f0bd6a1618","status":"finished","class":{"system":"http://terminology.hl7.org/CodeSystem/v3-ActCode","code":"NONAC","display":"inpatient non-acute"},"type":[{"coding":[{"system":"http://terminology.hl7.org/CodeSystem/encounter-type","code":"OKI"}]}],"subject":{"reference":"Patient/2a59d3b7-975f-4597-ac99-e38072eb1213"},"period":{"start":"2022-07-17T00:00:00+00:00","end":"2022-07-19T00:00:00+00:00"}}},{"fullUrl":"Patient/159244a7-a543-4c20-bc65-e4bb48962ea9","resource":{"resourceType":"Patient","id":"159244a7-a543-4c20-bc65-e4bb48962ea9","identifier":[{"type":{"coding":[{"system":"http://terminology.hl7.org/CodeSystem/v2-0203","code":"MR"}]},"system":"urn:fhirgen:mrn","value":"503-86-6117"}],"name":[{"family":"Perry","given":["Caitlin"]}],"gender":"other","birthDate":"1991-09-10","address":[{"line":["261 Angela Forest"],"city":"Lake Brendamouth","state":"Kentucky"}]}},{"fullUrl":"Observation/214fdf33-8bbc-46c2-9101-d74623f825f7","resource":{"resourceType":"Observation","id":"214fdf33-8bbc-46c2-9101-d74623f825f7","status":"final","code":{"coding":[{"system":"http://loinc.org","code":"22590-4"}]},"subject":{"reference":"Patient/159244a7-a543-4c20-bc65-e4bb48962ea9"},"effectiveDateTime":"2022-10-23T00:00:00+00:00","valueRatio":{"numerator":{"value":1.0},"denominator":{"value":4.0}}}},{"fullUrl":"Observation/91abf507-9f04-48d6-914e-72053adc6b16","resource":{"resourceType":"Observation","id":"91abf507-9f04-48d6-914e-72053adc6b16","status":"final","code":{"coding":[{"system":"http://loinc.org","code":"51475-2"}]},"subject":{"reference":"Patient/159244a7-a543-4c20-bc65-e4bb48962ea9"},"effectiveDateTime":"2022-01-12T00:00:00+00:00","valueRatio":{"numerator":{"value":1.0},"denominator":{"value":64.0}}}},{"fullUrl":"Condition/02fb0a33-4047-4dfb-839b-a88e00453c46","resource":{"resourceType":"Condition","id":"02fb0a33-4047-4dfb-839b-a88e00453c46","code":{"coding":[{"system":"http://snomed.info/sct","code":"198199009"}]},"subject":{"reference":"Patient/159244a7-a543-4c20-bc65-e4bb48962ea9"},"onsetDateTime":"2022-06-28T00:00:00+00:00"}},{"fullUrl":"Condition/407a0d91-7ce9-48c9-ac45-73c7a1e54911","resource":{"resourceType":"Condition","id":"407a0d91-7ce9-48c9-ac45-73c7a1e54911","code":{"coding":[{"system":"http://snomed.info/sct","code":"736686006"}]},"subject":{"reference":"Patient/159244a7-a543-4c20-bc65-e4bb48962ea9"},"onsetDateTime":"2022-06-28T00:00:00+00:00"}},{"fullUrl":"Condition/58c09182-ef3d-4cb0-8364-cd532e926e35","resource":{"resourceType":"Condition","id":"58c09182-ef3d-4cb0-8364-cd532e926e35","code":{"coding":[{"system":"http://snomed.info/sct","code":"248980004"}]},"subject":{"reference":"Patient/159244a7-a543-4c20-bc65-e4bb48962ea9"},"onsetDateTime":"2022-06-25T00:00:00+00:00"}},{"fullUrl":"Condition/de12df95-eef3-4a91-8d92-653f3bca0395","resource":{"resourceType":"Condition","id":"de12df95-eef3-4a91-8d92-653f3bca0395","code":{"coding":[{"system":"http://snomed.info/sct","code":"30746006"}]},"subject":{"reference":"Patient/159244a7-a543-4c20-bc65-e4bb48962ea9"},"onsetDateTime":"2022-03-08T00:00:00+00:00"}},{"fullUrl":"Condition/925a1ece-9f12-4fbf-8424-53158d4f8890","resource":{"resourceType":"Condition","id":"925a1ece-9f12-4fbf-8424-53158d4f8890","code":{"coding":[{"system":"http://snomed.info/sct","code":"709977002"}]},"subject":{"reference":"Patient/159244a7-a543-4c20-bc65-e4bb48962ea9"},"onsetDateTime":"2022-10-01T00:00:00+00:00"}},{"fullUrl":"Condition/1cd870d8-3bbc-40bb-8576-393571413899","resource":{"resourceType":"Condition","id":"1cd870d8-3bbc-40bb-8576-393571413899","code":{"coding":[{"system":"http://snomed.info/sct","code":"248980004"}]},"subject":{"reference":"Patient/159244a7-a543-4c20-bc65-e4bb48962ea9"},"onsetDateTime":"2022-05-27T00:00:00+00:00"}},{"fullUrl":"Condition/de104056-b8d3-4712-b5f5-4200392fc61b","resource":{"resourceType":"Condition","id":"de104056-b8d3-4712-b5f5-4200392fc61b","code":{"coding":[{"system":"http://snomed.info/sct","code":"198199009"}]},"subject":{"reference":"Patient/159244a7-a543-4c20-bc65-e4bb48962ea9"},"onsetDateTime":"2022-02-28T00:00:00+00:00"}},{"fullUrl":"Observation/894ed4f6-7712-4346-8efc-17cdc0dca0d8","resource":{"resourceType":"Observation","id":"894ed4f6-7712-4346-8efc-17cdc0dca0d8","status":"final","code":{"coding":[{"system":"http://loinc.org","code":"804-5"}]},"subject":{"reference":"Patient/159244a7-a543-4c20-bc65-e4bb48962ea9"},"effectiveDateTime":"2022-09-20T00:00:00+00:00","valueQuantity":{"value":8.4}}},{"fullUrl":"Observation/dda45e55-de08-4caf-9785-f15501700e3c","resource":{"resourceType":"Observation","id":"dda45e55-de08-4caf-9785-f15501700e3c","status":"final","code":{"coding":[{"system":"http://loinc.org","code":"6690-2"}]},"subject":{"reference":"Patient/159244a7-a543-4c20-bc65-e4bb48962ea9"},"effectiveDateTime":"2022-04-15T00:00:00+00:00","valueQuantity":{"value":10.8}}},{"fullUrl":"Procedure/4e43e00e-1ee0-4ca1-9885-a620fae2775a","resource":{"resourceType":"Procedure","id":"4e43e00e-1ee0-4ca1-9885-a620fae2775a","status":"completed","code":{"coding":[{"system":"http://snomed.info/sct","code":"647000"}]},"subject":{"reference":"Patient/159244a7-a543-4c20-bc65-e4bb48962ea9"},"performedDateTime":"2022-12-04T00:00:00+00:00"}},{"fullUrl":"Procedure/17e0342a-75c5-460b-8f6e-0d7439883884","resource":{"resourceType":"Procedure","id":"17e0342a-75c5-460b-8f6e-0d7439883884","status":"completed","code":{"coding":[{"system":"http://snomed.info/sct","code":"146005"}]},"subject":{"reference":"Patient/159244a7-a543-4c20-bc65-e4bb48962ea9"},"performedDateTime":"2022-04-04T00:00:00+00:00"}},{"fullUrl":"Procedure/76958b92-ae4f-45c1-98c0-d3e0a4f43201","resource":{"resourceType":"Procedure","id":"76958b92-ae4f-45c1-98c0-d3e0a4f43201","status":"completed","code":{"coding":[{"system":"http://snomed.info/sct","code":"189009"}]},"subject":{"reference":"Patient/159244a7-a543-4c20-bc65-e4bb48962ea9"},"performedDateTime":"2022-05-27T00:00:00+00:00"}},{"fullUrl":"MedicationStatement/7b2bb30c-a780-42b4-ac48-6f3111943160","resource":{"resourceType":"MedicationStatement","id":"7b2bb30c-a780-42b4-ac48-6f3111943160","status":"completed","medicationCodeableConcept":{"coding":[{"system":"http://www.nlm.nih.gov/research/umls/rxnorm","code":"2193"}]},"subject":{"reference":"Patient/159244a7-a543-4c20-bc65-e4bb48962ea9"},"effectiveDateTime":"2022-08-26T00:00:00+00:00","dosage":[{"doseAndRate":[{"doseQuantity":{"value":1.0,"unit":"TAB","system":"http://terminology.hl7.org/CodeSystem/v3-orderableDrugForm","code":"TAB"}}]}]}},{"fullUrl":"MedicationStatement/66922b5c-8e4f-4397-a3ff-9843b3a844de","resource":{"resourceType":"MedicationStatement","id":"66922b5c-8e4f-4397-a3ff-9843b3a844de","status":"completed","medicationCodeableConcept":{"coding":[{"system":"http://www.nlm.nih.gov/research/umls/rxnorm","code":"18631"}]},"subject":{"reference":"Patient/159244a7-a543-4c20-bc65-e4bb48962ea9"},"effectiveDateTime":"2022-01-02T00:00:00+00:00","dosage":[{"doseAndRate":[{"doseQuantity":{"value":2.0,"unit":"TAB","system":"http://terminology.hl7.org/CodeSystem/v3-orderableDrugForm","code":"TAB"}}]}]}},{"fullUrl":"Encounter/ade75251-88cb-4c91-8155-0132e4c1be99","resource":{"resourceType":"Encounter","id":"ade75251-88cb-4c91-8155-0132e4c1be99","status":"finished","class":{"system":"http://terminology.hl7.org/CodeSystem/v3-ActCode","code":"NONAC","display":"inpatient non-acute"},"type":[{"coding":[{"system":"http://terminology.hl7.org/CodeSystem/encounter-type","code":"CCS60"}]}],"subject":{"reference":"Patient/159244a7-a543-4c20-bc65-e4bb48962ea9"},"period":{"start":"2022-12-27T00:00:00+00:00","end":"2023-01-01T00:00:00+00:00"}}},{"fullUrl":"Encounter/54238377-c222-4700-8f46-c31f47f34b3c","resource":{"resourceType":"Encounter","id":"54238377-c222-4700-8f46-c31f47f34b3c","status":"finished","class":{"system":"http://terminology.hl7.org/CodeSystem/v3-ActCode","code":"NONAC","display":"inpatient non-acute"},"type":[{"coding":[{"system":"http://terminology.hl7.org/CodeSystem/encounter-type","code":"CCS60"}]}],"subject":{"reference":"Patient/159244a7-a543-4c20-bc65-e4bb48962ea9"},"period":{"start":"2022-12-20T00:00:00+00:00","end":"2022-12-21T00:00:00+00:00"}}}]}