{"resourceType":"Bundle","id":"9ad4a849-d41f-48b5-8b7c-1ff4458078ee","type":"transaction","entry":[{"fullUrl":"Patient/983f05fa-fd55-42b2-9bb7-7b8e9e7913b4","resource":{"resourceType":"Patient","id":"983f05fa-fd55-42b2-9bb7-7b8e9e7913b4","identifier":[{"type":{"coding":[{"system":"http://terminology.hl7.org/CodeSystem/v2-0203","code":"MR"}]},"system":"urn:fhirgen:mrn","value":"329-61-7716"}],"name":[{"family":"Grant","given":["Mark"]}],"telecom":[{"system":"phone","value":"123-033-1901","use":"home"}],"gender":"male","birthDate":"1972-09-27","address":[{"line":["0675 Alvarez Route Apt. 685"],"city":"Katherineville","state":"AL","postalCode":"04979"}]},"request":{"method":"POST","url":"Patient"}},{"fullUrl":"Observation/2704694d-da54-4a86-83cf-20ef903a08be","resource":{"resourceType":"Observation","id":"2704694d-da54-4a86-83cf-20ef903a08be","status":"final","code":{"coding":[{"system":"http://loinc.org","code":"71793-4"}]},"subject":{"reference":"Patient/983f05fa-fd55-42b2-9bb7-7b8e9e7913b4"},"effectiveDateTime":"2022-09-23T00:00:00+00:00","valueRatio":{"numerator":{"value":1},"denominator":{"value":32}}},"request":{"method":"POST","url":"Observation"}},{"fullUrl":"Observation/21e80cdb-db76-41fb-86bd-931f4a92c83b","resource":{"resourceType":"Observation","id":"21e80cdb-db76-41fb-86bd-931f4a92c83b","status":"final","code":{"coding":[{"system":"http://loinc.org","code":"47476-7"}]},"subject":{"reference":"Patient/983f05fa-fd55-42b2-9bb7-7b8e9e7913b4"},"effectiveDateTime":"2022-07-12T00:00:00+00:00","valueRatio":{"numerator":{"value":1},"denominator":{"value":4}}},"request":{"method":"POST","url":"Observation"}},{"fullUrl":"Observation/c02d17eb-6534-40c0-b5c8-a577a4bf02e0","resource":{"resourceType":"Observation","id":"c02d17eb-6534-40c0-b5c8-a577a4bf02e0","status":"final","code":{"coding":[{"system":"http://loinc.org","code":"87925-4"}]},"subject":{"reference":"Patient/983f05fa-fd55-42b2-9bb7-7b8e9e7913b4"},"effectiveDateTime":"2022-04-01T00:00:00+00:00","valueRatio":{"numerator":{"value":1},"denominator":{"value":32}}},"request":{"method":"POST","url":"Observation"}},{"fullUrl":"Condition/2bdc310f-23fe-4caa-a262-d134666ec2bf","resource":{"resourceType":"Condition","id":"2bdc310f-23fe-4caa-a262-d134666ec2bf","code":{"coding":[{"system":"http://snomed.info/sct","code":"91554004"}]},"subject":{"reference":"Patient/983f05fa-fd55-42b2-9bb7-7b8e9e7913b4"},"onsetDateTime":"2022-06-19T00:00:00+00:00"},"request":{"method":"POST","url":"Condition"}},{"fullUrl":"Condition/33eef83d-e59e-4043-b420-1562b878dfe6","resource":{"resourceType":"Condition","id":"33eef83d-e59e-4043-b420-1562b878dfe6","code":{"coding":[{"system":"http://snomed.info/sct","code":"79342006"}]},"subject":{"reference":"Patient/983f05fa-fd55-42b2-9bb7-7b8e9e7913b4"},"onsetDateTime":"2022-10-08T00:00:00+00:00"},"request":{"method":"POST","url":"Condition"}},{"fullUrl":"Condition/e1ada245-38c0-42a8-b01f-f58035439c23","resource":{"resourceType":"Condition","id":"e1ada245-38c0-42a8-b01f-f58035439c23","code":{"coding":[{"system":"http://snomed.info/sct","code":"198199009"}]},"subject":{"reference":"Patient/983f05fa-fd55-42b2-9bb7-7b8e9e7913b4"},"onsetDateTime":"2022-04-06T00:00:00+00:00"},"request":{"method":"POST","url":"Condition"}},{"fullUrl":"Condition/f3a46a6c-e48e-43f7-934e-d479dd8a788d","resource":{"resourceType":"Condition","id":"f3a46a6c-e48e-43f7-934e-d479dd8a788d","code":{"coding":[{"system":"http://snomed.info/sct","code":"405737000"}]},"subject":{"reference":"Patient/983f05fa-fd55-42b2-9bb7-7b8e9e7913b4"},"onsetDateTime":"2022-01-04T00:00:00+00:00"},"request":{"method":"POST","url":"Condition"}},{"fullUrl":"Observation/967282af-61ee-4b27-98d7-49cb4b9ddf6d","resource":{"resourceType":"Observation","id":"967282af-61ee-4b27-98d7-49cb4b9ddf6d","status":"final","code":{"coding":[{"system":"http://www.ama-assn.org/go/cpt","code":"85048"}]},"subject":{"reference":"Patient/983f05fa-fd55-42b2-9bb7-7b8e9e7913b4"},"effectiveDateTime":"2022-09-30T00:00:00+00:00","valueQuantity":{"value":6.5}},"request":{"method":"POST","url":"Observation"}},{"fullUrl":"Observation/38676548-49a1-4953-9361-0459b0f27f42","resource":{"resourceType":"Observation","id":"38676548-49a1-4953-9361-0459b0f27f42","status":"final","code":{"coding":[{"system":"http://loinc.org","code":"6690-2"}]},"subject":{"reference":"Patient/983f05fa-fd55-42b2-9bb7-7b8e9e7913b4"},"effectiveDateTime":"2022-01-10T00:00:00+00:00","valueQuantity":{"value":6.1}},"request":{"method":"POST","url":"Observation"}},{"fullUrl":"Observation/9a0010d5-d9d4-409c-9b44-6296f229a872","resource":{"resourceType":"Observation","id":"9a0010d5-d9d4-409c-9b44-6296f229a872","status":"final","code":{"coding":[{"system":"http://loinc.org","code":"49498-9"}]},"subject":{"reference":"Patient/983f05fa-fd55-42b2-9bb7-7b8e9e7913b4"},"effectiveDateTime":"2022-05-07T00:00:00+00:00"},"request":{"method":"POST","url":"Observation"}},{"fullUrl":"Observation/e603d239-bd5f-4af0-9952-72dfd1d91415","resource":{"resourceType":"Observation","id":"e603d239-bd5f-4af0-9952-72dfd1d91415","status":"final","code":{"coding":[{"system":"http://loinc.org","code":"49498-9"}]},"subject":{"reference":"Patient/983f05fa-fd55-42b2-9bb7-7b8e9e7913b4"},"effectiveDateTime":"2022-05-18T00:00:00+00:00"},"request":{"method":"POST","url":"Observation"}},{"fullUrl":"Procedure/2f0b9267-f434-40ee-bf54-7a2518b22308","resource":{"resourceType":"Procedure","id":"2f0b9267-f434-40ee-bf54-7a2518b22308","status":"completed","code":{"coding":[{"system":"http://snomed.info/sct","code":"647000"}]},"subject":{"reference":"Patient/983f05fa-fd55-42b2-9bb7-7b8e9e7913b4"},"performedDateTime":"2022-05-13T00:00:00+00:00"},"request":{"method":"POST","url":"Procedure"}},{"fullUrl":"Procedure/4d2bc2a6-33f0-4422-a5b4-462c9e219941","resource":{"resourceType":"Procedure","id":"4d2bc2a6-33f0-4422-a5b4-462c9e219941","status":"completed","code":{"coding":[{"system":"http://snomed.info/sct","code":"115006"}]},"subject":{"reference":"Patient/983f05fa-fd55-42b2-9bb7-7b8e9e7913b4"},"performedDateTime":"2022-06-28T00:00:00+00:00"},"request":{"method":"POST","url":"Procedure"}},{"fullUrl":"Procedure/73ed16d5-719f-44f2-acd0-f426ea2b0529","resource":{"resourceType":"Procedure","id":"73ed16d5-719f-44f2-acd0-f426ea2b0529","status":"completed","code":{"coding":[{"system":"http://snomed.info/sct","code":"104001"}]},"subject":{"reference":"Patient/983f05fa-fd55-42b2-9bb7-7b8e9e7913b4"},"performedDateTime":"2022-04-10T00:00:00+00:00"},"request":{"method":"POST","url":"Procedure"}},{"fullUrl":"MedicationStatement/89eed14e-1c92-4382-852a-04a78cc2db90","resource":{"resourceType":"MedicationStatement","id":"89eed14e-1c92-4382-852a-04a78cc2db90","status":"completed","medicationCodeableConcept":{"coding":[{"system":"http://www.nlm.nih.gov/research/umls/rxnorm","code":"3640"}]},"subject":{"reference":"Patient/983f05fa-fd55-42b2-9bb7-7b8e9e7913b4"},"effectiveDateTime":"2022-05-24T00:00:00+00:00","dosage":[{"doseAndRate":[{"doseQuantity":{"value":2,"unit":"TAB","system":"http://terminology.hl7.org/CodeSystem/v3-orderableDrugForm","code":"TAB"}}]}]},"request":{"method":"POST","url":"MedicationStatement"}},{"fullUrl":"MedicationStatement/1c9ffcea-af4c-477a-86ce-e443e1732255","resource":{"resourceType":"MedicationStatement","id":"1c9ffcea-af4c-477a-86ce-e443e1732255","status":"completed","medicationCodeableConcept":{"coding":[{"system":"http://www.nlm.nih.gov/research/umls/rxnorm","code":"7980"}]},"subject":{"reference":"Patient/983f05fa-fd55-42b2-9bb7-7b8e9e7913b4"},"effectiveDateTime":"2022-03-01T00:00:00+00:00","dosage":[{"doseAndRate":[{"doseQuantity":{"value":1,"unit":"TAB","system":"http://terminology.hl7.org/CodeSystem/v3-orderableDrugForm","code":"TAB"}}]}]},"request":{"method":"POST","url":"MedicationStatement"}},{"fullUrl":"MedicationStatement/9b8b6230-093c-4a9c-a547-ad7e6eb742b1","resource":{"resourceType":"MedicationStatement","id":"9b8b6230-093c-4a9c-a547-ad7e6eb742b1","status":"completed","medicationCodeableConcept":{"coding":[{"system":"http://www.nlm.nih.gov/research/umls/rxnorm","code":"7984"}]},"subject":{"reference":"Patient/983f05fa-fd55-42b2-9bb7-7b8e9e7913b4"},"effectiveDateTime":"2022-12-13T00:00:00+00:00","dosage":[{"doseAndRate":[{"doseQuantity":{"value":2,"unit":"TAB","system":"http://terminology.hl7.org/CodeSystem/v3-orderableDrugForm","code":"TAB"}}]}]},"request":{"method":"POST","url":"MedicationStatement"}},{"fullUrl":"MedicationStatement/590a7ba0-c03e-4905-8d67-53d0892f7a8d","resource":{"resourceType":"MedicationStatement","id":"590a7ba0-c03e-4905-8d67-53d0892f7a8d","status":"completed","medicationCodeableConcept":{"coding":[{"system":"http://www.nlm.nih.gov/research/umls/rxnorm","code":"3640"}]},"subject":{"reference":"Patient/983f05fa-fd55-42b2-9bb7-7b8e9e7913b4"},"effectiveDateTime":"2022-10-13T00:00:00+00:00","dosage":[{"doseAndRate":[{"doseQuantity":{"value":2,"unit":"TAB","system":"http://terminology.hl7.org/CodeSystem/v3-orderableDrugForm","code":"TAB"}}]}]},"request":{"method":"POST","url":"MedicationStatement"}},{"fullUrl":"MedicationStatement/a9de9e93-a03e-44f5-b5ea-7f38b383e0d9","resource":{"resourceType":"MedicationStatement","id":"a9de9e93-a03e-44f5-b5ea-7f38b383e0d9","status":"completed","medicationCodeableConcept":{"coding":[{"system":"http://www.nlm.nih.gov/research/umls/rxnorm","code":"2193"}]},"subject":{"reference":"Patient/983f05fa-fd55-42b2-9bb7-7b8e9e7913b4"},"effectiveDateTime":"2022-01-19T00:00:00+00:00","dosage":[{"doseAndRate":[{"doseQuantity":{"value":1,"unit":"TAB","system":"http://terminology.hl7.org/CodeSystem/v3-orderableDrugForm","code":"TAB"}}]}]},"request":{"method":"POST","url":"MedicationStatement"}},{"fullUrl":"MedicationStatement/ef08ea88-3e3c-4db3-aad9-b7ee0c749842","resource":{"resourceType":"MedicationStatement","id":"ef08ea88-3e3c-4db3-aad9-b7ee0c749842","status":"completed","medicationCodeableConcept":{"coding":[{"system":"http://www.nlm.nih.gov/research/umls/rxnorm","code":"2193"}]},"subject":{"reference":"Patient/983f05fa-fd55-42b2-9bb7-7b8e9e7913b4"},"effectiveDateTime":"2022-06-07T00:00:00+00:00","dosage":[{"doseAndRate":[{"doseQuantity":{"value":2,"unit":"TAB","system":"http://terminology.hl7.org/CodeSystem/v3-orderableDrugForm","code":"TAB"}}]}]},"request":{"method":"POST","url":"MedicationStatement"}},{"fullUrl":"MedicationStatement/50e0f3f0-c0e6-4280-8a14-15eaae3df4f6","resource":{"resourceType":"MedicationStatement","id":"50e0f3f0-c0e6-4280-8a14-15eaae3df4f6","status":"completed","medicationCodeableConcept":{"coding":[{"system":"http://www.nlm.nih.gov/research/umls/rxnorm","code":"8698"}]},"subject":{"reference":"Patient/983f05fa-fd55-42b2-9bb7-7b8e9e7913b4"},"effectiveDateTime":"2022-08-11T00:00:00+00:00","dosage":[{"doseAndRate":[{"doseQuantity":{"value":2,"unit":"TAB","system":"http://terminology.hl7.org/CodeSystem/v3-orderableDrugForm","code":"TAB"}}]}]},"request":{"method":"POST","url":"MedicationStatement"}},{"fullUrl":"MedicationStatement/efdaf38e-b4c9-4f97-bafe-2de84fc60d71","resource":{"resourceType":"MedicationStatement","id":"efdaf38e-b4c9-4f97-bafe-2de84fc60d71","status":"completed","medicationCodeableConcept":{"coding":[{"system":"http://www.nlm.nih.gov/research/umls/rxnorm","code":"8698"}]},"subject":{"reference":"Patient/983f05fa-fd55-42b2-9bb7-7b8e9e7913b4"},"effectiveDateTime":"2022-03-14T00:00:00+00:00","dosage":[{"doseAndRate":[{"doseQuantity":{"value":2,"unit":"TAB","system":"http://terminology.hl7.org/CodeSystem/v3-orderableDrugForm","code":"TAB"}}]}]},"request":{"method":"POST","url":"MedicationStatement"}},{"fullUrl":"MedicationStatement/f957323c-17c2-4911-88e0-60d02d023048","resource":{"resourceType":"MedicationStatement","id":"f957323c-17c2-4911-88e0-60d02d023048","status":"completed","medicationCodeableConcept":{"coding":[{"system":"http://www.nlm.nih.gov/research/umls/rxnorm","code":"8698"}]},"subject":{"reference":"Patient/983f05fa-fd55-42b2-9bb7-7b8e9e7913b4"},"effectiveDateTime":"2022-11-11T00:00:00+00:00","dosage":[{"doseAndRate":[{"doseQuantity":{"value":5,"unit":"TAB","system":"http://terminology.hl7.org/CodeSystem/v3-orderableDrugForm","code":"TAB"}}]}]},"request":{"method":"POST","url":"MedicationStatement"}},{"fullUrl":"MedicationStatement/873441cc-8d40-4d4d-a268-efe1d78a5ac2","resource":{"resourceType":"MedicationStatement","id":"873441cc-8d40-4d4d-a268-efe1d78a5ac2","status":"completed","medicationCodeableConcept":{"coding":[{"system":"http://www.nlm.nih.gov/research/umls/rxnorm","code":"3640"}]},"subject":{"reference":"Patient/983f05fa-fd55-42b2-9bb7-7b8e9e7913b4"},"effectiveDateTime":"2022-04-30T00:00:00+00:00","dosage":[{"doseAndRate":[{"doseQuantity":{"value":3.1,"unit":"TAB","system":"http://terminology.hl7.org/CodeSystem/v3-orderableDrugForm","code":"TAB"}}]}]},"request":{"method":"POST","url":"MedicationStatement"}},{"fullUrl":"MedicationStatement/0f84edfd-2587-42b6-8a8d-ea21cacceebe","resource":{"resourceType":"MedicationStatement","id":"0f84edfd-2587-42b6-8a8d-ea21cacceebe","status":"completed","medicationCodeableConcept":{"coding":[{"system":"http://www.nlm.nih.gov/research/umls/rxnorm","code":"18631"}]},"subject":{"reference":"Patient/983f05fa-fd55-42b2-9bb7-7b8e9e7913b4"},"effectiveDateTime":"2022-08-06T00:00:00+00:00","dosage":[{"doseAndRate":[{"doseQuantity":{"value":4.2,"unit":"TAB","system":"http://terminology.hl7.org/CodeSystem/v3-orderableDrugForm","code":"TAB"}}]}]},"request":{"method":"POST","url":"MedicationStatement"}},{"fullUrl":"MedicationStatement/465e2b10-e376-4c9c-8542-c56e31155ec6","resource":{"resourceType":"MedicationStatement","id":"465e2b10-e376-4c9c-8542-c56e31155ec6","status":"completed","medicationCodeableConcept":{"coding":[{"system":"http://www.nlm.nih.gov/research/umls/rxnorm","code":"10395"}]},"subject":{"reference":"Patient/983f05fa-fd55-42b2-9bb7-7b8e9e7913b4"},"effectiveDateTime":"2022-01-07T00:00:00+00:00","dosage":[{"doseAndRate":[{"doseQuantity":{"value":4.3,"unit":"TAB","system":"http://terminology.hl7.org/CodeSystem/v3-orderableDrugForm","code":"TAB"}}]}]},"request":{"method":"POST","url":"MedicationStatement"}},{"fullUrl":"MedicationStatement/b51a3258-fc83-44c3-a926-0a0e2a1c6f23","resource":{"resourceType":"MedicationStatement","id":"b51a3258-fc83-44c3-a926-0a0e2a1c6f23","status":"completed","medicationCodeableConcept":{"coding":[{"system":"http://www.nlm.nih.gov/research/umls/rxnorm","code":"2193"}]},"subject":{"reference":"Patient/983f05fa-fd55-42b2-9bb7-7b8e9e7913b4"},"effectiveDateTime":"2022-07-26T00:00:00+00:00","dosage":[{"doseAndRate":[{"doseQuantity":{"value":6.5,"unit":"TAB","system":"http://terminology.hl7.org/CodeSystem/v3-orderableDrugForm","code":"TAB"}}]}]},"request":{"method":"POST","url":"MedicationStatement"}},{"fullUrl":"MedicationStatement/e2252358-4c03-4e76-82f0-484c11a465e4","resource":{"resourceType":"MedicationStatement","id":"e2252358-4c03-4e76-82f0-484c11a465e4","status":"completed","medicationCodeableConcept":{"coding":[{"system":"http://www.nlm.nih.gov/research/umls/rxnorm","code":"2193"}]},"subject":{"reference":"Patient/983f05fa-fd55-42b2-9bb7-7b8e9e7913b4"},"effectiveDateTime":"2022-10-31T00:00:00+00:00","dosage":[{"doseAndRate":[{"doseQuantity":{"value":3.9,"unit":"TAB","system":"http://terminology.hl7.org/CodeSystem/v3-orderableDrugForm","code":"TAB"}}]}]},"request":{"method":"POST","url":"MedicationStatement"}},{"fullUrl":"MedicationStatement/5b8472db-c2a8-42c3-acec-b02848c141cb","resource":{"resourceType":"MedicationStatement","id":"5b8472db-c2a8-42c3-acec-b02848c141cb","status":"completed","medicationCodeableConcept":{"coding":[{"system":"http://www.nlm.nih.gov/research/umls/rxnorm","code":"10395"}]},"subject":{"reference":"Patient/983f05fa-fd55-42b2-9bb7-7b8e9e7913b4"},"effectiveDateTime":"2022-10-02T00:00:00+00:00","dosage":[{"doseAndRate":[{"doseQuantity":{"value":3.5,"unit":"TAB","system":"http://terminology.hl7.org/CodeSystem/v3-orderableDrugForm","code":"TAB"}}]}]},"request":{"method":"POST","url":"MedicationStatement"}},{"fullUrl":"Encounter/4ed116d5-bd30-49a3-a98c-241bdf3f7041","resource":{"resourceType":"Encounter","id":"4ed116d5-bd30-49a3-a98c-241bdf3f7041","status":"finished","class":{"system":"http://terminology.hl7.org/CodeSystem/v3-ActCode","code":"IMP","display":"inpatient encounter"},"type":[{"coding":[{"system":"http://terminology.hl7.org/CodeSystem/encounter-type","code":"BD/BM-clin"}]}],"subject":{"reference":"Patient/983f05fa-fd55-42b2-9bb7-7b8e9e7913b4"},"period":{"start":"2022-06-19T00:00:00+00:00","end":"2022-06-21T00:00:00+00:00"}},"request":{"method":"POST","url":"Encounter"}},{"fullUrl":"Encounter/f7886a1c-a8e9-4f77-8b45-94fa2c77c1de","resource":{"resourceType":"Encounter","id":"f7886a1c-a8e9-4f77-8b45-94fa2c77c1de","status":"finished","class":{"system":"http://terminology.hl7.org/CodeSystem/v3-ActCode","code":"IMP","display":"inpatient encounter"},"type":[{"coding":[{"system":"http://terminology.hl7.org/CodeSystem/encounter-type","code":"OKI"}]}],"subject":{"reference":"Patient/983f05fa-fd55-42b2-9bb7-7b8e9e7913b4"},"period":{"start":"2022-12-11T00:00:00+00:00","end":"2022-12-15T00:00:00+00:00"}},"request":{"method":"POST","url":"Encounter"}},{"fullUrl":"Encounter/7df37164-e9fc-4ede-8e22-3b6a444316e6","resource":{"resourceType":"Encounter","id":"7df37164-e9fc-4ede-8e22-3b6a444316e6","status":"finished","class":{"system":"http://terminology.hl7.org/CodeSystem/v3-ActCode","code":"NONAC","display":"inpatient non-acute"},"type":[{"coding":[{"system":"http://terminology.hl7.org/CodeSystem/encounter-type","code":"ADMS"}]}],"subject":{"reference":"Patient/983f05fa-fd55-42b2-9bb7-7b8e9e7913b4"},"period":{"start":"2022-10-10T00:00:00+00:00","end":"2022-10-12T00:00:00+00:00"}},"request":{"method":"POST","url":"Encounter"}},{"fullUrl":"Encounter/5eeee574-3459-4027-b9b2-117e654676d7","resource":{"resourceType":"Encounter","id":"5eeee574-3459-4027-b9b2-117e654676d7","status":"finished","class":{"system":"http://terminology.hl7.org/CodeSystem/v3-ActCode","code":"ACUTE","display":"inpatient acute"},"type":[{"coding":[{"system":"http://terminology.hl7.org/CodeSystem/encounter-type","code":"OKI"}]}],"subject":{"reference":"Patient/983f05fa-fd55-42b2-9bb7-7b8e9e7913b4"},"period":{"start":"2022-09-21T00:00:00+00:00","end":"2022-09-22T00:00:00+00:00"}},"request":{"method":"POST","url":"Encounter"}},{"fullUrl":"Patient/79b8f7e4-01f2-4f59-a78e-12fba85526f7","resource":{"resourceType":"Patient","id":"79b8f7e4-01f2-4f59-a78e-12fba85526f7","identifier":[{"type":{"coding":[{"system":"http://terminology.hl7.org/CodeSystem/v2-0203","code":"MR"}]},"system":"urn:fhirgen:mrn","value":"456-51-9489"}],"name":[{"family":"Newman","given":["Andrew"]}],"telecom":[{"system":"phone","value":"747-070-6649","use":"home"}],"gender":"male","birthDate":"1971-06-01","address":[{"line":["795 Barker Freeway"],"city":"Michaelstad","state":"PA","postalCode":"81620"}]},"request":{"method":"POST","url":"Patient"}},{"fullUrl":"Observation/dcaa95b2-84ec-4d56-8462-674fd356cedc","resource":{"resourceType":"Observation","id":"dcaa95b2-84ec-4d56-8462-674fd356cedc","status":"final","code":{"coding":[{"system":"http://loinc.org","code":"71793-4"}]},"subject":{"reference":"Patient/79b8f7e4-01f2-4f59-a78e-12fba85526f7"},"effectiveDateTime":"2022-08-08T00:00:00+00:00","valueRatio":{"numerator":{"value":1},"denominator":{"value":32}}},"request":{"method":"POST","url":"Observation"}},{"fullUrl":"Observation/c61425b8-8ef0-4378-bf30-41e89b5d7062","resource":{"resourceType":"Observation","id":"c61425b8-8ef0-4378-bf30-41e89b5d7062","status":"final","code":{"coding":[{"system":"http://loinc.org","code":"51475-2"}]},"subject":{"reference":"Patient/79b8f7e4-01f2-4f59-a78e-12fba85526f7"},"effectiveDateTime":"2022-07-03T00:00:00+00:00","valueRatio":{"numerator":{"value":1},"denominator":{"value":64}}},"request":{"method":"POST","url":"Observation"}},{"fullUrl":"Condition/3b1fa5b3-5e08-4278-a16d-a94ca8208352","resource":{"resourceType":"Condition","id":"3b1fa5b3-5e08-4278-a16d-a94ca8208352","code":{"coding":[{"system":"http://snomed.info/sct","code":"418290006"}]},"subject":{"reference":"Patient/79b8f7e4-01f2-4f59-a78e-12fba85526f7"},"onsetDateTime":"2022-10-17T00:00:00+00:00"},"request":{"method":"POST","url":"Condition"}},{"fullUrl":"Condition/e26ed8aa-178e-4e43-baa7-b47bf7c350af","resource":{"resourceType":"Condition","id":"e26ed8aa-178e-4e43-baa7-b47bf7c350af","code":{"coding":[{"system":"http://snomed.info/sct","code":"79342006"}]},"subject":{"reference":"Patient/79b8f7e4-01f2-4f59-a78e-12fba85526f7"},"onsetDateTime":"2022-07-31T00:00:00+00:00"},"request":{"method":"POST","url":"Condition"}},{"fullUrl":"Condition/51965872-ddd8-4794-a089-676d6cfb9e5f","resource":{"resourceType":"Condition","id":"51965872-ddd8-4794-a089-676d6cfb9e5f","code":{"coding":[{"system":"http://snomed.info/sct","code":"18165001"}]},"subject":{"reference":"Patient/79b8f7e4-01f2-4f59-a78e-12fba85526f7"},"onsetDateTime":"2022-01-02T00:00:00+00:00"},"request":{"method":"POST","url":"Condition"}},{"fullUrl":"Condition/2c18e11b-d81d-411f-b03f-fb91de7af0f3","resource":{"resourceType":"Condition","id":"2c18e11b-d81d-411f-b03f-fb91de7af0f3","code":{"coding":[{"system":"http://snomed.info/sct","code":"198199009"}]},"subject":{"reference":"Patient/79b8f7e4-01f2-4f59-a78e-12fba85526f7"},"onsetDateTime":"2022-12-16T00:00:00+00:00"},"request":{"method":"POST","url":"Condition"}},{"fullUrl":"Condition/8e6708dd-3059-4805-a170-0b2a78ea12ab","resource":{"resourceType":"Condition","id":"8e6708dd-3059-4805-a170-0b2a78ea12ab","code":{"coding":[{"system":"http://snomed.info/sct","code":"44882003"}]},"subject":{"reference":"Patient/79b8f7e4-01f2-4f59-a78e-12fba85526f7"},"onsetDateTime":"2022-05-14T00:00:00+00:00"},"request":{"method":"POST","url":"Condition"}},{"fullUrl":"Observation/4489391b-ad7f-40ed-8021-843f8d42a68a","resource":{"resourceType":"Observation","id":"4489391b-ad7f-40ed-8021-843f8d42a68a","status":"final","code":{"coding":[{"system":"http://www.ama-assn.org/go/cpt","code":"85048"}]},"subject":{"reference":"Patient/79b8f7e4-01f2-4f59-a78e-12fba85526f7"},"effectiveDateTime":"2022-01-10T00:00:00+00:00","valueQuantity":{"value":8.2}},"request":{"method":"POST","url":"Observation"}},{"fullUrl":"Observation/0d68c384-0687-4ac4-b3ec-dbda4f489f17","resource":{"resourceType":"Observation","id":"0d68c384-0687-4ac4-b3ec-dbda4f489f17","status":"final","code":{"coding":[{"system":"http://www.ama-assn.org/go/cpt","code":"85048"}]},"subject":{"reference":"Patient/79b8f7e4-01f2-4f59-a78e-12fba85526f7"},"effectiveDateTime":"2022-06-25T00:00:00+00:00","valueQuantity":{"value":10.2}},"request":{"method":"POST","url":"Observation"}},{"fullUrl":"Observation/a0b35c14-9ffd-456d-8896-488e7eb38fd2","resource":{"resourceType":"Observation","id":"a0b35c14-9ffd-456d-8896-488e7eb38fd2","status":"final","code":{"coding":[{"system":"http://loinc.org","code":"49498-9"}]},"subject":{"reference":"Patient/79b8f7e4-01f2-4f59-a78e-12fba85526f7"},"effectiveDateTime":"2022-01-07T00:00:00+00:00"},"request":{"method":"POST","url":"Observation"}},{"fullUrl":"Observation/46985cc0-0e72-4fe6-abd3-0ca96161214e","resource":{"resourceType":"Observation","id":"46985cc0-0e72-4fe6-abd3-0ca96161214e","status":"final","code":{"coding":[{"system":"http://loinc.org","code":"49498-9"}]},"subject":{"reference":"Patient/79b8f7e4-01f2-4f59-a78e-12fba85526f7"},"effectiveDateTime":"2022-12-01T00:00:00+00:00"},"request":{"method":"POST","url":"Observation"}},{"fullUrl":"Procedure/babe1847-ed80-4545-8b68-f662c485faec","resource":{"resourceType":"Procedure","id":"babe1847-ed80-4545-8b68-f662c485faec","status":"completed","code":{"coding":[{"system":"http://snomed.info/sct","code":"104001"}]},"subject":{"reference":"Patient/79b8f7e4-01f2-4f59-a78e-12fba85526f7"},"performedDateTime":"2022-05-16T00:00:00+00:00"},"request":{"method":"POST","url":"Procedure"}},{"fullUrl":"Procedure/e4776946-0ea5-46a1-9fda-36bf326f1037","resource":{"resourceType":"Procedure","id":"e4776946-0ea5-46a1-9fda-36bf326f1037","status":"completed","code":{"coding":[{"system":"http://snomed.info/sct","code":"189009"}]},"subject":{"reference":"Patient/79b8f7e4-01f2-4f59-a78e-12fba85526f7"},"performedDateTime":"2022-04-14T00:00:00+00:00"},"request":{"method":"POST","url":"Procedure"}},{"fullUrl":"Procedure/b7bee7b8-0a65-43c6-bdb2-8f6a8a9a7f77","resource":{"resourceType":"Procedure","id":"b7bee7b8-0a65-43c6-bdb2-8f6a8a9a7f77","status":"completed","code":{"coding":[{"system":"http://snomed.info/sct","code":"104001"}]},"subject":{"reference":"Patient/79b8f7e4-01f2-4f59-a78e-12fba85526f7"},"performedDateTime":"2022-08-08T00:00:00+00:00"},"request":{"method":"POST","url":"Procedure"}},{"fullUrl":"MedicationStatement/9814cbef-903b-4eb5-a0f5-06555aded1dd","resource":{"resourceType":"MedicationStatement","id":"9814cbef-903b-4eb5-a0f5-06555aded1dd","status":"completed","medicationCodeableConcept":{"coding":[{"system":"http://www.nlm.nih.gov/research/umls/rxnorm","code":"7980"}]},"subject":{"reference":"Patient/79b8f7e4-01f2-4f59-a78e-12fba85526f7"},"effectiveDateTime":"2022-05-17T00:00:00+00:00","dosage":[{"doseAndRate":[{"doseQuantity":{"value":1,"unit":"TAB","system":"http://terminology.hl7.org/CodeSystem/v3-orderableDrugForm","code":"TAB"}}]}]},"request":{"method":"POST","url":"MedicationStatement"}},{"fullUrl":"MedicationStatement/ff938ffb-28a9-4ac1-afa8-5f115e9bae3d","resource":{"resourceType":"MedicationStatement","id":"ff938ffb-28a9-4ac1-afa8-5f115e9bae3d","status":"completed","medicationCodeableConcept":{"coding":[{"system":"http://www.nlm.nih.gov/research/umls/rxnorm","code":"2193"}]},"subject":{"reference":"Patient/79b8f7e4-01f2-4f59-a78e-12fba85526f7"},"effectiveDateTime":"2022-05-26T00:00:00+00:00","dosage":[{"doseAndRate":[{"doseQuantity":{"value":1,"unit":"TAB","system":"http://terminology.hl7.org/CodeSystem/v3-orderableDrugForm","code":"TAB"}}]}]},"request":{"method":"POST","url":"MedicationStatement"}},{"fullUrl":"MedicationStatement/0fce8991-bd8c-4558-abc3-1414fcaf48c1","resource":{"resourceType":"MedicationStatement","id":"0fce8991-bd8c-4558-abc3-1414fcaf48c1","status":"completed","medicationCodeableConcept":{"coding":[{"system":"http://www.nlm.nih.gov/research/umls/rxnorm","code":"8698"}]},"subject":{"reference":"Patient/79b8f7e4-01f2-4f59-a78e-12fba85526f7"},"effectiveDateTime":"2022-02-06T00:00:00+00:00","dosage":[{"doseAndRate":[{"doseQuantity":{"value":2,"unit":"TAB","system":"http://terminology.hl7.org/CodeSystem/v3-orderableDrugForm","code":"TAB"}}]}]},"request":{"method":"POST","url":"MedicationStatement"}},{"fullUrl":"MedicationStatement/d42311a1-88ed-4871-a0c3-b1bdc839787c","resource":{"resourceType":"MedicationStatement","id":"d42311a1-88ed-4871-a0c3-b1bdc839787c","status":"completed","medicationCodeableConcept":{"coding":[{"system":"http://www.nlm.nih.gov/research/umls/rxnorm","code":"10395"}]},"subject":{"reference":"Patient/79b8f7e4-01f2-4f59-a78e-12fba85526f7"},"effectiveDateTime":"2022-05-16T00:00:00+00:00","dosage":[{"doseAndRate":[{"doseQuantity":{"value":1,"unit":"TAB","system":"http://terminology.hl7.org/CodeSystem/v3-orderableDrugForm","code":"TAB"}}]}]},"request":{"method":"POST","url":"MedicationStatement"}},{"fullUrl":"MedicationStatement/0e3278d3-cc09-466d-ae5f-45173e3aa042","resource":{"resourceType":"MedicationStatement","id":"0e3278d3-cc09-466d-ae5f-45173e3aa042","status":"completed","medicationCodeableConcept":{"coding":[{"system":"http://www.nlm.nih.gov/research/umls/rxnorm","code":"7984"}]},"subject":{"reference":"Patient/79b8f7e4-01f2-4f59-a78e-12fba85526f7"},"effectiveDateTime":"2022-05-20T00:00:00+00:00","dosage":[{"doseAndRate":[{"doseQuantity":{"value":1,"unit":"TAB","system":"http://terminology.hl7.org/CodeSystem/v3-orderableDrugForm","code":"TAB"}}]}]},"request":{"method":"POST","url":"MedicationStatement"}},{"fullUrl":"MedicationStatement/eedae4c1-5458-4cd0-a4fe-9a7c8c800f0d","resource":{"resourceType":"MedicationStatement","id":"eedae4c1-5458-4cd0-a4fe-9a7c8c800f0d","status":"completed","medicationCodeableConcept":{"coding":[{"system":"http://www.nlm.nih.gov/research/umls/rxnorm","code":"7984"}]},"subject":{"reference":"Patient/79b8f7e4-01f2-4f59-a78e-12fba85526f7"},"effectiveDateTime":"2022-01-11T00:00:00+00:00","dosage":[{"doseAndRate":[{"doseQuantity":{"value":1,"unit":"TAB","system":"http://terminology.hl7.org/CodeSystem/v3-orderableDrugForm","code":"TAB"}}]}]},"request":{"method":"POST","url":"MedicationStatement"}},{"fullUrl":"MedicationStatement/bf9a160d-cdb7-4498-8da9-9b066bab3a94","resource":{"resourceType":"MedicationStatement","id":"bf9a160d-cdb7-4498-8da9-9b066bab3a94","status":"completed","medicationCodeableConcept":{"coding":[{"system":"http://www.nlm.nih.gov/research/umls/rxnorm","code":"8698"}]},"subject":{"reference":"Patient/79b8f7e4-01f2-4f59-a78e-12fba85526f7"},"effectiveDateTime":"2022-09-27T00:00:00+00:00","dosage":[{"doseAndRate":[{"doseQuantity":{"value":1,"unit":"TAB","system":"http://terminology.hl7.org/CodeSystem/v3-orderableDrugForm","code":"TAB"}}]}]},"request":{"method":"POST","url":"MedicationStatement"}},{"fullUrl":"MedicationStatement/ae996062-141f-498c-a4dc-416f17bf1727","resource":{"resourceType":"MedicationStatement","id":"ae996062-141f-498c-a4dc-416f17bf1727","status":"completed","medicationCodeableConcept":{"coding":[{"system":"http://www.nlm.nih.gov/research/umls/rxnorm","code":"18631"}]},"subject":{"reference":"Patient/79b8f7e4-01f2-4f59-a78e-12fba85526f7"},"effectiveDateTime":"2022-02-24T00:00:00+00:00","dosage":[{"doseAndRate":[{"doseQuantity":{"value":3.3,"unit":"TAB","system":"http://terminology.hl7.org/CodeSystem/v3-orderableDrugForm","code":"TAB"}}]}]},"request":{"method":"POST","url":"MedicationStatement"}},{"fullUrl":"MedicationStatement/02071ee2-2266-4d3e-94e8-5701b4da9535","resource":{"resourceType":"MedicationStatement","id":"02071ee2-2266-4d3e-94e8-5701b4da9535","status":"completed","medicationCodeableConcept":{"coding":[{"system":"http://www.nlm.nih.gov/research/umls/rxnorm","code":"10395"}]},"subject":{"reference":"Patient/79b8f7e4-01f2-4f59-a78e-12fba85526f7"},"effectiveDateTime":"2022-02-08T00:00:00+00:00","dosage":[{"doseAndRate":[{"doseQuantity":{"value":6.5,"unit":"TAB","system":"http://terminology.hl7.org/CodeSystem/v3-orderableDrugForm","code":"TAB"}}]}]},"request":{"method":"POST","url":"MedicationStatement"}},{"fullUrl":"Encounter/a20d55cd-45f8-44c3-bbb2-331390983b6b","resource":{"resourceType":"Encounter","id":"a20d55cd-45f8-44c3-bbb2-331390983b6b","status":"finished","class":{"system":"http://terminology.hl7.org/CodeSystem/v3-ActCode","code":"IMP","display":"inpatient encounter"},"type":[{"coding":[{"system":"http://terminology.hl7.org/CodeSystem/encounter-type","code":"CCS60"}]}],"subject":{"reference":"Patient/79b8f7e4-01f2-4f59-a78e-12fba85526f7"},"period":{"start":"2022-06-07T00:00:00+00:00","end":"2022-06-07T00:00:00+00:00"}},"request":{"method":"POST","url":"Encounter"}},{"fullUrl":"Encounter/14f6fa68-4164-4787-b442-4d2b63ee46b0","resource":{"resourceType":"Encounter","id":"14f6fa68-4164-4787-b442-4d2b63ee46b0","status":"finished","class":{"system":"http://terminology.hl7.org/CodeSystem/v3-ActCode","code":"IMP","display":"inpatient encounter"},"type":[{"coding":[{"system":"http://terminology.hl7.org/CodeSystem/encounter-type","code":"BD/BM-clin"}]}],"subject":{"reference":"Patient/79b8f7e4-01f2-4f59-a78e-12fba85526f7"},"period":{"start":"2022-10-12T00:00:00+00:00","end":"2022-10-15T00:00:00+00:00"}},"request":{"method":"POST","url":"Encounter"}},{"fullUrl":"Encounter/49ea34df-51e4-44b5-95df-e62ad3417e9d","resource":{"resourceType":"Encounter","id":"49ea34df-51e4-44b5-95df-e62ad3417e9d","status":"finished","class":{"system":"http://terminology.hl7.org/CodeSystem/v3-ActCode","code":"IMP","display":"inpatient encounter"},"type":[{"coding":[{"system":"http://terminology.hl7.org/CodeSystem/encounter-type","code":"OKI"}]}],"subject":{"reference":"Patient/79b8f7e4-01f2-4f59-a78e-12fba85526f7"},"period":{"start":"2022-10-02T00:00:00+00:00","end":"2022-10-08T00:00:00+00:00"}},"request":{"method":"POST","url":"Encounter"}},{"fullUrl":"Encounter/543ff85e-cae6-4b13-b593-43076e6ffdfc","resource":{"resourceType":"Encounter","id":"543ff85e-cae6-4b13-b593-43076e6ffdfc","status":"finished","class":{"system":"http://terminology.hl7.org/CodeSystem/v3-ActCode","code":"OBSENC","display":"observation encounter"},"type":[{"coding":[{"system":"http://terminology.hl7.org/CodeSystem/encounter-type","code":"ADMS"}]}],"subject":{"reference":"Patient/79b8f7e4-01f2-4f59-a78e-12fba85526f7"},"period":{"start":"2022-03-31T00:00:00+00:00","end":"2022-04-05T00:00:00+00:00"}},"request":{"method":"POST","url":"Encounter"}},{"fullUrl":"Encounter/dbb67585-3e56-4de4-b00b-dea8c8035eac","resource":{"resourceType":"Encounter","id":"dbb67585-3e56-4de4-b00b-dea8c8035eac","status":"finished","class":{"system":"http://terminology.hl7.org/CodeSystem/v3-ActCode","code":"OBSENC","display":"observation encounter"},"type":[{"coding":[{"system":"http://terminology.hl7.org/CodeSystem/encounter-type","code":"ADMS"}]}],"subject":{"reference":"Patient/79b8f7e4-01f2-4f59-a78e-12fba85526f7"},"period":{"start":"2022-05-04T00:00:00+00:00","end":"2022-05-06T00:00:00+00:00"}},"request":{"method":"POST","url":"Encounter"}},{"fullUrl":"Encounter/290eee67-0414-4e4a-8013-cea1cf98cb6d","resource":{"resourceType":"Encounter","id":"290eee67-0414-4e4a-8013-cea1cf98cb6d","status":"finished","class":{"system":"http://terminology.hl7.org/CodeSystem/v3-ActCode","code":"OBSENC","display":"observation encounter"},"type":[{"coding":[{"system":"http://terminology.hl7.org/CodeSystem/encounter-type","code":"ADMS"}]}],"subject":{"reference":"Patient/79b8f7e4-01f2-4f59-a78e-12fba85526f7"},"period":{"start":"2022-04-27T00:00:00+00:00","end":"2022-05-05T00:00:00+00:00"}},"request":{"method":"POST","url":"Encounter"}},{"fullUrl":"Patient/1d4b7a66-2630-4ca9-8133-63cf9fd5c338","resource":{"resourceType":"Patient","id":"1d4b7a66-2630-4ca9-8133-63cf9fd5c338","identifier":[{"type":{"coding":[{"system":"http://terminology.hl7.org/CodeSystem/v2-0203","code":"MR"}]},"system":"urn:fhirgen:mrn","value":"359-24-0708"}],"name":[{"family":"Thompson","given":["Carmen"]}],"telecom":[{"system":"phone","value":"037.103.6504x3516","use":"home"}],"gender":"female","birthDate":"1952-06-13","address":[{"line":["578 Jessica Path Suite 549"],"city":"New Jermainechester","state":"KY","postalCode":"16872"}]},"request":{"method":"POST","url":"Patient"}},{"fullUrl":"Observation/a88b8e80-9f78-4f23-971a-998f6b8c4cb5","resource":{"resourceType":"Observation","id":"a88b8e80-9f78-4f23-971a-998f6b8c4cb5","status":"final","code":{"coding":[{"system":"http://loinc.org","code":"31147-2"}]},"subject":{"reference":"Patient/1d4b7a66-2630-4ca9-8133-63cf9fd5c338"},"effectiveDateTime":"2022-05-30T00:00:00+00:00","valueRatio":{"numerator":{"value":1},"denominator":{"value":64}}},"request":{"method":"POST","url":"Observation"}},{"fullUrl":"Observation/467bfa7a-d285-4dcf-b42a-6f1d2b546d2d","resource":{"resourceType":"Observation","id":"467bfa7a-d285-4dcf-b42a-6f1d2b546d2d","status":"final","code":{"coding":[{"system":"http://loinc.org","code":"22590-4"}]},"subject":{"reference":"Patient/1d4b7a66-2630-4ca9-8133-63cf9fd5c338"},"effectiveDateTime":"2022-11-09T00:00:00+00:00","valueRatio":{"numerator":{"value":1},"denominator":{"value":4}}},"request":{"method":"POST","url":"Observation"}},{"fullUrl":"Condition/eb25eb87-c9b7-4c59-bac5-8902ab54161e","resource":{"resourceType":"Condition","id":"eb25eb87-c9b7-4c59-bac5-8902ab54161e","code":{"coding":[{"system":"http://snomed.info/sct","code":"271807003"}]},"subject":{"reference":"Patient/1d4b7a66-2630-4ca9-8133-63cf9fd5c338"},"onsetDateTime":"2022-07-24T00:00:00+00:00"},"request":{"method":"POST","url":"Condition"}},{"fullUrl":"Condition/b6106b72-f69f-42a0-9511-855a33e057e0","resource":{"resourceType":"Condition","id":"b6106b72-f69f-42a0-9511-855a33e057e0","code":{"coding":[{"system":"http://snomed.info/sct","code":"31070006"}]},"subject":{"reference":"Patient/1d4b7a66-2630-4ca9-8133-63cf9fd5c338"},"onsetDateTime":"2022-12-06T00:00:00+00:00"},"request":{"method":"POST","url":"Condition"}},{"fullUrl":"Condition/59a4cea1-d0e3-443e-8e7c-e2ca342357be","resource":{"resourceType":"Condition","id":"59a4cea1-d0e3-443e-8e7c-e2ca342357be","code":{"coding":[{"system":"http://snomed.info/sct","code":"91554004"}]},"subject":{"reference":"Patient/1d4b7a66-2630-4ca9-8133-63cf9fd5c338"},"onsetDateTime":"2022-07-01T00:00:00+00:00"},"request":{"method":"POST","url":"Condition"}},{"fullUrl":"Condition/62bb9beb-1dde-4fd5-affa-acfbd9f0405f","resource":{"resourceType":"Condition","id":"62bb9beb-1dde-4fd5-affa-acfbd9f0405f","code":{"coding":[{"system":"http://snomed.info/sct","code":"405737000"}]},"subject":{"reference":"Patient/1d4b7a66-2630-4ca9-8133-63cf9fd5c338"},"onsetDateTime":"2022-11-15T00:00:00+00:00"},"request":{"method":"POST","url":"Condition"}},{"fullUrl":"Condition/728ae9d5-7891-434b-af52-c5af985c0d96","resource":{"resourceType":"Condition","id":"728ae9d5-7891-434b-af52-c5af985c0d96","code":{"coding":[{"system":"http://snomed.info/sct","code":"91554004"}]},"subject":{"reference":"Patient/1d4b7a66-2630-4ca9-8133-63cf9fd5c338"},"onsetDateTime":"2022-08-31T00:00:00+00:00"},"request":{"method":"POST","url":"Condition"}},{"fullUrl":"Condition/5a3539fb-2612-4cfd-a4c4-8148a39fa085","resource":{"resourceType":"Condition","id":"5a3539fb-2612-4cfd-a4c4-8148a39fa085","code":{"coding":[{"system":"http://snomed.info/sct","code":"31070006"}]},"subject":{"reference":"Patient/1d4b7a66-2630-4ca9-8133-63cf9fd5c338"},"onsetDateTime":"2022-08-28T00:00:00+00:00"},"request":{"method":"POST","url":"Condition"}},{"fullUrl":"Condition/53f63ce0-127f-4dc7-9e1d-1b444b7a39f1","resource":{"resourceType":"Condition","id":"53f63ce0-127f-4dc7-9e1d-1b444b7a39f1","code":{"coding":[{"system":"http://snomed.info/sct","code":"271939006"}]},"subject":{"reference":"Patient/1d4b7a66-2630-4ca9-8133-63cf9fd5c338"},"onsetDateTime":"2022-07-16T00:00:00+00:00"},"request":{"method":"POST","url":"Condition"}},{"fullUrl":"Observation/ddbd20de-745b-4ef7-bead-85a7c7a2431a","resource":{"resourceType":"Observation","id":"ddbd20de-745b-4ef7-bead-85a7c7a2431a","status":"final","code":{"coding":[{"system":"http://loinc.org","code":"804-5"}]},"subject":{"reference":"Patient/1d4b7a66-2630-4ca9-8133-63cf9fd5c338"},"effectiveDateTime":"2022-11-11T00:00:00+00:00","valueQuantity":{"value":7.9}},"request":{"method":"POST","url":"Observation"}},{"fullUrl":"Observation/ac0fbb50-206d-4016-be43-d5adfd51618d","resource":{"resourceType":"Observation","id":"ac0fbb50-206d-4016-be43-d5adfd51618d","status":"final","code":{"coding":[{"system":"http://www.ama-assn.org/go/cpt","code":"85048"}]},"subject":{"reference":"Patient/1d4b7a66-2630-4ca9-8133-63cf9fd5c338"},"effectiveDateTime":"2022-05-13T00:00:00+00:00","valueQuantity":{"value":6.9}},"request":{"method":"POST","url":"Observation"}},{"fullUrl":"Observation/e5fb5619-da87-406f-8a09-23263cc902f7","resource":{"resourceType":"Observation","id":"e5fb5619-da87-406f-8a09-23263cc902f7","status":"final","code":{"coding":[{"system":"http://loinc.org","code":"49498-9"}]},"subject":{"reference":"Patient/1d4b7a66-2630-4ca9-8133-63cf9fd5c338"},"effectiveDateTime":"2022-08-18T00:00:00+00:00"},"request":{"method":"POST","url":"Observation"}},{"fullUrl":"Observation/403e9736-fa50-4199-a827-47e7f4e75746","resource":{"resourceType":"Observation","id":"403e9736-fa50-4199-a827-47e7f4e75746","status":"final","code":{"coding":[{"system":"http://loinc.org","code":"49498-9"}]},"subject":{"reference":"Patient/1d4b7a66-2630-4ca9-8133-63cf9fd5c338"},"effectiveDateTime":"2022-04-08T00:00:00+00:00"},"request":{"method":"POST","url":"Observation"}},{"fullUrl":"Procedure/4cb4b68e-78fb-4d9a-84f7-fbb5c30e339c","resource":{"resourceType":"Procedure","id":"4cb4b68e-78fb-4d9a-84f7-fbb5c30e339c","status":"completed","code":{"coding":[{"system":"http://snomed.info/sct","code":"115006"}]},"subject":{"reference":"Patient/1d4b7a66-2630-4ca9-8133-63cf9fd5c338"},"performedDateTime":"2022-12-31T00:00:00+00:00"},"request":{"method":"POST","url":"Procedure"}},{"fullUrl":"Procedure/27494105-9171-4ea0-98c2-7650209e550b","resource":{"resourceType":"Procedure","id":"27494105-9171-4ea0-98c2-7650209e550b","status":"completed","code":{"coding":[{"system":"http://snomed.info/sct","code":"146005"}]},"subject":{"reference":"Patient/1d4b7a66-2630-4ca9-8133-63cf9fd5c338"},"performedDateTime":"2022-09-19T00:00:00+00:00"},"request":{"method":"POST","url":"Procedure"}},{"fullUrl":"Procedure/4c6a107a-15ff-43b8-9d59-fdb98e95114d","resource":{"resourceType":"Procedure","id":"4c6a107a-15ff-43b8-9d59-fdb98e95114d","status":"completed","code":{"coding":[{"system":"http://snomed.info/sct","code":"104001"}]},"subject":{"reference":"Patient/1d4b7a66-2630-4ca9-8133-63cf9fd5c338"},"performedDateTime":"2022-03-21T00:00:00+00:00"},"request":{"method":"POST","url":"Procedure"}},{"fullUrl":"MedicationStatement/1418eae8-c0e4-4f37-adca-ae9f4dd30074","resource":{"resourceType":"MedicationStatement","id":"1418eae8-c0e4-4f37-adca-ae9f4dd30074","status":"completed","medicationCodeableConcept":{"coding":[{"system":"http://www.nlm.nih.gov/research/umls/rxnorm","code":"3640"}]},"subject":{"reference":"Patient/1d4b7a66-2630-4ca9-8133-63cf9fd5c338"},"effectiveDateTime":"2022-07-20T00:00:00+00:00","dosage":[{"doseAndRate":[{"doseQuantity":{"value":1,"unit":"TAB","system":"http://terminology.hl7.org/CodeSystem/v3-orderableDrugForm","code":"TAB"}}]}]},"request":{"method":"POST","url":"MedicationStatement"}},{"fullUrl":"MedicationStatement/c34cec70-0df8-414e-85ca-ebe10ee3fd5a","resource":{"resourceType":"MedicationStatement","id":"c34cec70-0df8-414e-85ca-ebe10ee3fd5a","status":"completed","medicationCodeableConcept":{"coding":[{"system":"http://www.nlm.nih.gov/research/umls/rxnorm","code":"3640"}]},"subject":{"reference":"Patient/1d4b7a66-2630-4ca9-8133-63cf9fd5c338"},"effectiveDateTime":"2022-04-07T00:00:00+00:00","dosage":[{"doseAndRate":[{"doseQuantity":{"value":2,"unit":"TAB","system":"http://terminology.hl7.org/CodeSystem/v3-orderableDrugForm","code":"TAB"}}]}]},"request":{"method":"POST","url":"MedicationStatement"}},{"fullUrl":"MedicationStatement/08774d08-527c-4ca8-8268-5b097a4f2866","resource":{"resourceType":"MedicationStatement","id":"08774d08-527c-4ca8-8268-5b097a4f2866","status":"completed","medicationCodeableConcept":{"coding":[{"system":"http://www.nlm.nih.gov/research/umls/rxnorm","code":"7984"}]},"subject":{"reference":"Patient/1d4b7a66-2630-4ca9-8133-63cf9fd5c338"},"effectiveDateTime":"2022-03-25T00:00:00+00:00","dosage":[{"doseAndRate":[{"doseQuantity":{"value":1,"unit":"TAB","system":"http://terminology.hl7.org/CodeSystem/v3-orderableDrugForm","code":"TAB"}}]}]},"request":{"method":"POST","url":"MedicationStatement"}},{"fullUrl":"MedicationStatement/bad13d32-db3c-4278-8434-b0cbc252b28e","resource":{"resourceType":"MedicationStatement","id":"bad13d32-db3c-4278-8434-b0cbc252b28e","status":"completed","medicationCodeableConcept":{"coding":[{"system":"http://www.nlm.nih.gov/research/umls/rxnorm","code":"10395"}]},"subject":{"reference":"Patient/1d4b7a66-2630-4ca9-8133-63cf9fd5c338"},"effectiveDateTime":"2022-06-04T00:00:00+00:00","dosage":[{"doseAndRate":[{"doseQuantity":{"value":2,"unit":"TAB","system":"http://terminology.hl7.org/CodeSystem/v3-orderableDrugForm","code":"TAB"}}]}]},"request":{"method":"POST","url":"MedicationStatement"}},{"fullUrl":"MedicationStatement/b5e1f59c-36e9-40a4-aa80-0efcec562c1e","resource":{"resourceType":"MedicationStatement","id":"b5e1f59c-36e9-40a4-aa80-0efcec562c1e","status":"completed","medicationCodeableConcept":{"coding":[{"system":"http://www.nlm.nih.gov/research/umls/rxnorm","code":"18631"}]},"subject":{"reference":"Patient/1d4b7a66-2630-4ca9-8133-63cf9fd5c338"},"effectiveDateTime":"2022-05-23T00:00:00+00:00","dosage":[{"doseAndRate":[{"doseQuantity":{"value":5.3,"unit":"TAB","system":"http://terminology.hl7.org/CodeSystem/v3-orderableDrugForm","code":"TAB"}}]}]},"request":{"method":"POST","url":"MedicationStatement"}},{"fullUrl":"MedicationStatement/b6eebb7f-b9b8-4179-8dd2-a48daced0a3c","resource":{"resourceType":"MedicationStatement","id":"b6eebb7f-b9b8-4179-8dd2-a48daced0a3c","status":"completed","medicationCodeableConcept":{"coding":[{"system":"http://www.nlm.nih.gov/research/umls/rxnorm","code":"7984"}]},"subject":{"reference":"Patient/1d4b7a66-2630-4ca9-8133-63cf9fd5c338"},"effectiveDateTime":"2022-10-20T00:00:00+00:00","dosage":[{"doseAndRate":[{"doseQuantity":{"value":7,"unit":"TAB","system":"http://terminology.hl7.org/CodeSystem/v3-orderableDrugForm","code":"TAB"}}]}]},"request":{"method":"POST","url":"MedicationStatement"}},{"fullUrl":"MedicationStatement/665af9e0-21ec-46e2-8969-7620fefdd631","resource":{"resourceType":"MedicationStatement","id":"665af9e0-21ec-46e2-8969-7620fefdd631","status":"completed","medicationCodeableConcept":{"coding":[{"system":"http://www.nlm.nih.gov/research/umls/rxnorm","code":"18631"}]},"subject":{"reference":"Patient/1d4b7a66-2630-4ca9-8133-63cf9fd5c338"},"effectiveDateTime":"2022-10-06T00:00:00+00:00","dosage":[{"doseAndRate":[{"doseQuantity":{"value":3.9,"unit":"TAB","system":"http://terminology.hl7.org/CodeSystem/v3-orderableDrugForm","code":"TAB"}}]}]},"request":{"method":"POST","url":"MedicationStatement"}},{"fullUrl":"MedicationStatement/5f7ec1f5-dd84-4f28-a0ee-c588ee3d79fc","resource":{"resourceType":"MedicationStatement","id":"5f7ec1f5-dd84-4f28-a0ee-c588ee3d79fc","status":"completed","medicationCodeableConcept":{"coding":[{"system":"http://www.nlm.nih.gov/research/umls/rxnorm","code":"10395"}]},"subject":{"reference":"Patient/1d4b7a66-2630-4ca9-8133-63cf9fd5c338"},"effectiveDateTime":"2022-07-06T00:00:00+00:00","dosage":[{"doseAndRate":[{"doseQuantity":{"value":3.5,"unit":"TAB","system":"http://terminology.hl7.org/CodeSystem/v3-orderableDrugForm","code":"TAB"}}]}]},"request":{"method":"POST","url":"MedicationStatement"}},{"fullUrl":"MedicationStatement/a10615de-35af-479a-8c3f-a45a37723153","resource":{"resourceType":"MedicationStatement","id":"a10615de-35af-479a-8c3f-a45a37723153","status":"completed","medicationCodeableConcept":{"coding":[{"system":"http://www.nlm.nih.gov/research/umls/rxnorm","code":"2193"}]},"subject":{"reference":"Patient/1d4b7a66-2630-4ca9-8133-63cf9fd5c338"},"effectiveDateTime":"2022-06-17T00:00:00+00:00","dosage":[{"doseAndRate":[{"doseQuantity":{"value":5.1,"unit":"TAB","system":"http://terminology.hl7.org/CodeSystem/v3-orderableDrugForm","code":"TAB"}}]}]},"request":{"method":"POST","url":"MedicationStatement"}},{"fullUrl":"MedicationStatement/e98cd4ac-59ff-4288-befe-f84d9d5dcb00","resource":{"resourceType":"MedicationStatement","id":"e98cd4ac-59ff-4288-befe-f84d9d5dcb00","status":"completed","medicationCodeableConcept":{"coding":[{"system":"http://www.nlm.nih.gov/research/umls/rxnorm","code":"3640"}]},"subject":{"reference":"Patient/1d4b7a66-2630-4ca9-8133-63cf9fd5c338"},"effectiveDateTime":"2022-04-07T00:00:00+00:00","dosage":[{"doseAndRate":[{"doseQuantity":{"value":6.3,"unit":"TAB","system":"http://terminology.hl7.org/CodeSystem/v3-orderableDrugForm","code":"TAB"}}]}]},"request":{"method":"POST","url":"MedicationStatement"}},{"fullUrl":"Encounter/7909c23a-f842-4534-a0f1-46afb7d5df09","resource":{"resourceType":"Encounter","id":"7909c23a-f842-4534-a0f1-46afb7d5df09","status":"finished","class":{"system":"http://terminology.hl7.org/CodeSystem/v3-ActCode","code":"IMP","display":"inpatient encounter"},"type":[{"coding":[{"system":"http://terminology.hl7.org/CodeSystem/encounter-type","code":"CCS60"}]}],"subject":{"reference":"Patient/1d4b7a66-2630-4ca9-8133-63cf9fd5c338"},"period":{"start":"2022-10-01T00:00:00+00:00","end":"2022-10-01T00:00:00+00:00"}},"request":{"method":"POST","url":"Encounter"}},{"fullUrl":"Encounter/9e4c32f7-df34-49eb-861c-f799d48bfc0d","resource":{"resourceType":"Encounter","id":"9e4c32f7-df34-49eb-861c-f799d48bfc0d","status":"finished","class":{"system":"http://terminology.hl7.org/CodeSystem/v3-ActCode","code":"IMP","display":"inpatient encounter"},"type":[{"coding":[{"system":"http://terminology.hl7.org/CodeSystem/encounter-type","code":"CCS60"}]}],"subject":{"reference":"Patient/1d4b7a66-2630-4ca9-8133-63cf9fd5c338"},"period":{"start":"2022-12-13T00:00:00+00:00","end":"2022-12-22T00:00:00+00:00"}},"request":{"method":"POST","url":"Encounter"}},{"fullUrl":"Encounter/cf6c5e0a-2db4-4df1-bfb8-bd3c2bbe5b84","resource":{"resourceType":"Encounter","id":"cf6c5e0a-2db4-4df1-bfb8-bd3c2bbe5b84","status":"finished","class":{"system":"http://terminology.hl7.org/CodeSystem/v3-ActCode","code":"SS","display":"short-stay"},"type":[{"coding":[{"system":"http://terminology.hl7.org/CodeSystem/encounter-type","code":"BD/BM-clin"}]}],"subject":{"reference":"Patient/1d4b7a66-2630-4ca9-8133-63cf9fd5c338"},"period":{"start":"2022-03-16T00:00:00+00:00","end":"2022-03-19T00:00:00+00:00"}},"request":{"method":"POST","url":"Encounter"}},{"fullUrl":"Encounter/49263f15-1e98-4bf3-9e99-4b115af1dd79","resource":{"resourceType":"Encounter","id":"49263f15-1e98-4bf3-9e99-4b115af1dd79","status":"finished","class":{"system":"http://terminology.hl7.org/CodeSystem/v3-ActCode","code":"NONAC","display":"inpatient non-acute"},"type":[{"coding":[{"system":"http://terminology.hl7.org/CodeSystem/encounter-type","code":"ADMS"}]}],"subject":{"reference":"Patient/1d4b7a66-2630-4ca9-8133-63cf9fd5c338"},"period":{"start":"2022-01-20T00:00:00+00:00","end":"2022-01-28T00:00:00+00:00"}},"request":{"method":"POST","url":"Encounter"}},{"fullUrl":"Patient/c1a7827b-1c9e-4fdb-932e-c8abb534496a","resource":{"resourceType":"Patient","id":"c1a7827b-1c9e-4fdb-932e-c8abb534496a","identifier":[{"type":{"coding":[{"system":"http://terminology.hl7.org/CodeSystem/v2-0203","code":"MR"}]},"system":"urn:fhirgen:mrn","value":"270-34-9671"}],"name":[{"family":"Wood","given":["Brenda"]}],"telecom":[{"system":"phone","value":"391.906.9601x887","use":"home"}],"gender":"female","birthDate":"1989-01-01","address":[{"line":["7486 Cheryl Unions"],"city":"Robertomouth","state":"MN","postalCode":"02235"}]},"request":{"method":"POST","url":"Patient"}},{"fullUrl":"Observation/38f6fb0f-a92a-4d42-88da-f91ed184641f","resource":{"resourceType":"Observation","id":"38f6fb0f-a92a-4d42-88da-f91ed184641f","status":"final","code":{"coding":[{"system":"http://loinc.org","code":"31147-2"}]},"subject":{"reference":"Patient/c1a7827b-1c9e-4fdb-932e-c8abb534496a"},"effectiveDateTime":"2022-07-10T00:00:00+00:00","valueRatio":{"numerator":{"value":1},"denominator":{"value":64}}},"request":{"method":"POST","url":"Observation"}},{"fullUrl":"Observation/003105b1-65bb-42b8-aea5-06306b555351","resource":{"resourceType":"Observation","id":"003105b1-65bb-42b8-aea5-06306b555351","status":"final","code":{"coding":[{"system":"http://loinc.org","code":"47476-7"}]},"subject":{"reference":"Patient/c1a7827b-1c9e-4fdb-932e-c8abb534496a"},"effectiveDateTime":"2022-11-19T00:00:00+00:00","valueRatio":{"numerator":{"value":1},"denominator":{"value":64}}},"request":{"method":"POST","url":"Observation"}},{"fullUrl":"Condition/2af98ace-6c30-416d-b944-65ca96d9168d","resource":{"resourceType":"Condition","id":"2af98ace-6c30-416d-b944-65ca96d9168d","code":{"coding":[{"system":"http://snomed.info/sct","code":"736686006"}]},"subject":{"reference":"Patient/c1a7827b-1c9e-4fdb-932e-c8abb534496a"},"onsetDateTime":"2022-01-01T00:00:00+00:00"},"request":{"method":"POST","url":"Condition"}},{"fullUrl":"Condition/5ba94ca5-dcd6-4c58-a03e-44129ff99046","resource":{"resourceType":"Condition","id":"5ba94ca5-dcd6-4c58-a03e-44129ff99046","code":{"coding":[{"system":"http://snomed.info/sct","code":"271939006"}]},"subject":{"reference":"Patient/c1a7827b-1c9e-4fdb-932e-c8abb534496a"},"onsetDateTime":"2022-10-30T00:00:00+00:00"},"request":{"method":"POST","url":"Condition"}},{"fullUrl":"Condition/83357d98-28ef-4bd6-aa01-6fad5b9659d2","resource":{"resourceType":"Condition","id":"83357d98-28ef-4bd6-aa01-6fad5b9659d2","code":{"coding":[{"system":"http://snomed.info/sct","code":"271939006"}]},"subject":{"reference":"Patient/c1a7827b-1c9e-4fdb-932e-c8abb534496a"},"onsetDateTime":"2022-11-15T00:00:00+00:00"},"request":{"method":"POST","url":"Condition"}},{"fullUrl":"Condition/b5243157-9db0-49f2-938e-9b114f05da56","resource":{"resourceType":"Condition","id":"b5243157-9db0-49f2-938e-9b114f05da56","code":{"coding":[{"system":"http://snomed.info/sct","code":"709977002"}]},"subject":{"reference":"Patient/c1a7827b-1c9e-4fdb-932e-c8abb534496a"},"onsetDateTime":"2022-12-23T00:00:00+00:00"},"request":{"method":"POST","url":"Condition"}},{"fullUrl":"Observation/ca136448-01be-4605-808a-8366f2091543","resource":{"resourceType":"Observation","id":"ca136448-01be-4605-808a-8366f2091543","status":"final","code":{"coding":[{"system":"http://loinc.org","code":"804-5"}]},"subject":{"reference":"Patient/c1a7827b-1c9e-4fdb-932e-c8abb534496a"},"effectiveDateTime":"2022-01-06T00:00:00+00:00","valueQuantity":{"value":7.3}},"request":{"method":"POST","url":"Observation"}},{"fullUrl":"Observation/0a830dc2-1aa6-42f0-95de-afddf2237473","resource":{"resourceType":"Observation","id":"0a830dc2-1aa6-42f0-95de-afddf2237473","status":"final","code":{"coding":[{"system":"http://loinc.org","code":"26464-8"}]},"subject":{"reference":"Patient/c1a7827b-1c9e-4fdb-932e-c8abb534496a"},"effectiveDateTime":"2022-09-08T00:00:00+00:00","valueQuantity":{"value":10.1}},"request":{"method":"POST","url":"Observation"}},{"fullUrl":"Observation/ed899071-7958-43f4-a2b3-48163fccc311","resource":{"resourceType":"Observation","id":"ed899071-7958-43f4-a2b3-48163fccc311","status":"final","code":{"coding":[{"system":"http://loinc.org","code":"49498-9"}]},"subject":{"reference":"Patient/c1a7827b-1c9e-4fdb-932e-c8abb534496a"},"effectiveDateTime":"2022-09-23T00:00:00+00:00"},"request":{"method":"POST","url":"Observation"}},{"fullUrl":"Observation/07157d86-ee82-4991-b8bb-6b0902690acc","resource":{"resourceType":"Observation","id":"07157d86-ee82-4991-b8bb-6b0902690acc","status":"final","code":{"coding":[{"system":"http://loinc.org","code":"49498-9"}]},"subject":{"reference":"Patient/c1a7827b-1c9e-4fdb-932e-c8abb534496a"},"effectiveDateTime":"2022-01-04T00:00:00+00:00"},"request":{"method":"POST","url":"Observation"}},{"fullUrl":"Procedure/19bf6be7-11bd-4237-878f-fc24175d0933","resource":{"resourceType":"Procedure","id":"19bf6be7-11bd-4237-878f-fc24175d0933","status":"completed","code":{"coding":[{"system":"http://snomed.info/sct","code":"104001"}]},"subject":{"reference":"Patient/c1a7827b-1c9e-4fdb-932e-c8abb534496a"},"performedDateTime":"2022-10-11T00:00:00+00:00"},"request":{"method":"POST","url":"Procedure"}},{"fullUrl":"Procedure/e5c64bf7-210c-4110-9473-0270a239a61c","resource":{"resourceType":"Procedure","id":"e5c64bf7-210c-4110-9473-0270a239a61c","status":"completed","code":{"coding":[{"system":"http://snomed.info/sct","code":"146005"}]},"subject":{"reference":"Patient/c1a7827b-1c9e-4fdb-932e-c8abb534496a"},"performedDateTime":"2022-04-23T00:00:00+00:00"},"request":{"method":"POST","url":"Procedure"}},{"fullUrl":"Procedure/a07cb250-952c-4bf2-a891-7404262a5a08","resource":{"resourceType":"Procedure","id":"a07cb250-952c-4bf2-a891-7404262a5a08","status":"completed","code":{"coding":[{"system":"http://snomed.info/sct","code":"647000"}]},"subject":{"reference":"Patient/c1a7827b-1c9e-4fdb-932e-c8abb534496a"},"performedDateTime":"2022-01-21T00:00:00+00:00"},"request":{"method":"POST","url":"Procedure"}},{"fullUrl":"MedicationStatement/77721092-5de8-4e6b-99dd-532e988987fd","resource":{"resourceType":"MedicationStatement","id":"77721092-5de8-4e6b-99dd-532e988987fd","status":"completed","medicationCodeableConcept":{"coding":[{"system":"http://www.nlm.nih.gov/research/umls/rxnorm","code":"18631"}]},"subject":{"reference":"Patient/c1a7827b-1c9e-4fdb-932e-c8abb534496a"},"effectiveDateTime":"2022-09-05T00:00:00+00:00","dosage":[{"doseAndRate":[{"doseQuantity":{"value":1,"unit":"TAB","system":"http://terminology.hl7.org/CodeSystem/v3-orderableDrugForm","code":"TAB"}}]}]},"request":{"method":"POST","url":"MedicationStatement"}},{"fullUrl":"MedicationStatement/ee0e2001-60f6-4dbd-ad85-806de0889029","resource":{"resourceType":"MedicationStatement","id":"ee0e2001-60f6-4dbd-ad85-806de0889029","status":"completed","medicationCodeableConcept":{"coding":[{"system":"http://www.nlm.nih.gov/research/umls/rxnorm","code":"18631"}]},"subject":{"reference":"Patient/c1a7827b-1c9e-4fdb-932e-c8abb534496a"},"effectiveDateTime":"2022-09-23T00:00:00+00:00","dosage":[{"doseAndRate":[{"doseQuantity":{"value":2,"unit":"TAB","system":"http://terminology.hl7.org/CodeSystem/v3-orderableDrugForm","code":"TAB"}}]}]},"request":{"method":"POST","url":"MedicationStatement"}},{"fullUrl":"MedicationStatement/d330ece6-1ee2-42f6-af14-7ad18774a7ec","resource":{"resourceType":"MedicationStatement","id":"d330ece6-1ee2-42f6-af14-7ad18774a7ec","status":"completed","medicationCodeableConcept":{"coding":[{"system":"http://www.nlm.nih.gov/research/umls/rxnorm","code":"3640"}]},"subject":{"reference":"Patient/c1a7827b-1c9e-4fdb-932e-c8abb534496a"},"effectiveDateTime":"2022-05-21T00:00:00+00:00","dosage":[{"doseAndRate":[{"doseQuantity":{"value":1,"unit":"TAB","system":"http://terminology.hl7.org/CodeSystem/v3-orderableDrugForm","code":"TAB"}}]}]},"request":{"method":"POST","url":"MedicationStatement"}},{"fullUrl":"MedicationStatement/876f5ee0-b6a8-4ea3-bf8d-56a4469a83d3","resource":{"resourceType":"MedicationStatement","id":"876f5ee0-b6a8-4ea3-bf8d-56a4469a83d3","status":"completed","medicationCodeableConcept":{"coding":[{"system":"http://www.nlm.nih.gov/research/umls/rxnorm","code":"10395"}]},"subject":{"reference":"Patient/c1a7827b-1c9e-4fdb-932e-c8abb534496a"},"effectiveDateTime":"2022-07-28T00:00:00+00:00","dosage":[{"doseAndRate":[{"doseQuantity":{"value":2,"unit":"TAB","system":"http://terminology.hl7.org/CodeSystem/v3-orderableDrugForm","code":"TAB"}}]}]},"request":{"method":"POST","url":"MedicationStatement"}},{"fullUrl":"MedicationStatement/c0991990-bf1c-4071-a0d9-e85b0e195670","resource":{"resourceType":"MedicationStatement","id":"c0991990-bf1c-4071-a0d9-e85b0e195670","status":"completed","medicationCodeableConcept":{"coding":[{"system":"http://www.nlm.nih.gov/research/umls/rxnorm","code":"18631"}]},"subject":{"reference":"Patient/c1a7827b-1c9e-4fdb-932e-c8abb534496a"},"effectiveDateTime":"2022-08-08T00:00:00+00:00","dosage":[{"doseAndRate":[{"doseQuantity":{"value":2,"unit":"TAB","system":"http://terminology.hl7.org/CodeSystem/v3-orderableDrugForm","code":"TAB"}}]}]},"request":{"method":"POST","url":"MedicationStatement"}},{"fullUrl":"MedicationStatement/07dbbfcd-52e8-4f77-8a21-97842eb1e5cf","resource":{"resourceType":"MedicationStatement","id":"07dbbfcd-52e8-4f77-8a21-97842eb1e5cf","status":"completed","medicationCodeableConcept":{"coding":[{"system":"http://www.nlm.nih.gov/research/umls/rxnorm","code":"2193"}]},"subject":{"reference":"Patient/c1a7827b-1c9e-4fdb-932e-c8abb534496a"},"effectiveDateTime":"2022-03-25T00:00:00+00:00","dosage":[{"doseAndRate":[{"doseQuantity":{"value":2,"unit":"TAB","system":"http://terminology.hl7.org/CodeSystem/v3-orderableDrugForm","code":"TAB"}}]}]},"request":{"method":"POST","url":"MedicationStatement"}},{"fullUrl":"MedicationStatement/4585394e-f304-4a65-aa3e-ebceeee128f5","resource":{"resourceType":"MedicationStatement","id":"4585394e-f304-4a65-aa3e-ebceeee128f5","status":"completed","medicationCodeableConcept":{"coding":[{"system":"http://www.nlm.nih.gov/research/umls/rxnorm","code":"10395"}]},"subject":{"reference":"Patient/c1a7827b-1c9e-4fdb-932e-c8abb534496a"},"effectiveDateTime":"2022-09-29T00:00:00+00:00","dosage":[{"doseAndRate":[{"doseQuantity":{"value":1,"unit":"TAB","system":"http://terminology.hl7.org/CodeSystem/v3-orderableDrugForm","code":"TAB"}}]}]},"request":{"method":"POST","url":"MedicationStatement"}},{"fullUrl":"MedicationStatement/1ff75d43-8184-42c6-828a-d7b90ca1d7dc","resource":{"resourceType":"MedicationStatement","id":"1ff75d43-8184-42c6-828a-d7b90ca1d7dc","status":"completed","medicationCodeableConcept":{"coding":[{"system":"http://www.nlm.nih.gov/research/umls/rxnorm","code":"7984"}]},"subject":{"reference":"Patient/c1a7827b-1c9e-4fdb-932e-c8abb534496a"},"effectiveDateTime":"2022-12-13T00:00:00+00:00","dosage":[{"doseAndRate":[{"doseQuantity":{"value":1,"unit":"TAB","system":"http://terminology.hl7.org/CodeSystem/v3-orderableDrugForm","code":"TAB"}}]}]},"request":{"method":"POST","url":"MedicationStatement"}},{"fullUrl":"MedicationStatement/a18997d3-b2ab-4ea2-bb83-87413e41619d","resource":{"resourceType":"MedicationStatement","id":"a18997d3-b2ab-4ea2-bb83-87413e41619d","status":"completed","medicationCodeableConcept":{"coding":[{"system":"http://www.nlm.nih.gov/research/umls/rxnorm","code":"7984"}]},"subject":{"reference":"Patient/c1a7827b-1c9e-4fdb-932e-c8abb534496a"},"effectiveDateTime":"2022-12-22T00:00:00+00:00","dosage":[{"doseAndRate":[{"doseQuantity":{"value":4.8,"unit":"TAB","system":"http://terminology.hl7.org/CodeSystem/v3-orderableDrugForm","code":"TAB"}}]}]},"request":{"method":"POST","url":"MedicationStatement"}},{"fullUrl":"Encounter/49b50cea-197b-42c0-a5fa-0ee9738cb2f5","resource":{"resourceType":"Encounter","id":"49b50cea-197b-42c0-a5fa-0ee9738cb2f5","status":"finished","class":{"system":"http://terminology.hl7.org/CodeSystem/v3-ActCode","code":"IMP","display":"inpatient encounter"},"type":[{"coding":[{"system":"http://terminology.hl7.org/CodeSystem/encounter-type","code":"ADMS"}]}],"subject":{"reference":"Patient/c1a7827b-1c9e-4fdb-932e-c8abb534496a"},"period":{"start":"2022-08-15T00:00:00+00:00","end":"2022-08-18T00:00:00+00:00"}},"request":{"method":"POST","url":"Encounter"}},{"fullUrl":"Encounter/b96a05c5-23a0-4c51-bfb6-05fa59a64ff8","resource":{"resourceType":"Encounter","id":"b96a05c5-23a0-4c51-bfb6-05fa59a64ff8","status":"finished","class":{"system":"http://terminology.hl7.org/CodeSystem/v3-ActCode","code":"IMP","display":"inpatient encounter"},"type":[{"coding":[{"system":"http://terminology.hl7.org/CodeSystem/encounter-type","code":"OKI"}]}],"subject":{"reference":"Patient/c1a7827b-1c9e-4fdb-932e-c8abb534496a"},"period":{"start":"2022-09-25T00:00:00+00:00","end":"2022-09-26T00:00:00+00:00"}},"request":{"method":"POST","url":"Encounter"}},{"fullUrl":"Encounter/f13b542d-f8b1-45cd-ab78-f57e177d7ece","resource":{"resourceType":"Encounter","id":"f13b542d-f8b1-45cd-ab78-f57e177d7ece","status":"finished","class":{"system":"http://terminology.hl7.org/CodeSystem/v3-ActCode","code":"IMP","display":"inpatient encounter"},"type":[{"coding":[{"system":"http://terminology.hl7.org/CodeSystem/encounter-type","code":"BD/BM-clin"}]}],"subject":{"reference":"Patient/c1a7827b-1c9e-4fdb-932e-c8abb534496a"},"period":{"start":"2022-11-12T00:00:00+00:00","end":"2022-11-16T00:00:00+00:00"}},"request":{"method":"POST","url":"Encounter"}},{"fullUrl":"Encounter/05d84262-7a40-472e-9a00-177e20df98ac","resource":{"resourceType":"Encounter","id":"05d84262-7a40-472e-9a00-177e20df98ac","status":"finished","class":{"system":"http://terminology.hl7.org/CodeSystem/v3-ActCode","code":"SS","display":"short-stay"},"type":[{"coding":[{"system":"http://terminology.hl7.org/CodeSystem/encounter-type","code":"ADMS"}]}],"subject":{"reference":"Patient/c1a7827b-1c9e-4fdb-932e-c8abb534496a"},"period":{"start":"2022-08-08T00:00:00+00:00","end":"2022-08-11T00:00:00+00:00"}},"request":{"method":"POST","url":"Encounter"}},{"fullUrl":"Encounter/4eef027e-6e06-435e-a472-f03769f7f383","resource":{"resourceType":"Encounter","id":"4eef027e-6e06-435e-a472-f03769f7f383","status":"finished","class":{"system":"http://terminology.hl7.org/CodeSystem/v3-ActCode","code":"OBSENC","display":"observation encounter"},"type":[{"coding":[{"system":"http://terminology.hl7.org/CodeSystem/encounter-type","code":"OKI"}]}],"subject":{"reference":"Patient/c1a7827b-1c9e-4fdb-932e-c8abb534496a"},"period":{"start":"2022-04-08T00:00:00+00:00","end":"2022-04-10T00:00:00+00:00"}},"request":{"method":"POST","url":"Encounter"}},{"fullUrl":"Encounter/1438fe23-1e1f-46b6-8bf0-10bb30ea7bce","resource":{"resourceType":"Encounter","id":"1438fe23-1e1f-46b6-8bf0-10bb30ea7bce","status":"finished","class":{"system":"http://terminology.hl7.org/CodeSystem/v3-ActCode","code":"FLD","display":"field"},"type":[{"coding":[{"system":"http://terminology.hl7.org/CodeSystem/encounter-type","code":"ADMS"}]}],"subject":{"reference":"Patient/c1a7827b-1c9e-4fdb-932e-c8abb534496a"},"period":{"start":"2022-02-11T00:00:00+00:00","end":"2022-02-11T00:00:00+00:00"}},"request":{"method":"POST","url":"Encounter"}},{"fullUrl":"Patient/77d50b3e-66e3-4725-9532-0adee5a97d87","resource":{"resourceType":"Patient","id":"77d50b3e-66e3-4725-9532-0adee5a97d87","identifier":[{"type":{"coding":[{"system":"http://terminology.hl7.org/CodeSystem/v2-0203","code":"MR"}]},"system":"urn:fhirgen:mrn","value":"034-96-0145"}],"name":[{"family":"Hamilton","given":["Carolyn"]}],"telecom":[{"system":"phone","value":"(611)271-3379","use":"home"}],"gender":"other","birthDate":"1993-01-11","address":[{"line":["60339 Kyle Center Suite 448"],"city":"New Kellyburgh","state":"CT","postalCode":"01015"}]},"request":{"method":"POST","url":"Patient"}},{"fullUrl":"Observation/7df733d1-643b-449e-bcea-19ae930dd2e4","resource":{"resourceType":"Observation","id":"7df733d1-643b-449e-bcea-19ae930dd2e4","status":"final","code":{"coding":[{"system":"http://loinc.org","code":"31146-4"}]},"subject":{"reference":"Patient/77d50b3e-66e3-4725-9532-0adee5a97d87"},"effectiveDateTime":"2022-03-29T00:00:00+00:00","valueRatio":{"numerator":{"value":1},"denominator":{"value":32}}},"request":{"method":"POST","url":"Observation"}},{"fullUrl":"Observation/29692794-fa40-497c-911b-4c42db6d3089","resource":{"resourceType":"Observation","id":"29692794-fa40-497c-911b-4c42db6d3089","status":"final","code":{"coding":[{"system":"http://loinc.org","code":"31147-2"}]},"subject":{"reference":"Patient/77d50b3e-66e3-4725-9532-0adee5a97d87"},"effectiveDateTime":"2022-02-19T00:00:00+00:00","valueRatio":{"numerator":{"value":1},"denominator":{"value":32}}},"request":{"method":"POST","url":"Observation"}},{"fullUrl":"Observation/cc0766cf-11b4-476a-8f97-ad4cf16dc5f1","resource":{"resourceType":"Observation","id":"cc0766cf-11b4-476a-8f97-ad4cf16dc5f1","status":"final","code":{"coding":[{"system":"http://loinc.org","code":"22590-4"}]},"subject":{"reference":"Patient/77d50b3e-66e3-4725-9532-0adee5a97d87"},"effectiveDateTime":"2022-03-29T00:00:00+00:00","valueRatio":{"numerator":{"value":1},"denominator":{"value":4}}},"request":{"method":"POST","url":"Observation"}},{"fullUrl":"Condition/0b23a501-47f4-49de-b373-91e279121d91","resource":{"resourceType":"Condition","id":"0b23a501-47f4-49de-b373-91e279121d91","code":{"coding":[{"system":"http://snomed.info/sct","code":"405737000"}]},"subject":{"reference":"Patient/77d50b3e-66e3-4725-9532-0adee5a97d87"},"onsetDateTime":"2022-09-25T00:00:00+00:00"},"request":{"method":"POST","url":"Condition"}},{"fullUrl":"Condition/7e10147c-d82f-4201-909e-c2f6af342067","resource":{"resourceType":"Condition","id":"7e10147c-d82f-4201-909e-c2f6af342067","code":{"coding":[{"system":"http://snomed.info/sct","code":"30746006"}]},"subject":{"reference":"Patient/77d50b3e-66e3-4725-9532-0adee5a97d87"},"onsetDateTime":"2022-12-27T00:00:00+00:00"},"request":{"method":"POST","url":"Condition"}},{"fullUrl":"Condition/424a8ff3-6987-44af-9f02-57501b6ac46f","resource":{"resourceType":"Condition","id":"424a8ff3-6987-44af-9f02-57501b6ac46f","code":{"coding":[{"system":"http://snomed.info/sct","code":"18165001"}]},"subject":{"reference":"Patient/77d50b3e-66e3-4725-9532-0adee5a97d87"},"onsetDateTime":"2022-12-14T00:00:00+00:00"},"request":{"method":"POST","url":"Condition"}},{"fullUrl":"Condition/7a96ab33-bc4e-4064-86a5-e25c585ffc75","resource":{"resourceType":"Condition","id":"7a96ab33-bc4e-4064-86a5-e25c585ffc75","code":{"coding":[{"system":"http://snomed.info/sct","code":"405737000"}]},"subject":{"reference":"Patient/77d50b3e-66e3-4725-9532-0adee5a97d87"},"onsetDateTime":"2022-11-21T00:00:00+00:00"},"request":{"method":"POST","url":"Condition"}},{"fullUrl":"Observation/5f6fecfd-eae7-44cc-a21f-ef9d5e7e0d87","resource":{"resourceType":"Observation","id":"5f6fecfd-eae7-44cc-a21f-ef9d5e7e0d87","status":"final","code":{"coding":[{"system":"http://loinc.org","code":"804-5"}]},"subject":{"reference":"Patient/77d50b3e-66e3-4725-9532-0adee5a97d87"},"effectiveDateTime":"2022-11-09T00:00:00+00:00","valueQuantity":{"value":9}},"request":{"method":"POST","url":"Observation"}},{"fullUrl":"Observation/cf3f1f2f-3630-486c-87b7-e50c6de4393c","resource":{"resourceType":"Observation","id":"cf3f1f2f-3630-486c-87b7-e50c6de4393c","status":"final","code":{"coding":[{"system":"http://loinc.org","code":"804-5"}]},"subject":{"reference":"Patient/77d50b3e-66e3-4725-9532-0adee5a97d87"},"effectiveDateTime":"2022-02-06T00:00:00+00:00","valueQuantity":{"value":4.6}},"request":{"method":"POST","url":"Observation"}},{"fullUrl":"Observation/8de433d3-2b50-4b9a-96a7-1cec87959cde","resource":{"resourceType":"Observation","id":"8de433d3-2b50-4b9a-96a7-1cec87959cde","status":"final","code":{"coding":[{"system":"http://loinc.org","code":"49498-9"}]},"subject":{"reference":"Patient/77d50b3e-66e3-4725-9532-0adee5a97d87"},"effectiveDateTime":"2022-06-19T00:00:00+00:00"},"request":{"method":"POST","url":"Observation"}},{"fullUrl":"Observation/824a35b6-1e80-4d57-9567-376155d29a3a","resource":{"resourceType":"Observation","id":"824a35b6-1e80-4d57-9567-376155d29a3a","status":"final","code":{"coding":[{"system":"http://loinc.org","code":"49498-9"}]},"subject":{"reference":"Patient/77d50b3e-66e3-4725-9532-0adee5a97d87"},"effectiveDateTime":"2022-11-16T00:00:00+00:00"},"request":{"method":"POST","url":"Observation"}},{"fullUrl":"Observation/72ecbd8c-9c49-46be-a41d-60edd6feddd8","resource":{"resourceType":"Observation","id":"72ecbd8c-9c49-46be-a41d-60edd6feddd8","status":"final","code":{"coding":[{"system":"http://loinc.org","code":"49498-9"}]},"subject":{"reference":"Patient/77d50b3e-66e3-4725-9532-0adee5a97d87"},"effectiveDateTime":"2022-12-31T00:00:00+00:00"},"request":{"method":"POST","url":"Observation"}},{"fullUrl":"Procedure/3a9a499c-8c94-4c67-ba3b-63aae19e91c1","resource":{"resourceType":"Procedure","id":"3a9a499c-8c94-4c67-ba3b-63aae19e91c1","status":"completed","code":{"coding":[{"system":"http://snomed.info/sct","code":"189009"}]},"subject":{"reference":"Patient/77d50b3e-66e3-4725-9532-0adee5a97d87"},"performedDateTime":"2022-06-16T00:00:00+00:00"},"request":{"method":"POST","url":"Procedure"}},{"fullUrl":"Procedure/75accb7d-1413-4649-9aae-2d3c4d284577","resource":{"resourceType":"Procedure","id":"75accb7d-1413-4649-9aae-2d3c4d284577","status":"completed","code":{"coding":[{"system":"http://snomed.info/sct","code":"189009"}]},"subject":{"reference":"Patient/77d50b3e-66e3-4725-9532-0adee5a97d87"},"performedDateTime":"2022-03-10T00:00:00+00:00"},"request":{"method":"POST","url":"Procedure"}},{"fullUrl":"Procedure/e8514250-4b04-4e7a-974d-cbc0c8c66a52","resource":{"resourceType":"Procedure","id":"e8514250-4b04-4e7a-974d-cbc0c8c66a52","status":"completed","code":{"coding":[{"system":"http://snomed.info/sct","code":"189009"}]},"subject":{"reference":"Patient/77d50b3e-66e3-4725-9532-0adee5a97d87"},"performedDateTime":"2022-10-28T00:00:00+00:00"},"request":{"method":"POST","url":"Procedure"}},{"fullUrl":"MedicationStatement/0c19d7c0-59d8-4092-ab27-e2f9f2f43c0f","resource":{"resourceType":"MedicationStatement","id":"0c19d7c0-59d8-4092-ab27-e2f9f2f43c0f","status":"completed","medicationCodeableConcept":{"coding":[{"system":"http://www.nlm.nih.gov/research/umls/rxnorm","code":"10395"}]},"subject":{"reference":"Patient/77d50b3e-66e3-4725-9532-0adee5a97d87"},"effectiveDateTime":"2022-06-16T00:00:00+00:00","dosage":[{"doseAndRate":[{"doseQuantity":{"value":2,"unit":"TAB","system":"http://terminology.hl7.org/CodeSystem/v3-orderableDrugForm","code":"TAB"}}]}]},"request":{"method":"POST","url":"MedicationStatement"}},{"fullUrl":"MedicationStatement/d0461d29-8fa2-4525-b285-e734a441694c","resource":{"resourceType":"MedicationStatement","id":"d0461d29-8fa2-4525-b285-e734a441694c","status":"completed","medicationCodeableConcept":{"coding":[{"system":"http://www.nlm.nih.gov/research/umls/rxnorm","code":"8698"}]},"subject":{"reference":"Patient/77d50b3e-66e3-4725-9532-0adee5a97d87"},"effectiveDateTime":"2022-05-24T00:00:00+00:00","dosage":[{"doseAndRate":[{"doseQuantity":{"value":2,"unit":"TAB","system":"http://terminology.hl7.org/CodeSystem/v3-orderableDrugForm","code":"TAB"}}]}]},"request":{"method":"POST","url":"MedicationStatement"}},{"fullUrl":"MedicationStatement/eed2b020-e87d-418f-aa6f-6d5728e7b8ec","resource":{"resourceType":"MedicationStatement","id":"eed2b020-e87d-418f-aa6f-6d5728e7b8ec","status":"completed","medicationCodeableConcept":{"coding":[{"system":"http://www.nlm.nih.gov/research/umls/rxnorm","code":"18631"}]},"subject":{"reference":"Patient/77d50b3e-66e3-4725-9532-0adee5a97d87"},"effectiveDateTime":"2022-11-13T00:00:00+00:00","dosage":[{"doseAndRate":[{"doseQuantity":{"value":1,"unit":"TAB","system":"http://terminology.hl7.org/CodeSystem/v3-orderableDrugForm","code":"TAB"}}]}]},"request":{"method":"POST","url":"MedicationStatement"}},{"fullUrl":"MedicationStatement/554643a3-5804-4883-9e79-f5ce503325ce","resource":{"resourceType":"MedicationStatement","id":"554643a3-5804-4883-9e79-f5ce503325ce","status":"completed","medicationCodeableConcept":{"coding":[{"system":"http://www.nlm.nih.gov/research/umls/rxnorm","code":"3640"}]},"subject":{"reference":"Patient/77d50b3e-66e3-4725-9532-0adee5a97d87"},"effectiveDateTime":"2022-01-24T00:00:00+00:00","dosage":[{"doseAndRate":[{"doseQuantity":{"value":1,"unit":"TAB","system":"http://terminology.hl7.org/CodeSystem/v3-orderableDrugForm","code":"TAB"}}]}]},"request":{"method":"POST","url":"MedicationStatement"}},{"fullUrl":"MedicationStatement/f1878ff8-e563-45e1-9f0a-aa0fbda79c89","resource":{"resourceType":"MedicationStatement","id":"f1878ff8-e563-45e1-9f0a-aa0fbda79c89","status":"completed","medicationCodeableConcept":{"coding":[{"system":"http://www.nlm.nih.gov/research/umls/rxnorm","code":"3640"}]},"subject":{"reference":"Patient/77d50b3e-66e3-4725-9532-0adee5a97d87"},"effectiveDateTime":"2022-11-08T00:00:00+00:00","dosage":[{"doseAndRate":[{"doseQuantity":{"value":2,"unit":"TAB","system":"http://terminology.hl7.org/CodeSystem/v3-orderableDrugForm","code":"TAB"}}]}]},"request":{"method":"POST","url":"MedicationStatement"}},{"fullUrl":"MedicationStatement/bf724491-0c9f-4531-aa20-357b089f89d3","resource":{"resourceType":"MedicationStatement","id":"bf724491-0c9f-4531-aa20-357b089f89d3","status":"completed","medicationCodeableConcept":{"coding":[{"system":"http://www.nlm.nih.gov/research/umls/rxnorm","code":"7984"}]},"subject":{"reference":"Patient/77d50b3e-66e3-4725-9532-0adee5a97d87"},"effectiveDateTime":"2022-06-29T00:00:00+00:00","dosage":[{"doseAndRate":[{"doseQuantity":{"value":1,"unit":"TAB","system":"http://terminology.hl7.org/CodeSystem/v3-orderableDrugForm","code":"TAB"}}]}]},"request":{"method":"POST","url":"MedicationStatement"}},{"fullUrl":"MedicationStatement/83412e98-c9a4-41ac-b259-93db8e9e5b4b","resource":{"resourceType":"MedicationStatement","id":"83412e98-c9a4-41ac-b259-93db8e9e5b4b","status":"completed","medicationCodeableConcept":{"coding":[{"system":"http://www.nlm.nih.gov/research/umls/rxnorm","code":"7984"}]},"subject":{"reference":"Patient/77d50b3e-66e3-4725-9532-0adee5a97d87"},"effectiveDateTime":"2022-07-12T00:00:00+00:00","dosage":[{"doseAndRate":[{"doseQuantity":{"value":1,"unit":"TAB","system":"http://terminology.hl7.org/CodeSystem/v3-orderableDrugForm","code":"TAB"}}]}]},"request":{"method":"POST","url":"MedicationStatement"}},{"fullUrl":"MedicationStatement/4c833b19-2772-4799-8fa6-251940209b7a","resource":{"resourceType":"MedicationStatement","id":"4c833b19-2772-4799-8fa6-251940209b7a","status":"completed","medicationCodeableConcept":{"coding":[{"system":"http://www.nlm.nih.gov/research/umls/rxnorm","code":"7980"}]},"subject":{"reference":"Patient/77d50b3e-66e3-4725-9532-0adee5a97d87"},"effectiveDateTime":"2022-02-21T00:00:00+00:00","dosage":[{"doseAndRate":[{"doseQuantity":{"value":3.9,"unit":"TAB","system":"http://terminology.hl7.org/CodeSystem/v3-orderableDrugForm","code":"TAB"}}]}]},"request":{"method":"POST","url":"MedicationStatement"}},{"fullUrl":"MedicationStatement/95afa5aa-8fd8-42ed-8948-41308394c856","resource":{"resourceType":"MedicationStatement","id":"95afa5aa-8fd8-42ed-8948-41308394c856","status":"completed","medicationCodeableConcept":{"coding":[{"system":"http://www.nlm.nih.gov/research/umls/rxnorm","code":"2193"}]},"subject":{"reference":"Patient/77d50b3e-66e3-4725-9532-0adee5a97d87"},"effectiveDateTime":"2022-03-05T00:00:00+00:00","dosage":[{"doseAndRate":[{"doseQuantity":{"value":3.4,"unit":"TAB","system":"http://terminology.hl7.org/CodeSystem/v3-orderableDrugForm","code":"TAB"}}]}]},"request":{"method":"POST","url":"MedicationStatement"}},{"fullUrl":"MedicationStatement/7917c3f3-f8c3-49a0-8ece-ccb65cc9ae2a","resource":{"resourceType":"MedicationStatement","id":"7917c3f3-f8c3-49a0-8ece-ccb65cc9ae2a","status":"completed","medicationCodeableConcept":{"coding":[{"system":"http://www.nlm.nih.gov/research/umls/rxnorm","code":"7980"}]},"subject":{"reference":"Patient/77d50b3e-66e3-4725-9532-0adee5a97d87"},"effectiveDateTime":"2022-11-02T00:00:00+00:00","dosage":[{"doseAndRate":[{"doseQuantity":{"value":5.9,"unit":"TAB","system":"http://terminology.hl7.org/CodeSystem/v3-orderableDrugForm","code":"TAB"}}]}]},"request":{"method":"POST","url":"MedicationStatement"}},{"fullUrl":"MedicationStatement/d17fad4a-d318-48ba-bb16-3b2a8b49f80d","resource":{"resourceType":"MedicationStatement","id":"d17fad4a-d318-48ba-bb16-3b2a8b49f80d","status":"completed","medicationCodeableConcept":{"coding":[{"system":"http://www.nlm.nih.gov/research/umls/rxnorm","code":"10395"}]},"subject":{"reference":"Patient/77d50b3e-66e3-4725-9532-0adee5a97d87"},"effectiveDateTime":"2022-11-03T00:00:00+00:00","dosage":[{"doseAndRate":[{"doseQuantity":{"value":3,"unit":"TAB","system":"http://terminology.hl7.org/CodeSystem/v3-orderableDrugForm","code":"TAB"}}]}]},"request":{"method":"POST","url":"MedicationStatement"}},{"fullUrl":"MedicationStatement/5e7370ab-e827-4087-bffe-18394a46aaeb","resource":{"resourceType":"MedicationStatement","id":"5e7370ab-e827-4087-bffe-18394a46aaeb","status":"completed","medicationCodeableConcept":{"coding":[{"system":"http://www.nlm.nih.gov/research/umls/rxnorm","code":"8698"}]},"subject":{"reference":"Patient/77d50b3e-66e3-4725-9532-0adee5a97d87"},"effectiveDateTime":"2022-01-16T00:00:00+00:00","dosage":[{"doseAndRate":[{"doseQuantity":{"value":6,"unit":"TAB","system":"http://terminology.hl7.org/CodeSystem/v3-orderableDrugForm","code":"TAB"}}]}]},"request":{"method":"POST","url":"MedicationStatement"}},{"fullUrl":"Encounter/4943402c-e6b4-4c53-b030-bf5fc43c58b0","resource":{"resourceType":"Encounter","id":"4943402c-e6b4-4c53-b030-bf5fc43c58b0","status":"finished","class":{"system":"http://terminology.hl7.org/CodeSystem/v3-ActCode","code":"IMP","display":"inpatient encounter"},"type":[{"coding":[{"system":"http://terminology.hl7.org/CodeSystem/encounter-type","code":"OKI"}]}],"subject":{"reference":"Patient/77d50b3e-66e3-4725-9532-0adee5a97d87"},"period":{"start":"2022-02-18T00:00:00+00:00","end":"2022-02-27T00:00:00+00:00"}},"request":{"method":"POST","url":"Encounter"}},{"fullUrl":"Encounter/d4051912-e1fe-44a2-87ba-326d8efcceb0","resource":{"resourceType":"Encounter","id":"d4051912-e1fe-44a2-87ba-326d8efcceb0","status":"finished","class":{"system":"http://terminology.hl7.org/CodeSystem/v3-ActCode","code":"IMP","display":"inpatient encounter"},"type":[{"coding":[{"system":"http://terminology.hl7.org/CodeSystem/encounter-type","code":"ADMS"}]}],"subject":{"reference":"Patient/77d50b3e-66e3-4725-9532-0adee5a97d87"},"period":{"start":"2022-09-01T00:00:00+00:00","end":"2022-09-01T00:00:00+00:00"}},"request":{"method":"POST","url":"Encounter"}},{"fullUrl":"Encounter/3dea4455-2098-4da5-ae1c-db4fc9f2e107","resource":{"resourceType":"Encounter","id":"3dea4455-2098-4da5-ae1c-db4fc9f2e107","status":"finished","class":{"system":"http://terminology.hl7.org/CodeSystem/v3-ActCode","code":"ACUTE","display":"inpatient acute"},"type":[{"coding":[{"system":"http://terminology.hl7.org/CodeSystem/encounter-type","code":"OKI"}]}],"subject":{"reference":"Patient/77d50b3e-66e3-4725-9532-0adee5a97d87"},"period":{"start":"2022-12-15T00:00:00+00:00","end":"2022-12-15T00:00:00+00:00"}},"request":{"method":"POST","url":"Encounter"}},{"fullUrl":"Encounter/b5ddaeed-a7ca-4adf-a119-43d047b4dde2","resource":{"resourceType":"Encounter","id":"b5ddaeed-a7ca-4adf-a119-43d047b4dde2","status":"finished","class":{"system":"http://terminology.hl7.org/CodeSystem/v3-ActCode","code":"ACUTE","display":"inpatient acute"},"type":[{"coding":[{"system":"http://terminology.hl7.org/CodeSystem/encounter-type","code":"ADMS"}]}],"subject":{"reference":"Patient/77d50b3e-66e3-4725-9532-0adee5a97d87"},"period":{"start":"2022-05-03T00:00:00+00:00","end":"2022-05-12T00:00:00+00:00"}},"request":{"method":"POST","url":"Encounter"}}]}