{"resourceType":"Bundle","id":"6fa300be-30d3-4e05-9655-fcacbecec60d","type":"collection","entry":[{"fullUrl":"Patient/86d7cfe1-b2c5-457a-ad8f-43e9b665ae25","resource":{"resourceType":"Patient","id":"86d7cfe1-b2c5-457a-ad8f-43e9b665ae25","meta":{"profile":["http://hl7.org/fhir/us/core/StructureDefinition/us-core-patient"]},"extension":[{"extension":[{"url":"ombCategory","valueCoding":{"system":"urn:oid:2.16.840.1.113883.6.238","code":"2076-8","display":"Native Hawaiian or Other Pacific Islander"}},{"url":"text","valueString":"Native Hawaiian or Other Pacific Islander"}],"url":"http://hl7.org/fhir/us/core/StructureDefinition/us-core-race"},{"extension":[{"url":"ombCategory","valueCoding":{"system":"urn:oid:2.16.840.1.113883.6.238","code":"2135-2","display":"Hispanic or Latino"}},{"url":"text","valueString":"Hispanic or Latino"}],"url":"http://hl7.org/fhir/us/core/StructureDefinition/us-core-ethnicity"}],"identifier":[{"type":{"coding":[{"system":"http://terminology.hl7.org/CodeSystem/v2-0203","code":"MR"}]},"system":"urn:fhirgen:mrn","value":"835-83-0956"}],"name":[{"use":"official","family":"Reed","given":["Luis"]},{"use":"maiden","family":"Harris"}],"telecom":[{"system":"phone","value":"+1-902-724-7269x1573","use":"home"},{"system":"email","value":"tmays@gmail.com","use":"mobile"}],"gender":"male","birthDate":"2001-11-09","address":[{"use":"home","line":["9615 Crystal Extension"],"city":"South Ryanfurt","state":"PA","postalCode":"02074"},{"use":"old","line":["877 Ortiz Circle"],"city":"North Adamville","state":"NH","postalCode":"59236"}]}},{"fullUrl":"Observation/6f3cfc47-7fcd-42ff-a926-ff463ba10c59","resource":{"resourceType":"Observation","id":"6f3cfc47-7fcd-42ff-a926-ff463ba10c59","meta":{"profile":["http://hl7.org/fhir/us/core/StructureDefinition/us-core-observation-lab"]},"status":"final","category":[{"coding":[{"system":"http://terminology.hl7.org/CodeSystem/observation-category","code":"laboratory","display":"Laboratory"}]}],"code":{"coding":[{"system":"http://loinc.org","code":"51475-2"}]},"subject":{"reference":"Patient/86d7cfe1-b2c5-457a-ad8f-43e9b665ae25"},"effectiveDateTime":"2022-07-12T00:00:00+00:00","valueRatio":{"numerator":{"value":1},"denominator":{"value":32}}}},{"fullUrl":"Observation/c54652b8-5ddc-435a-acd2-2135e4e6b655","resource":{"resourceType":"Observation","id":"c54652b8-5ddc-435a-acd2-2135e4e6b655","meta":{"profile":["http://hl7.org/fhir/us/core/StructureDefinition/us-core-observation-lab"]},"status":"final","category":[{"coding":[{"system":"http://terminology.hl7.org/CodeSystem/observation-category","code":"laboratory","display":"Laboratory"}]}],"code":{"coding":[{"system":"http://loinc.org","code":"51475-2"}]},"subject":{"reference":"Patient/86d7cfe1-b2c5-457a-ad8f-43e9b665ae25"},"effectiveDateTime":"2022-08-18T00:00:00+00:00","valueRatio":{"numerator":{"value":1},"denominator":{"value":32}}}},{"fullUrl":"Observation/f5a65cd4-750e-4788-b376-9a34b46fb55a","resource":{"resourceType":"Observation","id":"f5a65cd4-750e-4788-b376-9a34b46fb55a","meta":{"profile":["http://hl7.org/fhir/us/core/StructureDefinition/us-core-observation-lab"]},"status":"final","category":[{"coding":[{"system":"http://terminology.hl7.org/CodeSystem/observation-category","code":"laboratory","display":"Laboratory"}]}],"code":{"coding":[{"system":"http://loinc.org","code":"11084-1"}]},"subject":{"reference":"Patient/86d7cfe1-b2c5-457a-ad8f-43e9b665ae25"},"effectiveDateTime":"2022-08-14T00:00:00+00:00","valueRatio":{"numerator":{"value":1},"denominator":{"value":4}}}},{"fullUrl":"Condition/69a5bcd8-9517-41e3-9aab-ab19bfd83c9d","resource":{"resourceType":"Condition","id":"69a5bcd8-9517-41e3-9aab-ab19bfd83c9d","meta":{"profile":["http://hl7.org/fhir/us/core/StructureDefinition/us-core-condition"]},"clinicalStatus":{"coding":[{"system":"http://terminology.hl7.org/CodeSystem/condition-clinical","code":"active","display":"Active"}]},"category":[{"coding":[{"system":"http://terminology.hl7.org/CodeSystem/condition-category","code":"problem-list-item"}]}],"code":{"coding":[{"system":"http://snomed.info/sct","code":"709977002"}]},"subject":{"reference":"Patient/86d7cfe1-b2c5-457a-ad8f-43e9b665ae25"},"onsetDateTime":"2022-07-19T00:00:00+00:00"}},{"fullUrl":"Condition/0dbff483-dd02-48de-a02c-140bc947fe80","resource":{"resourceType":"Condition","id":"0dbff483-dd02-48de-a02c-140bc947fe80","meta":{"profile":["http://hl7.org/fhir/us/core/StructureDefinition/us-core-condition"]},"clinicalStatus":{"coding":[{"system":"http://terminology.hl7.org/CodeSystem/condition-clinical","code":"active","display":"Active"}]},"category":[{"coding":[{"system":"http://terminology.hl7.org/CodeSystem/condition-category","code":"problem-list-item"}]}],"code":{"coding":[{"system":"http://snomed.info/sct","code":"736686006"}]},"subject":{"reference":"Patient/86d7cfe1-b2c5-457a-ad8f-43e9b665ae25"},"onsetDateTime":"2022-07-19T00:00:00+00:00"}},{"fullUrl":"Condition/c55da862-9067-4385-8af8-3c362c5825cc","resource":{"resourceType":"Condition","id":"c55da862-9067-4385-8af8-3c362c5825cc","meta":{"profile":["http://hl7.org/fhir/us/core/StructureDefinition/us-core-condition"]},"clinicalStatus":{"coding":[{"system":"http://terminology.hl7.org/CodeSystem/condition-clinical","code":"active","display":"Active"}]},"category":[{"coding":[{"system":"http://terminology.hl7.org/CodeSystem/condition-category","code":"problem-list-item"}]}],"code":{"coding":[{"system":"http://snomed.info/sct","code":"418290006"}]},"subject":{"reference":"Patient/86d7cfe1-b2c5-457a-ad8f-43e9b665ae25"},"onsetDateTime":"2022-03-03T00:00:00+00:00"}},{"fullUrl":"Condition/7e27f060-e144-4f1b-9957-1b88c1da6bff","resource":{"resourceType":"Condition","id":"7e27f060-e144-4f1b-9957-1b88c1da6bff","meta":{"profile":["http://hl7.org/fhir/us/core/StructureDefinition/us-core-condition"]},"clinicalStatus":{"coding":[{"system":"http://terminology.hl7.org/CodeSystem/condition-clinical","code":"active","display":"Active"}]},"category":[{"coding":[{"system":"http://terminology.hl7.org/CodeSystem/condition-category","code":"problem-list-item"}]}],"code":{"coding":[{"system":"http://snomed.info/sct","code":"44882003"}]},"subject":{"reference":"Patient/86d7cfe1-b2c5-457a-ad8f-43e9b665ae25"},"onsetDateTime":"2022-03-16T00:00:00+00:00"}},{"fullUrl":"Condition/67aa14f7-289c-4d09-8614-9348ddd6cb82","resource":{"resourceType":"Condition","id":"67aa14f7-289c-4d09-8614-9348ddd6cb82","meta":{"profile":["http://hl7.org/fhir/us/core/StructureDefinition/us-core-condition"]},"clinicalStatus":{"coding":[{"system":"http://terminology.hl7.org/CodeSystem/condition-clinical","code":"active","display":"Active"}]},"category":[{"coding":[{"system":"http://terminology.hl7.org/CodeSystem/condition-category","code":"problem-list-item"}]}],"code":{"coding":[{"system":"http://snomed.info/sct","code":"44882003"}]},"subject":{"reference":"Patient/86d7cfe1-b2c5-457a-ad8f-43e9b665ae25"},"onsetDateTime":"2022-11-05T00:00:00+00:00"}},{"fullUrl":"Condition/2a455439-f3a5-4011-8f74-c90fde6179b6","resource":{"resourceType":"Condition","id":"2a455439-f3a5-4011-8f74-c90fde6179b6","meta":{"profile":["http://hl7.org/fhir/us/core/StructureDefinition/us-core-condition"]},"clinicalStatus":{"coding":[{"system":"http://terminology.hl7.org/CodeSystem/condition-clinical","code":"active","display":"Active"}]},"category":[{"coding":[{"system":"http://terminology.hl7.org/CodeSystem/condition-category","code":"problem-list-item"}]}],"code":{"coding":[{"system":"http://snomed.info/sct","code":"418290006"}]},"subject":{"reference":"Patient/86d7cfe1-b2c5-457a-ad8f-43e9b665ae25"},"onsetDateTime":"2022-03-18T00:00:00+00:00"}},{"fullUrl":"Observation/4a683f45-ae98-425d-9070-6c4bccbf61bf","resource":{"resourceType":"Observation","id":"4a683f45-ae98-425d-9070-6c4bccbf61bf","meta":{"profile":["http://hl7.org/fhir/us/core/StructureDefinition/us-core-observation-lab"]},"status":"final","category":[{"coding":[{"system":"http://terminology.hl7.org/CodeSystem/observation-category","code":"laboratory","display":"Laboratory"}]}],"code":{"coding":[{"system":"http://loinc.org","code":"49498-9"}]},"subject":{"reference":"Patient/86d7cfe1-b2c5-457a-ad8f-43e9b665ae25"},"effectiveDateTime":"2022-12-06T00:00:00+00:00","valueQuantity":{"value":4.1}}},{"fullUrl":"Observation/3ccd53f0-1683-47b9-b1b1-5d88df5618e3","resource":{"resourceType":"Observation","id":"3ccd53f0-1683-47b9-b1b1-5d88df5618e3","meta":{"profile":["http://hl7.org/fhir/us/core/StructureDefinition/us-core-observation-lab"]},"status":"final","category":[{"coding":[{"system":"http://terminology.hl7.org/CodeSystem/observation-category","code":"laboratory","display":"Laboratory"}]}],"code":{"coding":[{"system":"http://loinc.org","code":"26464-8"}]},"subject":{"reference":"Patient/86d7cfe1-b2c5-457a-ad8f-43e9b665ae25"},"effectiveDateTime":"2022-12-18T00:00:00+00:00","valueQuantity":{"value":10.1}}},{"fullUrl":"Observation/2996c4a0-9795-4041-9f82-42b971b66647","resource":{"resourceType":"Observation","id":"2996c4a0-9795-4041-9f82-42b971b66647","meta":{"profile":["http://hl7.org/fhir/us/core/StructureDefinition/us-core-bmi"]},"status":"final","category":[{"coding":[{"system":"http://terminology.hl7.org/CodeSystem/observation-category","code":"vital-signs","display":"Vital Signs"}]}],"code":{"coding":[{"system":"http://loinc.org","code":"39156-5"}]},"subject":{"reference":"Patient/86d7cfe1-b2c5-457a-ad8f-43e9b665ae25"},"effectiveDateTime":"2022-11-30T00:00:00+00:00","valueQuantity":{"value":29.24,"unit":"kg/m2","system":"http://unitsofmeasure.org","code":"kg/m2"}}},{"fullUrl":"Observation/50980793-e16b-4f90-b072-ba2461c36f20","resource":{"resourceType":"Observation","id":"50980793-e16b-4f90-b072-ba2461c36f20","meta":{"profile":["http://hl7.org/fhir/us/core/StructureDefinition/us-core-head-circumference"]},"status":"final","category":[{"coding":[{"system":"http://terminology.hl7.org/CodeSystem/observation-category","code":"vital-signs","display":"Vital Signs"}]}],"code":{"coding":[{"system":"http://loinc.org","code":"9843-4"}]},"subject":{"reference":"Patient/86d7cfe1-b2c5-457a-ad8f-43e9b665ae25"},"effectiveDateTime":"2022-08-09T00:00:00+00:00","valueQuantity":{"value":5.9,"unit":"Inch","system":"http://unitsofmeasure.org","code":"[in_i]"}}},{"fullUrl":"Observation/98145d1f-fb19-43c9-ab3e-fb3a82fefb04","resource":{"resourceType":"Observation","id":"98145d1f-fb19-43c9-ab3e-fb3a82fefb04","meta":{"profile":["http://hl7.org/fhir/us/core/StructureDefinition/us-core-body-height"]},"status":"final","category":[{"coding":[{"system":"http://terminology.hl7.org/CodeSystem/observation-category","code":"vital-signs","display":"Vital Signs"}]}],"code":{"coding":[{"system":"http://loinc.org","code":"8302-2"}]},"subject":{"reference":"Patient/86d7cfe1-b2c5-457a-ad8f-43e9b665ae25"},"effectiveDateTime":"2022-05-13T00:00:00+00:00","valueQuantity":{"value":63.6,"unit":"Inch","system":"http://unitsofmeasure.org","code":"[in_i]"}}},{"fullUrl":"Observation/529bd1b1-8577-4c21-921f-2b2c61415880","resource":{"resourceType":"Observation","id":"529bd1b1-8577-4c21-921f-2b2c61415880","meta":{"profile":["http://hl7.org/fhir/us/core/StructureDefinition/us-core-body-weight"]},"status":"final","category":[{"coding":[{"system":"http://terminology.hl7.org/CodeSystem/observation-category","code":"vital-signs","display":"Vital Signs"}]}],"code":{"coding":[{"system":"http://loinc.org","code":"29463-7"}]},"subject":{"reference":"Patient/86d7cfe1-b2c5-457a-ad8f-43e9b665ae25"},"effectiveDateTime":"2022-08-10T00:00:00+00:00","valueQuantity":{"value":130.54,"unit":"kilogram","system":"http://unitsofmeasure.org","code":"kg"}}},{"fullUrl":"Observation/214caafc-0d69-46ca-915a-51839a2e0ad5","resource":{"resourceType":"Observation","id":"214caafc-0d69-46ca-915a-51839a2e0ad5","meta":{"profile":["http://hl7.org/fhir/us/core/StructureDefinition/us-core-body-weight"]},"status":"final","category":[{"coding":[{"system":"http://terminology.hl7.org/CodeSystem/observation-category","code":"vital-signs","display":"Vital Signs"}]}],"code":{"coding":[{"system":"http://loinc.org","code":"29463-7"}]},"subject":{"reference":"Patient/86d7cfe1-b2c5-457a-ad8f-43e9b665ae25"},"effectiveDateTime":"2022-06-25T00:00:00+00:00","valueQuantity":{"value":100.18,"unit":"kilogram","system":"http://unitsofmeasure.org","code":"kg"}}},{"fullUrl":"Observation/541cf1c2-ee83-488e-9bd0-fbbc9cdc7dd7","resource":{"resourceType":"Observation","id":"541cf1c2-ee83-488e-9bd0-fbbc9cdc7dd7","meta":{"profile":["http://hl7.org/fhir/us/core/StructureDefinition/us-core-body-temperature"]},"status":"final","category":[{"coding":[{"system":"http://terminology.hl7.org/CodeSystem/observation-category","code":"vital-signs","display":"Vital Signs"}]}],"code":{"coding":[{"system":"http://loinc.org","code":"8310-5"}]},"subject":{"reference":"Patient/86d7cfe1-b2c5-457a-ad8f-43e9b665ae25"},"effectiveDateTime":"2022-03-15T00:00:00+00:00","valueQuantity":{"value":107.74,"unit":"Degrees Fahrenheit","system":"http://unitsofmeasure.org","code":"[degF]"}}},{"fullUrl":"Observation/ae49da1d-c091-4d97-97f8-40dea217eb56","resource":{"resourceType":"Observation","id":"ae49da1d-c091-4d97-97f8-40dea217eb56","meta":{"profile":["http://hl7.org/fhir/us/core/StructureDefinition/us-core-heart-rate"]},"status":"final","category":[{"coding":[{"system":"http://terminology.hl7.org/CodeSystem/observation-category","code":"vital-signs","display":"Vital Signs"}]}],"code":{"coding":[{"system":"http://loinc.org","code":"8867-4"}]},"subject":{"reference":"Patient/86d7cfe1-b2c5-457a-ad8f-43e9b665ae25"},"effectiveDateTime":"2022-02-20T00:00:00+00:00","valueQuantity":{"value":98.7,"unit":"Per Minute","system":"http://unitsofmeasure.org","code":"/min"}}},{"fullUrl":"Observation/3eda25b6-082c-4376-ad0a-7f6fd1ebf69a","resource":{"resourceType":"Observation","id":"3eda25b6-082c-4376-ad0a-7f6fd1ebf69a","meta":{"profile":["http://hl7.org/fhir/us/core/StructureDefinition/us-core-heart-rate"]},"status":"final","category":[{"coding":[{"system":"http://terminology.hl7.org/CodeSystem/observation-category","code":"vital-signs","display":"Vital Signs"}]}],"code":{"coding":[{"system":"http://loinc.org","code":"8867-4"}]},"subject":{"reference":"Patient/86d7cfe1-b2c5-457a-ad8f-43e9b665ae25"},"effectiveDateTime":"2022-01-21T00:00:00+00:00","valueQuantity":{"value":98.9,"unit":"Per Minute","system":"http://unitsofmeasure.org","code":"/min"}}},{"fullUrl":"Patient/05e8228e-07e6-456e-9643-3f0764b83dde","resource":{"resourceType":"Patient","id":"05e8228e-07e6-456e-9643-3f0764b83dde","meta":{"profile":["http://hl7.org/fhir/us/core/StructureDefinition/us-core-patient"]},"extension":[{"extension":[{"url":"ombCategory","valueCoding":{"system":"http://terminology.hl7.org/CodeSystem/v3-NullFlavor","code":"ASKU","display":"asked but unknown"}},{"url":"text","valueString":"asked but unknown"}],"url":"http://hl7.org/fhir/us/core/StructureDefinition/us-core-race"},{"extension":[{"url":"ombCategory","valueCoding":{"system":"urn:oid:2.16.840.1.113883.6.238","code":"2186-5","display":"Non Hispanic or Latino"}},{"url":"text","valueString":"Non Hispanic or Latino"}],"url":"http://hl7.org/fhir/us/core/StructureDefinition/us-core-ethnicity"}],"identifier":[{"type":{"coding":[{"system":"http://terminology.hl7.org/CodeSystem/v2-0203","code":"MR"}]},"system":"urn:fhirgen:mrn","value":"747-26-3106"}],"name":[{"use":"official","family":"Roberts","given":["Nathan"]},{"use":"maiden","family":"Santiago"}],"telecom":[{"system":"phone","value":"(444)230-3749","use":"mobile"},{"system":"email","value":"carol94@hotmail.com","use":"mobile"}],"gender":"male","birthDate":"1998-01-25","address":[{"use":"home","line":["7545 Jeffrey Stream Apt. 199"],"city":"Robertburgh","state":"ME","postalCode":"06962"},{"use":"old","line":["71612 Michael Lights Suite 348"],"city":"West Jessica","state":"OK","postalCode":"08986"}]}},{"fullUrl":"Observation/c2e36662-2952-4365-981a-6490f012e55d","resource":{"resourceType":"Observation","id":"c2e36662-2952-4365-981a-6490f012e55d","meta":{"profile":["http://hl7.org/fhir/us/core/StructureDefinition/us-core-observation-lab"]},"status":"final","category":[{"coding":[{"system":"http://terminology.hl7.org/CodeSystem/observation-category","code":"laboratory","display":"Laboratory"}]}],"code":{"coding":[{"system":"http://loinc.org","code":"51475-2"}]},"subject":{"reference":"Patient/05e8228e-07e6-456e-9643-3f0764b83dde"},"effectiveDateTime":"2022-11-29T00:00:00+00:00","valueRatio":{"numerator":{"value":1},"denominator":{"value":4}}}},{"fullUrl":"Observation/f66ed220-2abe-466e-87ae-4f54488ca522","resource":{"resourceType":"Observation","id":"f66ed220-2abe-466e-87ae-4f54488ca522","meta":{"profile":["http://hl7.org/fhir/us/core/StructureDefinition/us-core-observation-lab"]},"status":"final","category":[{"coding":[{"system":"http://terminology.hl7.org/CodeSystem/observation-category","code":"laboratory","display":"Laboratory"}]}],"code":{"coding":[{"system":"http://loinc.org","code":"26009-1"}]},"subject":{"reference":"Patient/05e8228e-07e6-456e-9643-3f0764b83dde"},"effectiveDateTime":"2022-03-17T00:00:00+00:00","valueRatio":{"numerator":{"value":1},"denominator":{"value":64}}}},{"fullUrl":"Condition/6e958454-0969-4ebd-82ea-25a306c42b4a","resource":{"resourceType":"Condition","id":"6e958454-0969-4ebd-82ea-25a306c42b4a","meta":{"profile":["http://hl7.org/fhir/us/core/StructureDefinition/us-core-condition"]},"clinicalStatus":{"coding":[{"system":"http://terminology.hl7.org/CodeSystem/condition-clinical","code":"active","display":"Active"}]},"category":[{"coding":[{"system":"http://terminology.hl7.org/CodeSystem/condition-category","code":"problem-list-item"}]}],"code":{"coding":[{"system":"http://snomed.info/sct","code":"736686006"}]},"subject":{"reference":"Patient/05e8228e-07e6-456e-9643-3f0764b83dde"},"onsetDateTime":"2022-12-13T00:00:00+00:00"}},{"fullUrl":"Condition/5de166de-82f5-4393-a205-43dd456eedc6","resource":{"resourceType":"Condition","id":"5de166de-82f5-4393-a205-43dd456eedc6","meta":{"profile":["http://hl7.org/fhir/us/core/StructureDefinition/us-core-condition"]},"clinicalStatus":{"coding":[{"system":"http://terminology.hl7.org/CodeSystem/condition-clinical","code":"active","display":"Active"}]},"category":[{"coding":[{"system":"http://terminology.hl7.org/CodeSystem/condition-category","code":"problem-list-item"}]}],"code":{"coding":[{"system":"http://snomed.info/sct","code":"709977002"}]},"subject":{"reference":"Patient/05e8228e-07e6-456e-9643-3f0764b83dde"},"onsetDateTime":"2022-07-01T00:00:00+00:00"}},{"fullUrl":"Condition/ae9c9401-6d41-4e04-8283-06912bf4c5b9","resource":{"resourceType":"Condition","id":"ae9c9401-6d41-4e04-8283-06912bf4c5b9","meta":{"profile":["http://hl7.org/fhir/us/core/StructureDefinition/us-core-condition"]},"clinicalStatus":{"coding":[{"system":"http://terminology.hl7.org/CodeSystem/condition-clinical","code":"active","display":"Active"}]},"category":[{"coding":[{"system":"http://terminology.hl7.org/CodeSystem/condition-category","code":"problem-list-item"}]}],"code":{"coding":[{"system":"http://snomed.info/sct","code":"418290006"}]},"subject":{"reference":"Patient/05e8228e-07e6-456e-9643-3f0764b83dde"},"onsetDateTime":"2022-09-02T00:00:00+00:00"}},{"fullUrl":"Condition/3e06fc63-c027-478c-95b3-0b00b84c124d","resource":{"resourceType":"Condition","id":"3e06fc63-c027-478c-95b3-0b00b84c124d","meta":{"profile":["http://hl7.org/fhir/us/core/StructureDefinition/us-core-condition"]},"clinicalStatus":{"coding":[{"system":"http://terminology.hl7.org/CodeSystem/condition-clinical","code":"active","display":"Active"}]},"category":[{"coding":[{"system":"http://terminology.hl7.org/CodeSystem/condition-category","code":"problem-list-item"}]}],"code":{"coding":[{"system":"http://snomed.info/sct","code":"91554004"}]},"subject":{"reference":"Patient/05e8228e-07e6-456e-9643-3f0764b83dde"},"onsetDateTime":"2022-01-14T00:00:00+00:00"}},{"fullUrl":"Condition/f1fc0e24-a5b1-4f2b-9a76-cc636c8abb48","resource":{"resourceType":"Condition","id":"f1fc0e24-a5b1-4f2b-9a76-cc636c8abb48","meta":{"profile":["http://hl7.org/fhir/us/core/StructureDefinition/us-core-condition"]},"clinicalStatus":{"coding":[{"system":"http://terminology.hl7.org/CodeSystem/condition-clinical","code":"active","display":"Active"}]},"category":[{"coding":[{"system":"http://terminology.hl7.org/CodeSystem/condition-category","code":"problem-list-item"}]}],"code":{"coding":[{"system":"http://snomed.info/sct","code":"44882003"}]},"subject":{"reference":"Patient/05e8228e-07e6-456e-9643-3f0764b83dde"},"onsetDateTime":"2022-06-20T00:00:00+00:00"}},{"fullUrl":"Condition/c0f2cff8-a74b-4245-bfc8-8840456fce93","resource":{"resourceType":"Condition","id":"c0f2cff8-a74b-4245-bfc8-8840456fce93","meta":{"profile":["http://hl7.org/fhir/us/core/StructureDefinition/us-core-condition"]},"clinicalStatus":{"coding":[{"system":"http://terminology.hl7.org/CodeSystem/condition-clinical","code":"active","display":"Active"}]},"category":[{"coding":[{"system":"http://terminology.hl7.org/CodeSystem/condition-category","code":"problem-list-item"}]}],"code":{"coding":[{"system":"http://snomed.info/sct","code":"91554004"}]},"subject":{"reference":"Patient/05e8228e-07e6-456e-9643-3f0764b83dde"},"onsetDateTime":"2022-08-13T00:00:00+00:00"}},{"fullUrl":"Condition/14040441-79f6-441e-a234-913e5cb03de9","resource":{"resourceType":"Condition","id":"14040441-79f6-441e-a234-913e5cb03de9","meta":{"profile":["http://hl7.org/fhir/us/core/StructureDefinition/us-core-condition"]},"clinicalStatus":{"coding":[{"system":"http://terminology.hl7.org/CodeSystem/condition-clinical","code":"active","display":"Active"}]},"category":[{"coding":[{"system":"http://terminology.hl7.org/CodeSystem/condition-category","code":"problem-list-item"}]}],"code":{"coding":[{"system":"http://snomed.info/sct","code":"736686006"}]},"subject":{"reference":"Patient/05e8228e-07e6-456e-9643-3f0764b83dde"},"onsetDateTime":"2022-10-31T00:00:00+00:00"}},{"fullUrl":"Observation/ebbe5f81-ab5b-459a-87d8-c674f306d9be","resource":{"resourceType":"Observation","id":"ebbe5f81-ab5b-459a-87d8-c674f306d9be","meta":{"profile":["http://hl7.org/fhir/us/core/StructureDefinition/us-core-observation-lab"]},"status":"final","category":[{"coding":[{"system":"http://terminology.hl7.org/CodeSystem/observation-category","code":"laboratory","display":"Laboratory"}]}],"code":{"coding":[{"system":"http://loinc.org","code":"26464-8"}]},"subject":{"reference":"Patient/05e8228e-07e6-456e-9643-3f0764b83dde"},"effectiveDateTime":"2022-10-09T00:00:00+00:00","valueQuantity":{"value":6.1}}},{"fullUrl":"Observation/3a37d486-dd90-4359-8971-9222b28356ad","resource":{"resourceType":"Observation","id":"3a37d486-dd90-4359-8971-9222b28356ad","meta":{"profile":["http://hl7.org/fhir/us/core/StructureDefinition/us-core-observation-lab"]},"status":"final","category":[{"coding":[{"system":"http://terminology.hl7.org/CodeSystem/observation-category","code":"laboratory","display":"Laboratory"}]}],"code":{"coding":[{"system":"http://loinc.org","code":"26464-8"}]},"subject":{"reference":"Patient/05e8228e-07e6-456e-9643-3f0764b83dde"},"effectiveDateTime":"2022-09-09T00:00:00+00:00","valueQuantity":{"value":5.3}}},{"fullUrl":"Observation/4b9aa194-372b-4560-9f1b-68e90b6dc86b","resource":{"resourceType":"Observation","id":"4b9aa194-372b-4560-9f1b-68e90b6dc86b","meta":{"profile":["http://hl7.org/fhir/us/core/StructureDefinition/us-core-bmi"]},"status":"final","category":[{"coding":[{"system":"http://terminology.hl7.org/CodeSystem/observation-category","code":"vital-signs","display":"Vital Signs"}]}],"code":{"coding":[{"system":"http://loinc.org","code":"39156-5"}]},"subject":{"reference":"Patient/05e8228e-07e6-456e-9643-3f0764b83dde"},"effectiveDateTime":"2022-05-15T00:00:00+00:00","valueQuantity":{"value":13.68,"unit":"kg/m2","system":"http://unitsofmeasure.org","code":"kg/m2"}}},{"fullUrl":"Observation/459a4583-dbae-4d50-9cbb-70784d0ecab9","resource":{"resourceType":"Observation","id":"459a4583-dbae-4d50-9cbb-70784d0ecab9","meta":{"profile":["http://hl7.org/fhir/us/core/StructureDefinition/us-core-head-circumference"]},"status":"final","category":[{"coding":[{"system":"http://terminology.hl7.org/CodeSystem/observation-category","code":"vital-signs","display":"Vital Signs"}]}],"code":{"coding":[{"system":"http://loinc.org","code":"9843-4"}]},"subject":{"reference":"Patient/05e8228e-07e6-456e-9643-3f0764b83dde"},"effectiveDateTime":"2022-03-04T00:00:00+00:00","valueQuantity":{"value":7.5,"unit":"Inch","system":"http://unitsofmeasure.org","code":"[in_i]"}}},{"fullUrl":"Observation/343534f5-32e1-47a6-ab22-5f78ea4e1485","resource":{"resourceType":"Observation","id":"343534f5-32e1-47a6-ab22-5f78ea4e1485","meta":{"profile":["http://hl7.org/fhir/us/core/StructureDefinition/us-core-head-circumference"]},"status":"final","category":[{"coding":[{"system":"http://terminology.hl7.org/CodeSystem/observation-category","code":"vital-signs","display":"Vital Signs"}]}],"code":{"coding":[{"system":"http://loinc.org","code":"9843-4"}]},"subject":{"reference":"Patient/05e8228e-07e6-456e-9643-3f0764b83dde"},"effectiveDateTime":"2022-12-23T00:00:00+00:00","valueQuantity":{"value":5.6,"unit":"Inch","system":"http://unitsofmeasure.org","code":"[in_i]"}}},{"fullUrl":"Observation/c09a2125-2fa5-4969-aaa9-6a630576dcf9","resource":{"resourceType":"Observation","id":"c09a2125-2fa5-4969-aaa9-6a630576dcf9","meta":{"profile":["http://hl7.org/fhir/us/core/StructureDefinition/us-core-body-height"]},"status":"final","category":[{"coding":[{"system":"http://terminology.hl7.org/CodeSystem/observation-category","code":"vital-signs","display":"Vital Signs"}]}],"code":{"coding":[{"system":"http://loinc.org","code":"8302-2"}]},"subject":{"reference":"Patient/05e8228e-07e6-456e-9643-3f0764b83dde"},"effectiveDateTime":"2022-08-21T00:00:00+00:00","valueQuantity":{"value":77.4,"unit":"Inch","system":"http://unitsofmeasure.org","code":"[in_i]"}}},{"fullUrl":"Observation/369b8e22-a9ef-4a61-a915-63a290dce57e","resource":{"resourceType":"Observation","id":"369b8e22-a9ef-4a61-a915-63a290dce57e","meta":{"profile":["http://hl7.org/fhir/us/core/StructureDefinition/us-core-body-height"]},"status":"final","category":[{"coding":[{"system":"http://terminology.hl7.org/CodeSystem/observation-category","code":"vital-signs","display":"Vital Signs"}]}],"code":{"coding":[{"system":"http://loinc.org","code":"8302-2"}]},"subject":{"reference":"Patient/05e8228e-07e6-456e-9643-3f0764b83dde"},"effectiveDateTime":"2022-10-23T00:00:00+00:00","valueQuantity":{"value":72,"unit":"Inch","system":"http://unitsofmeasure.org","code":"[in_i]"}}},{"fullUrl":"Observation/e2586cf9-ad9b-4892-979a-75483ec2737e","resource":{"resourceType":"Observation","id":"e2586cf9-ad9b-4892-979a-75483ec2737e","meta":{"profile":["http://hl7.org/fhir/us/core/StructureDefinition/us-core-body-weight"]},"status":"final","category":[{"coding":[{"system":"http://terminology.hl7.org/CodeSystem/observation-category","code":"vital-signs","display":"Vital Signs"}]}],"code":{"coding":[{"system":"http://loinc.org","code":"29463-7"}]},"subject":{"reference":"Patient/05e8228e-07e6-456e-9643-3f0764b83dde"},"effectiveDateTime":"2022-10-23T00:00:00+00:00","valueQuantity":{"value":85.75,"unit":"kilogram","system":"http://unitsofmeasure.org","code":"kg"}}},{"fullUrl":"Observation/6fac26c5-6d13-4201-9c1e-b471e24536f5","resource":{"resourceType":"Observation","id":"6fac26c5-6d13-4201-9c1e-b471e24536f5","meta":{"profile":["http://hl7.org/fhir/us/core/StructureDefinition/us-core-body-weight"]},"status":"final","category":[{"coding":[{"system":"http://terminology.hl7.org/CodeSystem/observation-category","code":"vital-signs","display":"Vital Signs"}]}],"code":{"coding":[{"system":"http://loinc.org","code":"29463-7"}]},"subject":{"reference":"Patient/05e8228e-07e6-456e-9643-3f0764b83dde"},"effectiveDateTime":"2022-10-02T00:00:00+00:00","valueQuantity":{"value":74.05,"unit":"kilogram","system":"http://unitsofmeasure.org","code":"kg"}}},{"fullUrl":"Observation/7db7407d-921f-4c7a-a145-557642d795d0","resource":{"resourceType":"Observation","id":"7db7407d-921f-4c7a-a145-557642d795d0","meta":{"profile":["http://hl7.org/fhir/us/core/StructureDefinition/us-core-body-temperature"]},"status":"final","category":[{"coding":[{"system":"http://terminology.hl7.org/CodeSystem/observation-category","code":"vital-signs","display":"Vital Signs"}]}],"code":{"coding":[{"system":"http://loinc.org","code":"8310-5"}]},"subject":{"reference":"Patient/05e8228e-07e6-456e-9643-3f0764b83dde"},"effectiveDateTime":"2022-04-03T00:00:00+00:00","valueQuantity":{"value":88.17,"unit":"Degrees Fahrenheit","system":"http://unitsofmeasure.org","code":"[degF]"}}},{"fullUrl":"Observation/76bb46f9-7477-4f4b-9eb0-583d41602057","resource":{"resourceType":"Observation","id":"76bb46f9-7477-4f4b-9eb0-583d41602057","meta":{"profile":["http://hl7.org/fhir/us/core/StructureDefinition/us-core-body-temperature"]},"status":"final","category":[{"coding":[{"system":"http://terminology.hl7.org/CodeSystem/observation-category","code":"vital-signs","display":"Vital Signs"}]}],"code":{"coding":[{"system":"http://loinc.org","code":"8310-5"}]},"subject":{"reference":"Patient/05e8228e-07e6-456e-9643-3f0764b83dde"},"effectiveDateTime":"2022-12-07T00:00:00+00:00","valueQuantity":{"value":118.47,"unit":"Degrees Fahrenheit","system":"http://unitsofmeasure.org","code":"[degF]"}}},{"fullUrl":"Observation/697bf55c-26c5-4a19-ae53-94df02a60e13","resource":{"resourceType":"Observation","id":"697bf55c-26c5-4a19-ae53-94df02a60e13","meta":{"profile":["http://hl7.org/fhir/us/core/StructureDefinition/us-core-heart-rate"]},"status":"final","category":[{"coding":[{"system":"http://terminology.hl7.org/CodeSystem/observation-category","code":"vital-signs","display":"Vital Signs"}]}],"code":{"coding":[{"system":"http://loinc.org","code":"8867-4"}]},"subject":{"reference":"Patient/05e8228e-07e6-456e-9643-3f0764b83dde"},"effectiveDateTime":"2022-10-22T00:00:00+00:00","valueQuantity":{"value":96.5,"unit":"Per Minute","system":"http://unitsofmeasure.org","code":"/min"}}},{"fullUrl":"Patient/ea42e2fc-8cd3-41ca-bf6f-9c02ed33bea7","resource":{"resourceType":"Patient","id":"ea42e2fc-8cd3-41ca-bf6f-9c02ed33bea7","meta":{"profile":["http://hl7.org/fhir/us/core/StructureDefinition/us-core-patient"]},"extension":[{"extension":[{"url":"ombCategory","valueCoding":{"system":"urn:oid:2.16.840.1.113883.6.238","code":"2076-8","display":"Native Hawaiian or Other Pacific Islander"}},{"url":"text","valueString":"Native Hawaiian or Other Pacific Islander"}],"url":"http://hl7.org/fhir/us/core/StructureDefinition/us-core-race"},{"extension":[{"url":"ombCategory","valueCoding":{"system":"urn:oid:2.16.840.1.113883.6.238","code":"2186-5","display":"Non Hispanic or Latino"}},{"url":"text","valueString":"Non Hispanic or Latino"}],"url":"http://hl7.org/fhir/us/core/StructureDefinition/us-core-ethnicity"}],"identifier":[{"type":{"coding":[{"system":"http://terminology.hl7.org/CodeSystem/v2-0203","code":"MR"}]},"system":"urn:fhirgen:mrn","value":"793-31-8080"}],"name":[{"use":"official","family":"Griffin","given":["Mackenzie"]},{"use":"maiden","family":"Olsen"}],"telecom":[{"system":"phone","value":"001-106-575-9972x05736","use":"home"},{"system":"email","value":"fmontgomery@yahoo.com","use":"work"}],"gender":"female","birthDate":"1988-10-27","address":[{"use":"home","line":["6794 Robin Skyway"],"city":"Michaeltown","state":"AL","postalCode":"54879"},{"use":"old","line":["8784 Kent Harbors"],"city":"East Roberto","state":"NE","postalCode":"72745"}]}},{"fullUrl":"Observation/ff9a84f8-1111-456a-be0e-174eb5cc87f3","resource":{"resourceType":"Observation","id":"ff9a84f8-1111-456a-be0e-174eb5cc87f3","meta":{"profile":["http://hl7.org/fhir/us/core/StructureDefinition/us-core-observation-lab"]},"status":"final","category":[{"coding":[{"system":"http://terminology.hl7.org/CodeSystem/observation-category","code":"laboratory","display":"Laboratory"}]}],"code":{"coding":[{"system":"http://loinc.org","code":"50695-6"}]},"subject":{"reference":"Patient/ea42e2fc-8cd3-41ca-bf6f-9c02ed33bea7"},"effectiveDateTime":"2022-12-23T00:00:00+00:00","valueRatio":{"numerator":{"value":1},"denominator":{"value":32}}}},{"fullUrl":"Observation/4a6b9586-fd68-41ed-b9ae-1a4b1750a5a9","resource":{"resourceType":"Observation","id":"4a6b9586-fd68-41ed-b9ae-1a4b1750a5a9","meta":{"profile":["http://hl7.org/fhir/us/core/StructureDefinition/us-core-observation-lab"]},"status":"final","category":[{"coding":[{"system":"http://terminology.hl7.org/CodeSystem/observation-category","code":"laboratory","display":"Laboratory"}]}],"code":{"coding":[{"system":"http://loinc.org","code":"26009-1"}]},"subject":{"reference":"Patient/ea42e2fc-8cd3-41ca-bf6f-9c02ed33bea7"},"effectiveDateTime":"2022-03-23T00:00:00+00:00","valueRatio":{"numerator":{"value":1},"denominator":{"value":32}}}},{"fullUrl":"Observation/e1e13fad-abd0-44ae-b869-85acb4d3bf13","resource":{"resourceType":"Observation","id":"e1e13fad-abd0-44ae-b869-85acb4d3bf13","meta":{"profile":["http://hl7.org/fhir/us/core/StructureDefinition/us-core-observation-lab"]},"status":"final","category":[{"coding":[{"system":"http://terminology.hl7.org/CodeSystem/observation-category","code":"laboratory","display":"Laboratory"}]}],"code":{"coding":[{"system":"http://loinc.org","code":"50690-7"}]},"subject":{"reference":"Patient/ea42e2fc-8cd3-41ca-bf6f-9c02ed33bea7"},"effectiveDateTime":"2022-06-27T00:00:00+00:00","valueRatio":{"numerator":{"value":1},"denominator":{"value":32}}}},{"fullUrl":"Condition/c9c35837-cd64-4e24-aa47-1cc5c63cf4dc","resource":{"resourceType":"Condition","id":"c9c35837-cd64-4e24-aa47-1cc5c63cf4dc","meta":{"profile":["http://hl7.org/fhir/us/core/StructureDefinition/us-core-condition"]},"clinicalStatus":{"coding":[{"system":"http://terminology.hl7.org/CodeSystem/condition-clinical","code":"active","display":"Active"}]},"category":[{"coding":[{"system":"http://terminology.hl7.org/CodeSystem/condition-category","code":"problem-list-item"}]}],"code":{"coding":[{"system":"http://snomed.info/sct","code":"736686006"}]},"subject":{"reference":"Patient/ea42e2fc-8cd3-41ca-bf6f-9c02ed33bea7"},"onsetDateTime":"2022-05-18T00:00:00+00:00"}},{"fullUrl":"Condition/4f48cf45-bb30-4b6b-9eb1-beccbe088b71","resource":{"resourceType":"Condition","id":"4f48cf45-bb30-4b6b-9eb1-beccbe088b71","meta":{"profile":["http://hl7.org/fhir/us/core/StructureDefinition/us-core-condition"]},"clinicalStatus":{"coding":[{"system":"http://terminology.hl7.org/CodeSystem/condition-clinical","code":"active","display":"Active"}]},"category":[{"coding":[{"system":"http://terminology.hl7.org/CodeSystem/condition-category","code":"problem-list-item"}]}],"code":{"coding":[{"system":"http://snomed.info/sct","code":"709977002"}]},"subject":{"reference":"Patient/ea42e2fc-8cd3-41ca-bf6f-9c02ed33bea7"},"onsetDateTime":"2022-04-29T00:00:00+00:00"}},{"fullUrl":"Condition/c59b2b02-89df-4fca-a861-ce9599620655","resource":{"resourceType":"Condition","id":"c59b2b02-89df-4fca-a861-ce9599620655","meta":{"profile":["http://hl7.org/fhir/us/core/StructureDefinition/us-core-condition"]},"clinicalStatus":{"coding":[{"system":"http://terminology.hl7.org/CodeSystem/condition-clinical","code":"active","display":"Active"}]},"category":[{"coding":[{"system":"http://terminology.hl7.org/CodeSystem/condition-category","code":"problem-list-item"}]}],"code":{"coding":[{"system":"http://snomed.info/sct","code":"91554004"}]},"subject":{"reference":"Patient/ea42e2fc-8cd3-41ca-bf6f-9c02ed33bea7"},"onsetDateTime":"2022-08-02T00:00:00+00:00"}},{"fullUrl":"Observation/e3b3cbb9-bdb8-476e-831e-548bb51863fa","resource":{"resourceType":"Observation","id":"e3b3cbb9-bdb8-476e-831e-548bb51863fa","meta":{"profile":["http://hl7.org/fhir/us/core/StructureDefinition/us-core-observation-lab"]},"status":"final","category":[{"coding":[{"system":"http://terminology.hl7.org/CodeSystem/observation-category","code":"laboratory","display":"Laboratory"}]}],"code":{"coding":[{"system":"http://loinc.org","code":"49498-9"}]},"subject":{"reference":"Patient/ea42e2fc-8cd3-41ca-bf6f-9c02ed33bea7"},"effectiveDateTime":"2022-06-07T00:00:00+00:00","valueQuantity":{"value":5}}},{"fullUrl":"Observation/08f6cc89-b4c6-4d5c-a838-ad729ef909ff","resource":{"resourceType":"Observation","id":"08f6cc89-b4c6-4d5c-a838-ad729ef909ff","meta":{"profile":["http://hl7.org/fhir/us/core/StructureDefinition/us-core-observation-lab"]},"status":"final","category":[{"coding":[{"system":"http://terminology.hl7.org/CodeSystem/observation-category","code":"laboratory","display":"Laboratory"}]}],"code":{"coding":[{"system":"http://loinc.org","code":"26464-8"}]},"subject":{"reference":"Patient/ea42e2fc-8cd3-41ca-bf6f-9c02ed33bea7"},"effectiveDateTime":"2022-01-04T00:00:00+00:00","valueQuantity":{"value":8.2}}},{"fullUrl":"Observation/0682531b-aa42-4411-ad83-5b3cf52b3eb6","resource":{"resourceType":"Observation","id":"0682531b-aa42-4411-ad83-5b3cf52b3eb6","meta":{"profile":["http://hl7.org/fhir/us/core/StructureDefinition/us-core-observation-lab"]},"status":"final","category":[{"coding":[{"system":"http://terminology.hl7.org/CodeSystem/observation-category","code":"laboratory","display":"Laboratory"}]}],"code":{"coding":[{"system":"http://loinc.org","code":"49498-9"}]},"subject":{"reference":"Patient/ea42e2fc-8cd3-41ca-bf6f-9c02ed33bea7"},"effectiveDateTime":"2022-04-28T00:00:00+00:00","valueQuantity":{"value":5.5}}},{"fullUrl":"Observation/bf9e9c7e-b9f8-4c45-81b5-7978758e0d39","resource":{"resourceType":"Observation","id":"bf9e9c7e-b9f8-4c45-81b5-7978758e0d39","meta":{"profile":["http://hl7.org/fhir/us/core/StructureDefinition/us-core-bmi"]},"status":"final","category":[{"coding":[{"system":"http://terminology.hl7.org/CodeSystem/observation-category","code":"vital-signs","display":"Vital Signs"}]}],"code":{"coding":[{"system":"http://loinc.org","code":"39156-5"}]},"subject":{"reference":"Patient/ea42e2fc-8cd3-41ca-bf6f-9c02ed33bea7"},"effectiveDateTime":"2022-12-15T00:00:00+00:00","valueQuantity":{"value":28.99,"unit":"kg/m2","system":"http://unitsofmeasure.org","code":"kg/m2"}}},{"fullUrl":"Observation/3df26f6b-227f-40d2-9458-3ba930973ab4","resource":{"resourceType":"Observation","id":"3df26f6b-227f-40d2-9458-3ba930973ab4","meta":{"profile":["http://hl7.org/fhir/us/core/StructureDefinition/us-core-head-circumference"]},"status":"final","category":[{"coding":[{"system":"http://terminology.hl7.org/CodeSystem/observation-category","code":"vital-signs","display":"Vital Signs"}]}],"code":{"coding":[{"system":"http://loinc.org","code":"9843-4"}]},"subject":{"reference":"Patient/ea42e2fc-8cd3-41ca-bf6f-9c02ed33bea7"},"effectiveDateTime":"2022-05-03T00:00:00+00:00","valueQuantity":{"value":4.9,"unit":"Inch","system":"http://unitsofmeasure.org","code":"[in_i]"}}},{"fullUrl":"Observation/4a956649-0d59-4232-90d4-ab0efbc8c423","resource":{"resourceType":"Observation","id":"4a956649-0d59-4232-90d4-ab0efbc8c423","meta":{"profile":["http://hl7.org/fhir/us/core/StructureDefinition/us-core-body-height"]},"status":"final","category":[{"coding":[{"system":"http://terminology.hl7.org/CodeSystem/observation-category","code":"vital-signs","display":"Vital Signs"}]}],"code":{"coding":[{"system":"http://loinc.org","code":"8302-2"}]},"subject":{"reference":"Patient/ea42e2fc-8cd3-41ca-bf6f-9c02ed33bea7"},"effectiveDateTime":"2022-10-05T00:00:00+00:00","valueQuantity":{"value":83.3,"unit":"Inch","system":"http://unitsofmeasure.org","code":"[in_i]"}}},{"fullUrl":"Observation/138e5245-d08d-4722-9b7f-a409a77c9f1d","resource":{"resourceType":"Observation","id":"138e5245-d08d-4722-9b7f-a409a77c9f1d","meta":{"profile":["http://hl7.org/fhir/us/core/StructureDefinition/us-core-body-height"]},"status":"final","category":[{"coding":[{"system":"http://terminology.hl7.org/CodeSystem/observation-category","code":"vital-signs","display":"Vital Signs"}]}],"code":{"coding":[{"system":"http://loinc.org","code":"8302-2"}]},"subject":{"reference":"Patient/ea42e2fc-8cd3-41ca-bf6f-9c02ed33bea7"},"effectiveDateTime":"2022-08-04T00:00:00+00:00","valueQuantity":{"value":75.1,"unit":"Inch","system":"http://unitsofmeasure.org","code":"[in_i]"}}},{"fullUrl":"Observation/e79283ba-7ccd-4da1-bbf0-437d7edbed3a","resource":{"resourceType":"Observation","id":"e79283ba-7ccd-4da1-bbf0-437d7edbed3a","meta":{"profile":["http://hl7.org/fhir/us/core/StructureDefinition/us-core-body-weight"]},"status":"final","category":[{"coding":[{"system":"http://terminology.hl7.org/CodeSystem/observation-category","code":"vital-signs","display":"Vital Signs"}]}],"code":{"coding":[{"system":"http://loinc.org","code":"29463-7"}]},"subject":{"reference":"Patient/ea42e2fc-8cd3-41ca-bf6f-9c02ed33bea7"},"effectiveDateTime":"2022-06-12T00:00:00+00:00","valueQuantity":{"value":130.55,"unit":"kilogram","system":"http://unitsofmeasure.org","code":"kg"}}},{"fullUrl":"Observation/7190745c-afb1-4245-a610-b84c913548ad","resource":{"resourceType":"Observation","id":"7190745c-afb1-4245-a610-b84c913548ad","meta":{"profile":["http://hl7.org/fhir/us/core/StructureDefinition/us-core-body-weight"]},"status":"final","category":[{"coding":[{"system":"http://terminology.hl7.org/CodeSystem/observation-category","code":"vital-signs","display":"Vital Signs"}]}],"code":{"coding":[{"system":"http://loinc.org","code":"29463-7"}]},"subject":{"reference":"Patient/ea42e2fc-8cd3-41ca-bf6f-9c02ed33bea7"},"effectiveDateTime":"2022-11-15T00:00:00+00:00","valueQuantity":{"value":105.68,"unit":"kilogram","system":"http://unitsofmeasure.org","code":"kg"}}},{"fullUrl":"Observation/73260e93-e8d4-4440-aa3a-83c051b81368","resource":{"resourceType":"Observation","id":"73260e93-e8d4-4440-aa3a-83c051b81368","meta":{"profile":["http://hl7.org/fhir/us/core/StructureDefinition/us-core-body-temperature"]},"status":"final","category":[{"coding":[{"system":"http://terminology.hl7.org/CodeSystem/observation-category","code":"vital-signs","display":"Vital Signs"}]}],"code":{"coding":[{"system":"http://loinc.org","code":"8310-5"}]},"subject":{"reference":"Patient/ea42e2fc-8cd3-41ca-bf6f-9c02ed33bea7"},"effectiveDateTime":"2022-01-09T00:00:00+00:00","valueQuantity":{"value":38.5,"unit":"Degrees Fahrenheit","system":"http://unitsofmeasure.org","code":"[degF]"}}},{"fullUrl":"Observation/8321903a-e7e6-4a81-930d-54a5c18cb824","resource":{"resourceType":"Observation","id":"8321903a-e7e6-4a81-930d-54a5c18cb824","meta":{"profile":["http://hl7.org/fhir/us/core/StructureDefinition/us-core-body-temperature"]},"status":"final","category":[{"coding":[{"system":"http://terminology.hl7.org/CodeSystem/observation-category","code":"vital-signs","display":"Vital Signs"}]}],"code":{"coding":[{"system":"http://loinc.org","code":"8310-5"}]},"subject":{"reference":"Patient/ea42e2fc-8cd3-41ca-bf6f-9c02ed33bea7"},"effectiveDateTime":"2022-12-26T00:00:00+00:00","valueQuantity":{"value":117.34,"unit":"Degrees Fahrenheit","system":"http://unitsofmeasure.org","code":"[degF]"}}},{"fullUrl":"Observation/3568a971-57ee-4a0b-8649-d8eccf6ad33b","resource":{"resourceType":"Observation","id":"3568a971-57ee-4a0b-8649-d8eccf6ad33b","meta":{"profile":["http://hl7.org/fhir/us/core/StructureDefinition/us-core-heart-rate"]},"status":"final","category":[{"coding":[{"system":"http://terminology.hl7.org/CodeSystem/observation-category","code":"vital-signs","display":"Vital Signs"}]}],"code":{"coding":[{"system":"http://loinc.org","code":"8867-4"}]},"subject":{"reference":"Patient/ea42e2fc-8cd3-41ca-bf6f-9c02ed33bea7"},"effectiveDateTime":"2022-01-27T00:00:00+00:00","valueQuantity":{"value":99.7,"unit":"Per Minute","system":"http://unitsofmeasure.org","code":"/min"}}},{"fullUrl":"Observation/7aeeed57-1fc0-4b9d-9f73-872c34a639a1","resource":{"resourceType":"Observation","id":"7aeeed57-1fc0-4b9d-9f73-872c34a639a1","meta":{"profile":["http://hl7.org/fhir/us/core/StructureDefinition/us-core-heart-rate"]},"status":"final","category":[{"coding":[{"system":"http://terminology.hl7.org/CodeSystem/observation-category","code":"vital-signs","display":"Vital Signs"}]}],"code":{"coding":[{"system":"http://loinc.org","code":"8867-4"}]},"subject":{"reference":"Patient/ea42e2fc-8cd3-41ca-bf6f-9c02ed33bea7"},"effectiveDateTime":"2022-10-17T00:00:00+00:00","valueQuantity":{"value":99.9,"unit":"Per Minute","system":"http://unitsofmeasure.org","code":"/min"}}},{"fullUrl":"Patient/56236fe2-01c6-43d2-ad24-5500792682f3","resource":{"resourceType":"Patient","id":"56236fe2-01c6-43d2-ad24-5500792682f3","meta":{"profile":["http://hl7.org/fhir/us/core/StructureDefinition/us-core-patient"]},"extension":[{"extension":[{"url":"ombCategory","valueCoding":{"system":"urn:oid:2.16.840.1.113883.6.238","code":"2106-3","display":"White"}},{"url":"text","valueString":"White"}],"url":"http://hl7.org/fhir/us/core/StructureDefinition/us-core-race"},{"extension":[{"url":"ombCategory","valueCoding":{"system":"urn:oid:2.16.840.1.113883.6.238","code":"2186-5","display":"Non Hispanic or Latino"}},{"url":"text","valueString":"Non Hispanic or Latino"}],"url":"http://hl7.org/fhir/us/core/StructureDefinition/us-core-ethnicity"}],"identifier":[{"type":{"coding":[{"system":"http://terminology.hl7.org/CodeSystem/v2-0203","code":"MR"}]},"system":"urn:fhirgen:mrn","value":"873-59-1408"}],"name":[{"use":"official","family":"Giles","given":["Hannah"]},{"use":"maiden","family":"Peters"}],"telecom":[{"system":"phone","value":"(572)221-0093","use":"home"},{"system":"email","value":"patricksellers@yahoo.com","use":"work"}],"gender":"female","birthDate":"1994-01-07","address":[{"use":"home","line":["9741 Marcus Orchard Apt. 824"],"city":"Garciastad","state":"TX","postalCode":"46949"},{"use":"old","line":["5846 David Green"],"city":"Katherinebury","state":"CO","postalCode":"64068"}]}},{"fullUrl":"Observation/4c60440b-568a-4ca1-b653-8dba5a196aae","resource":{"resourceType":"Observation","id":"4c60440b-568a-4ca1-b653-8dba5a196aae","meta":{"profile":["http://hl7.org/fhir/us/core/StructureDefinition/us-core-observation-lab"]},"status":"final","category":[{"coding":[{"system":"http://terminology.hl7.org/CodeSystem/observation-category","code":"laboratory","display":"Laboratory"}]}],"code":{"coding":[{"system":"http://loinc.org","code":"31147-2"}]},"subject":{"reference":"Patient/56236fe2-01c6-43d2-ad24-5500792682f3"},"effectiveDateTime":"2022-10-20T00:00:00+00:00","valueRatio":{"numerator":{"value":1},"denominator":{"value":64}}}},{"fullUrl":"Observation/16d4d340-77a1-4426-8c53-ac8db41de855","resource":{"resourceType":"Observation","id":"16d4d340-77a1-4426-8c53-ac8db41de855","meta":{"profile":["http://hl7.org/fhir/us/core/StructureDefinition/us-core-observation-lab"]},"status":"final","category":[{"coding":[{"system":"http://terminology.hl7.org/CodeSystem/observation-category","code":"laboratory","display":"Laboratory"}]}],"code":{"coding":[{"system":"http://loinc.org","code":"87925-4"}]},"subject":{"reference":"Patient/56236fe2-01c6-43d2-ad24-5500792682f3"},"effectiveDateTime":"2022-06-20T00:00:00+00:00","valueRatio":{"numerator":{"value":1},"denominator":{"value":4}}}},{"fullUrl":"Condition/807ad200-e345-4433-91ed-4eeb39157c3c","resource":{"resourceType":"Condition","id":"807ad200-e345-4433-91ed-4eeb39157c3c","meta":{"profile":["http://hl7.org/fhir/us/core/StructureDefinition/us-core-condition"]},"clinicalStatus":{"coding":[{"system":"http://terminology.hl7.org/CodeSystem/condition-clinical","code":"active","display":"Active"}]},"category":[{"coding":[{"system":"http://terminology.hl7.org/CodeSystem/condition-category","code":"problem-list-item"}]}],"code":{"coding":[{"system":"http://snomed.info/sct","code":"736686006"}]},"subject":{"reference":"Patient/56236fe2-01c6-43d2-ad24-5500792682f3"},"onsetDateTime":"2022-09-22T00:00:00+00:00"}},{"fullUrl":"Condition/1826b107-b38c-480a-9489-96db4e836521","resource":{"resourceType":"Condition","id":"1826b107-b38c-480a-9489-96db4e836521","meta":{"profile":["http://hl7.org/fhir/us/core/StructureDefinition/us-core-condition"]},"clinicalStatus":{"coding":[{"system":"http://terminology.hl7.org/CodeSystem/condition-clinical","code":"active","display":"Active"}]},"category":[{"coding":[{"system":"http://terminology.hl7.org/CodeSystem/condition-category","code":"problem-list-item"}]}],"code":{"coding":[{"system":"http://snomed.info/sct","code":"44882003"}]},"subject":{"reference":"Patient/56236fe2-01c6-43d2-ad24-5500792682f3"},"onsetDateTime":"2022-12-26T00:00:00+00:00"}},{"fullUrl":"Condition/72938cd6-b3f8-4310-8946-a86ade51c0ef","resource":{"resourceType":"Condition","id":"72938cd6-b3f8-4310-8946-a86ade51c0ef","meta":{"profile":["http://hl7.org/fhir/us/core/StructureDefinition/us-core-condition"]},"clinicalStatus":{"coding":[{"system":"http://terminology.hl7.org/CodeSystem/condition-clinical","code":"active","display":"Active"}]},"category":[{"coding":[{"system":"http://terminology.hl7.org/CodeSystem/condition-category","code":"problem-list-item"}]}],"code":{"coding":[{"system":"http://snomed.info/sct","code":"91554004"}]},"subject":{"reference":"Patient/56236fe2-01c6-43d2-ad24-5500792682f3"},"onsetDateTime":"2022-07-20T00:00:00+00:00"}},{"fullUrl":"Condition/82143262-771c-46cf-a041-a615203c820a","resource":{"resourceType":"Condition","id":"82143262-771c-46cf-a041-a615203c820a","meta":{"profile":["http://hl7.org/fhir/us/core/StructureDefinition/us-core-condition"]},"clinicalStatus":{"coding":[{"system":"http://terminology.hl7.org/CodeSystem/condition-clinical","code":"active","display":"Active"}]},"category":[{"coding":[{"system":"http://terminology.hl7.org/CodeSystem/condition-category","code":"problem-list-item"}]}],"code":{"coding":[{"system":"http://snomed.info/sct","code":"709977002"}]},"subject":{"reference":"Patient/56236fe2-01c6-43d2-ad24-5500792682f3"},"onsetDateTime":"2022-11-29T00:00:00+00:00"}},{"fullUrl":"Condition/5288cfd1-f6a9-42e3-86d0-c4a61ef1191f","resource":{"resourceType":"Condition","id":"5288cfd1-f6a9-42e3-86d0-c4a61ef1191f","meta":{"profile":["http://hl7.org/fhir/us/core/StructureDefinition/us-core-condition"]},"clinicalStatus":{"coding":[{"system":"http://terminology.hl7.org/CodeSystem/condition-clinical","code":"active","display":"Active"}]},"category":[{"coding":[{"system":"http://terminology.hl7.org/CodeSystem/condition-category","code":"problem-list-item"}]}],"code":{"coding":[{"system":"http://snomed.info/sct","code":"44882003"}]},"subject":{"reference":"Patient/56236fe2-01c6-43d2-ad24-5500792682f3"},"onsetDateTime":"2022-04-04T00:00:00+00:00"}},{"fullUrl":"Condition/bb5e7859-dddf-4f13-9735-bafab1ddc2e5","resource":{"resourceType":"Condition","id":"bb5e7859-dddf-4f13-9735-bafab1ddc2e5","meta":{"profile":["http://hl7.org/fhir/us/core/StructureDefinition/us-core-condition"]},"clinicalStatus":{"coding":[{"system":"http://terminology.hl7.org/CodeSystem/condition-clinical","code":"active","display":"Active"}]},"category":[{"coding":[{"system":"http://terminology.hl7.org/CodeSystem/condition-category","code":"problem-list-item"}]}],"code":{"coding":[{"system":"http://snomed.info/sct","code":"709977002"}]},"subject":{"reference":"Patient/56236fe2-01c6-43d2-ad24-5500792682f3"},"onsetDateTime":"2022-05-20T00:00:00+00:00"}},{"fullUrl":"Condition/a49cc1a0-eacb-4b67-ad16-35a816cc1696","resource":{"resourceType":"Condition","id":"a49cc1a0-eacb-4b67-ad16-35a816cc1696","meta":{"profile":["http://hl7.org/fhir/us/core/StructureDefinition/us-core-condition"]},"clinicalStatus":{"coding":[{"system":"http://terminology.hl7.org/CodeSystem/condition-clinical","code":"active","display":"Active"}]},"category":[{"coding":[{"system":"http://terminology.hl7.org/CodeSystem/condition-category","code":"problem-list-item"}]}],"code":{"coding":[{"system":"http://snomed.info/sct","code":"736686006"}]},"subject":{"reference":"Patient/56236fe2-01c6-43d2-ad24-5500792682f3"},"onsetDateTime":"2022-05-08T00:00:00+00:00"}},{"fullUrl":"Observation/2c66fbc4-06ab-41fa-b717-3cff5dd98058","resource":{"resourceType":"Observation","id":"2c66fbc4-06ab-41fa-b717-3cff5dd98058","meta":{"profile":["http://hl7.org/fhir/us/core/StructureDefinition/us-core-observation-lab"]},"status":"final","category":[{"coding":[{"system":"http://terminology.hl7.org/CodeSystem/observation-category","code":"laboratory","display":"Laboratory"}]}],"code":{"coding":[{"system":"http://loinc.org","code":"49498-9"}]},"subject":{"reference":"Patient/56236fe2-01c6-43d2-ad24-5500792682f3"},"effectiveDateTime":"2022-11-19T00:00:00+00:00","valueQuantity":{"value":10.2}}},{"fullUrl":"Observation/9dd90cae-2d85-4b26-9fac-590445045135","resource":{"resourceType":"Observation","id":"9dd90cae-2d85-4b26-9fac-590445045135","meta":{"profile":["http://hl7.org/fhir/us/core/StructureDefinition/us-core-observation-lab"]},"status":"final","category":[{"coding":[{"system":"http://terminology.hl7.org/CodeSystem/observation-category","code":"laboratory","display":"Laboratory"}]}],"code":{"coding":[{"system":"http://loinc.org","code":"26464-8"}]},"subject":{"reference":"Patient/56236fe2-01c6-43d2-ad24-5500792682f3"},"effectiveDateTime":"2022-04-14T00:00:00+00:00","valueQuantity":{"value":4.4}}},{"fullUrl":"Observation/e3a41b5f-0262-486c-aca4-8ecea1d90448","resource":{"resourceType":"Observation","id":"e3a41b5f-0262-486c-aca4-8ecea1d90448","meta":{"profile":["http://hl7.org/fhir/us/core/StructureDefinition/us-core-bmi"]},"status":"final","category":[{"coding":[{"system":"http://terminology.hl7.org/CodeSystem/observation-category","code":"vital-signs","display":"Vital Signs"}]}],"code":{"coding":[{"system":"http://loinc.org","code":"39156-5"}]},"subject":{"reference":"Patient/56236fe2-01c6-43d2-ad24-5500792682f3"},"effectiveDateTime":"2022-08-01T00:00:00+00:00","valueQuantity":{"value":28.08,"unit":"kg/m2","system":"http://unitsofmeasure.org","code":"kg/m2"}}},{"fullUrl":"Observation/fe38ca65-2d0b-4314-8d74-31d933386ea5","resource":{"resourceType":"Observation","id":"fe38ca65-2d0b-4314-8d74-31d933386ea5","meta":{"profile":["http://hl7.org/fhir/us/core/StructureDefinition/us-core-head-circumference"]},"status":"final","category":[{"coding":[{"system":"http://terminology.hl7.org/CodeSystem/observation-category","code":"vital-signs","display":"Vital Signs"}]}],"code":{"coding":[{"system":"http://loinc.org","code":"9843-4"}]},"subject":{"reference":"Patient/56236fe2-01c6-43d2-ad24-5500792682f3"},"effectiveDateTime":"2022-12-04T00:00:00+00:00","valueQuantity":{"value":9.6,"unit":"Inch","system":"http://unitsofmeasure.org","code":"[in_i]"}}},{"fullUrl":"Observation/b9748847-d7fd-4be4-b42b-0a51c08fa9d0","resource":{"resourceType":"Observation","id":"b9748847-d7fd-4be4-b42b-0a51c08fa9d0","meta":{"profile":["http://hl7.org/fhir/us/core/StructureDefinition/us-core-body-height"]},"status":"final","category":[{"coding":[{"system":"http://terminology.hl7.org/CodeSystem/observation-category","code":"vital-signs","display":"Vital Signs"}]}],"code":{"coding":[{"system":"http://loinc.org","code":"8302-2"}]},"subject":{"reference":"Patient/56236fe2-01c6-43d2-ad24-5500792682f3"},"effectiveDateTime":"2022-06-15T00:00:00+00:00","valueQuantity":{"value":60.5,"unit":"Inch","system":"http://unitsofmeasure.org","code":"[in_i]"}}},{"fullUrl":"Observation/e7bb4dbd-3529-4c10-8db4-0dfd7510cc12","resource":{"resourceType":"Observation","id":"e7bb4dbd-3529-4c10-8db4-0dfd7510cc12","meta":{"profile":["http://hl7.org/fhir/us/core/StructureDefinition/us-core-body-weight"]},"status":"final","category":[{"coding":[{"system":"http://terminology.hl7.org/CodeSystem/observation-category","code":"vital-signs","display":"Vital Signs"}]}],"code":{"coding":[{"system":"http://loinc.org","code":"29463-7"}]},"subject":{"reference":"Patient/56236fe2-01c6-43d2-ad24-5500792682f3"},"effectiveDateTime":"2022-07-05T00:00:00+00:00","valueQuantity":{"value":85.31,"unit":"kilogram","system":"http://unitsofmeasure.org","code":"kg"}}},{"fullUrl":"Observation/5507e72f-e412-4819-a0be-cb308718d63f","resource":{"resourceType":"Observation","id":"5507e72f-e412-4819-a0be-cb308718d63f","meta":{"profile":["http://hl7.org/fhir/us/core/StructureDefinition/us-core-body-temperature"]},"status":"final","category":[{"coding":[{"system":"http://terminology.hl7.org/CodeSystem/observation-category","code":"vital-signs","display":"Vital Signs"}]}],"code":{"coding":[{"system":"http://loinc.org","code":"8310-5"}]},"subject":{"reference":"Patient/56236fe2-01c6-43d2-ad24-5500792682f3"},"effectiveDateTime":"2022-07-21T00:00:00+00:00","valueQuantity":{"value":36.8,"unit":"Degrees Fahrenheit","system":"http://unitsofmeasure.org","code":"[degF]"}}},{"fullUrl":"Observation/29b8c9b0-abdb-4e79-9dce-bb70cb4c69b9","resource":{"resourceType":"Observation","id":"29b8c9b0-abdb-4e79-9dce-bb70cb4c69b9","meta":{"profile":["http://hl7.org/fhir/us/core/StructureDefinition/us-core-body-temperature"]},"status":"final","category":[{"coding":[{"system":"http://terminology.hl7.org/CodeSystem/observation-category","code":"vital-signs","display":"Vital Signs"}]}],"code":{"coding":[{"system":"http://loinc.org","code":"8310-5"}]},"subject":{"reference":"Patient/56236fe2-01c6-43d2-ad24-5500792682f3"},"effectiveDateTime":"2022-11-21T00:00:00+00:00","valueQuantity":{"value":133.27,"unit":"Degrees Fahrenheit","system":"http://unitsofmeasure.org","code":"[degF]"}}},{"fullUrl":"Observation/f0e213fa-bf7c-4be4-92f3-37d00c2d770b","resource":{"resourceType":"Observation","id":"f0e213fa-bf7c-4be4-92f3-37d00c2d770b","meta":{"profile":["http://hl7.org/fhir/us/core/StructureDefinition/us-core-heart-rate"]},"status":"final","category":[{"coding":[{"system":"http://terminology.hl7.org/CodeSystem/observation-category","code":"vital-signs","display":"Vital Signs"}]}],"code":{"coding":[{"system":"http://loinc.org","code":"8867-4"}]},"subject":{"reference":"Patient/56236fe2-01c6-43d2-ad24-5500792682f3"},"effectiveDateTime":"2022-10-04T00:00:00+00:00","valueQuantity":{"value":102,"unit":"Per Minute","system":"http://unitsofmeasure.org","code":"/min"}}},{"fullUrl":"Observation/1293b6d3-6afa-43a3-b2a4-0d743e51d9e7","resource":{"resourceType":"Observation","id":"1293b6d3-6afa-43a3-b2a4-0d743e51d9e7","meta":{"profile":["http://hl7.org/fhir/us/core/StructureDefinition/us-core-heart-rate"]},"status":"final","category":[{"coding":[{"system":"http://terminology.hl7.org/CodeSystem/observation-category","code":"vital-signs","display":"Vital Signs"}]}],"code":{"coding":[{"system":"http://loinc.org","code":"8867-4"}]},"subject":{"reference":"Patient/56236fe2-01c6-43d2-ad24-5500792682f3"},"effectiveDateTime":"2022-07-11T00:00:00+00:00","valueQuantity":{"value":97.3,"unit":"Per Minute","system":"http://unitsofmeasure.org","code":"/min"}}},{"fullUrl":"Patient/236aa037-ab61-4de8-9c5e-d896a83e490c","resource":{"resourceType":"Patient","id":"236aa037-ab61-4de8-9c5e-d896a83e490c","meta":{"profile":["http://hl7.org/fhir/us/core/StructureDefinition/us-core-patient"]},"extension":[{"extension":[{"url":"ombCategory","valueCoding":{"system":"urn:oid:2.16.840.1.113883.6.238","code":"2054-5","display":"Black or African American"}},{"url":"text","valueString":"Black or African American"}],"url":"http://hl7.org/fhir/us/core/StructureDefinition/us-core-race"},{"extension":[{"url":"ombCategory","valueCoding":{"system":"urn:oid:2.16.840.1.113883.6.238","code":"2186-5","display":"Non Hispanic or Latino"}},{"url":"text","valueString":"Non Hispanic or Latino"}],"url":"http://hl7.org/fhir/us/core/StructureDefinition/us-core-ethnicity"}],"identifier":[{"type":{"coding":[{"system":"http://terminology.hl7.org/CodeSystem/v2-0203","code":"MR"}]},"system":"urn:fhirgen:mrn","value":"664-39-5606"}],"name":[{"use":"official","family":"Maynard","given":["Joseph"]},{"use":"maiden","family":"Baker"}],"telecom":[{"system":"phone","value":"983.287.2089","use":"work"},{"system":"email","value":"troy40@yahoo.com","use":"mobile"}],"gender":"other","birthDate":"1999-09-30","address":[{"use":"home","line":["34210 Curtis Hollow"],"city":"Veronicastad","state":"NE","postalCode":"53647"},{"use":"old","line":["358 Sonia Parkways Apt. 000"],"city":"Leehaven","state":"WV","postalCode":"72724"}]}},{"fullUrl":"Observation/1c7def4a-db8f-4400-9ea7-83cd9bc107e3","resource":{"resourceType":"Observation","id":"1c7def4a-db8f-4400-9ea7-83cd9bc107e3","meta":{"profile":["http://hl7.org/fhir/us/core/StructureDefinition/us-core-observation-lab"]},"status":"final","category":[{"coding":[{"system":"http://terminology.hl7.org/CodeSystem/observation-category","code":"laboratory","display":"Laboratory"}]}],"code":{"coding":[{"system":"http://loinc.org","code":"50695-6"}]},"subject":{"reference":"Patient/236aa037-ab61-4de8-9c5e-d896a83e490c"},"effectiveDateTime":"2022-04-24T00:00:00+00:00","valueRatio":{"numerator":{"value":1},"denominator":{"value":32}}}},{"fullUrl":"Observation/ba20e8cb-8718-4561-bde3-f740ec0371aa","resource":{"resourceType":"Observation","id":"ba20e8cb-8718-4561-bde3-f740ec0371aa","meta":{"profile":["http://hl7.org/fhir/us/core/StructureDefinition/us-core-observation-lab"]},"status":"final","category":[{"coding":[{"system":"http://terminology.hl7.org/CodeSystem/observation-category","code":"laboratory","display":"Laboratory"}]}],"code":{"coding":[{"system":"http://loinc.org","code":"50695-6"}]},"subject":{"reference":"Patient/236aa037-ab61-4de8-9c5e-d896a83e490c"},"effectiveDateTime":"2022-11-30T00:00:00+00:00","valueRatio":{"numerator":{"value":1},"denominator":{"value":64}}}},{"fullUrl":"Observation/79fe6426-79e2-41f2-8386-14cbd66eb7a9","resource":{"resourceType":"Observation","id":"79fe6426-79e2-41f2-8386-14cbd66eb7a9","meta":{"profile":["http://hl7.org/fhir/us/core/StructureDefinition/us-core-observation-lab"]},"status":"final","category":[{"coding":[{"system":"http://terminology.hl7.org/CodeSystem/observation-category","code":"laboratory","display":"Laboratory"}]}],"code":{"coding":[{"system":"http://loinc.org","code":"50695-6"}]},"subject":{"reference":"Patient/236aa037-ab61-4de8-9c5e-d896a83e490c"},"effectiveDateTime":"2022-03-29T00:00:00+00:00","valueRatio":{"numerator":{"value":1},"denominator":{"value":32}}}},{"fullUrl":"Condition/9fae7be4-62cc-4dcb-950b-567cd9af5be4","resource":{"resourceType":"Condition","id":"9fae7be4-62cc-4dcb-950b-567cd9af5be4","meta":{"profile":["http://hl7.org/fhir/us/core/StructureDefinition/us-core-condition"]},"clinicalStatus":{"coding":[{"system":"http://terminology.hl7.org/CodeSystem/condition-clinical","code":"active","display":"Active"}]},"category":[{"coding":[{"system":"http://terminology.hl7.org/CodeSystem/condition-category","code":"problem-list-item"}]}],"code":{"coding":[{"system":"http://snomed.info/sct","code":"44882003"}]},"subject":{"reference":"Patient/236aa037-ab61-4de8-9c5e-d896a83e490c"},"onsetDateTime":"2022-04-07T00:00:00+00:00"}},{"fullUrl":"Condition/c831d0e0-5495-4449-8550-f1439a443654","resource":{"resourceType":"Condition","id":"c831d0e0-5495-4449-8550-f1439a443654","meta":{"profile":["http://hl7.org/fhir/us/core/StructureDefinition/us-core-condition"]},"clinicalStatus":{"coding":[{"system":"http://terminology.hl7.org/CodeSystem/condition-clinical","code":"active","display":"Active"}]},"category":[{"coding":[{"system":"http://terminology.hl7.org/CodeSystem/condition-category","code":"problem-list-item"}]}],"code":{"coding":[{"system":"http://snomed.info/sct","code":"418290006"}]},"subject":{"reference":"Patient/236aa037-ab61-4de8-9c5e-d896a83e490c"},"onsetDateTime":"2022-06-18T00:00:00+00:00"}},{"fullUrl":"Condition/ae388172-59eb-431b-91bc-bc2e3d7215f7","resource":{"resourceType":"Condition","id":"ae388172-59eb-431b-91bc-bc2e3d7215f7","meta":{"profile":["http://hl7.org/fhir/us/core/StructureDefinition/us-core-condition"]},"clinicalStatus":{"coding":[{"system":"http://terminology.hl7.org/CodeSystem/condition-clinical","code":"active","display":"Active"}]},"category":[{"coding":[{"system":"http://terminology.hl7.org/CodeSystem/condition-category","code":"problem-list-item"}]}],"code":{"coding":[{"system":"http://snomed.info/sct","code":"736686006"}]},"subject":{"reference":"Patient/236aa037-ab61-4de8-9c5e-d896a83e490c"},"onsetDateTime":"2022-04-02T00:00:00+00:00"}},{"fullUrl":"Condition/b8dff025-d977-44cf-880c-f1245b741c7f","resource":{"resourceType":"Condition","id":"b8dff025-d977-44cf-880c-f1245b741c7f","meta":{"profile":["http://hl7.org/fhir/us/core/StructureDefinition/us-core-condition"]},"clinicalStatus":{"coding":[{"system":"http://terminology.hl7.org/CodeSystem/condition-clinical","code":"active","display":"Active"}]},"category":[{"coding":[{"system":"http://terminology.hl7.org/CodeSystem/condition-category","code":"problem-list-item"}]}],"code":{"coding":[{"system":"http://snomed.info/sct","code":"91554004"}]},"subject":{"reference":"Patient/236aa037-ab61-4de8-9c5e-d896a83e490c"},"onsetDateTime":"2022-11-20T00:00:00+00:00"}},{"fullUrl":"Condition/660ac71e-0dec-4b3b-874f-e54aca6b879a","resource":{"resourceType":"Condition","id":"660ac71e-0dec-4b3b-874f-e54aca6b879a","meta":{"profile":["http://hl7.org/fhir/us/core/StructureDefinition/us-core-condition"]},"clinicalStatus":{"coding":[{"system":"http://terminology.hl7.org/CodeSystem/condition-clinical","code":"active","display":"Active"}]},"category":[{"coding":[{"system":"http://terminology.hl7.org/CodeSystem/condition-category","code":"problem-list-item"}]}],"code":{"coding":[{"system":"http://snomed.info/sct","code":"418290006"}]},"subject":{"reference":"Patient/236aa037-ab61-4de8-9c5e-d896a83e490c"},"onsetDateTime":"2022-04-19T00:00:00+00:00"}},{"fullUrl":"Condition/57a674da-2ab5-4d78-a747-b9e9b0522cb0","resource":{"resourceType":"Condition","id":"57a674da-2ab5-4d78-a747-b9e9b0522cb0","meta":{"profile":["http://hl7.org/fhir/us/core/StructureDefinition/us-core-condition"]},"clinicalStatus":{"coding":[{"system":"http://terminology.hl7.org/CodeSystem/condition-clinical","code":"active","display":"Active"}]},"category":[{"coding":[{"system":"http://terminology.hl7.org/CodeSystem/condition-category","code":"problem-list-item"}]}],"code":{"coding":[{"system":"http://snomed.info/sct","code":"44882003"}]},"subject":{"reference":"Patient/236aa037-ab61-4de8-9c5e-d896a83e490c"},"onsetDateTime":"2022-11-30T00:00:00+00:00"}},{"fullUrl":"Observation/a43c67b7-78fe-4f61-ab19-e1edff94800f","resource":{"resourceType":"Observation","id":"a43c67b7-78fe-4f61-ab19-e1edff94800f","meta":{"profile":["http://hl7.org/fhir/us/core/StructureDefinition/us-core-observation-lab"]},"status":"final","category":[{"coding":[{"system":"http://terminology.hl7.org/CodeSystem/observation-category","code":"laboratory","display":"Laboratory"}]}],"code":{"coding":[{"system":"http://loinc.org","code":"6690-2"}]},"subject":{"reference":"Patient/236aa037-ab61-4de8-9c5e-d896a83e490c"},"effectiveDateTime":"2022-10-28T00:00:00+00:00","valueQuantity":{"value":5}}},{"fullUrl":"Observation/a17696aa-1904-41be-bf11-ab18f2a1816d","resource":{"resourceType":"Observation","id":"a17696aa-1904-41be-bf11-ab18f2a1816d","meta":{"profile":["http://hl7.org/fhir/us/core/StructureDefinition/us-core-observation-lab"]},"status":"final","category":[{"coding":[{"system":"http://terminology.hl7.org/CodeSystem/observation-category","code":"laboratory","display":"Laboratory"}]}],"code":{"coding":[{"system":"http://loinc.org","code":"26464-8"}]},"subject":{"reference":"Patient/236aa037-ab61-4de8-9c5e-d896a83e490c"},"effectiveDateTime":"2022-11-04T00:00:00+00:00","valueQuantity":{"value":9.5}}},{"fullUrl":"Observation/7bf328ee-97b5-4659-9934-854745103b8c","resource":{"resourceType":"Observation","id":"7bf328ee-97b5-4659-9934-854745103b8c","meta":{"profile":["http://hl7.org/fhir/us/core/StructureDefinition/us-core-observation-lab"]},"status":"final","category":[{"coding":[{"system":"http://terminology.hl7.org/CodeSystem/observation-category","code":"laboratory","display":"Laboratory"}]}],"code":{"coding":[{"system":"http://loinc.org","code":"6690-2"}]},"subject":{"reference":"Patient/236aa037-ab61-4de8-9c5e-d896a83e490c"},"effectiveDateTime":"2022-06-27T00:00:00+00:00","valueQuantity":{"value":5}}},{"fullUrl":"Observation/02ea92bb-f12f-47c6-bc36-6cef99c91b3a","resource":{"resourceType":"Observation","id":"02ea92bb-f12f-47c6-bc36-6cef99c91b3a","meta":{"profile":["http://hl7.org/fhir/us/core/StructureDefinition/us-core-bmi"]},"status":"final","category":[{"coding":[{"system":"http://terminology.hl7.org/CodeSystem/observation-category","code":"vital-signs","display":"Vital Signs"}]}],"code":{"coding":[{"system":"http://loinc.org","code":"39156-5"}]},"subject":{"reference":"Patient/236aa037-ab61-4de8-9c5e-d896a83e490c"},"effectiveDateTime":"2022-02-21T00:00:00+00:00","valueQuantity":{"value":18.96,"unit":"kg/m2","system":"http://unitsofmeasure.org","code":"kg/m2"}}},{"fullUrl":"Observation/be15f8dd-0880-4106-8e9b-e37d2c35fac0","resource":{"resourceType":"Observation","id":"be15f8dd-0880-4106-8e9b-e37d2c35fac0","meta":{"profile":["http://hl7.org/fhir/us/core/StructureDefinition/us-core-head-circumference"]},"status":"final","category":[{"coding":[{"system":"http://terminology.hl7.org/CodeSystem/observation-category","code":"vital-signs","display":"Vital Signs"}]}],"code":{"coding":[{"system":"http://loinc.org","code":"9843-4"}]},"subject":{"reference":"Patient/236aa037-ab61-4de8-9c5e-d896a83e490c"},"effectiveDateTime":"2022-05-28T00:00:00+00:00","valueQuantity":{"value":2,"unit":"Inch","system":"http://unitsofmeasure.org","code":"[in_i]"}}},{"fullUrl":"Observation/4d75dc17-4fef-4b5b-8414-861f07ca578a","resource":{"resourceType":"Observation","id":"4d75dc17-4fef-4b5b-8414-861f07ca578a","meta":{"profile":["http://hl7.org/fhir/us/core/StructureDefinition/us-core-body-height"]},"status":"final","category":[{"coding":[{"system":"http://terminology.hl7.org/CodeSystem/observation-category","code":"vital-signs","display":"Vital Signs"}]}],"code":{"coding":[{"system":"http://loinc.org","code":"8302-2"}]},"subject":{"reference":"Patient/236aa037-ab61-4de8-9c5e-d896a83e490c"},"effectiveDateTime":"2022-10-10T00:00:00+00:00","valueQuantity":{"value":61.4,"unit":"Inch","system":"http://unitsofmeasure.org","code":"[in_i]"}}},{"fullUrl":"Observation/002d3de2-5ff9-4eb3-832b-615902af7f77","resource":{"resourceType":"Observation","id":"002d3de2-5ff9-4eb3-832b-615902af7f77","meta":{"profile":["http://hl7.org/fhir/us/core/StructureDefinition/us-core-body-height"]},"status":"final","category":[{"coding":[{"system":"http://terminology.hl7.org/CodeSystem/observation-category","code":"vital-signs","display":"Vital Signs"}]}],"code":{"coding":[{"system":"http://loinc.org","code":"8302-2"}]},"subject":{"reference":"Patient/236aa037-ab61-4de8-9c5e-d896a83e490c"},"effectiveDateTime":"2022-01-06T00:00:00+00:00","valueQuantity":{"value":64.5,"unit":"Inch","system":"http://unitsofmeasure.org","code":"[in_i]"}}},{"fullUrl":"Observation/28e30c21-ca36-4e93-8a13-172efec24ecc","resource":{"resourceType":"Observation","id":"28e30c21-ca36-4e93-8a13-172efec24ecc","meta":{"profile":["http://hl7.org/fhir/us/core/StructureDefinition/us-core-body-weight"]},"status":"final","category":[{"coding":[{"system":"http://terminology.hl7.org/CodeSystem/observation-category","code":"vital-signs","display":"Vital Signs"}]}],"code":{"coding":[{"system":"http://loinc.org","code":"29463-7"}]},"subject":{"reference":"Patient/236aa037-ab61-4de8-9c5e-d896a83e490c"},"effectiveDateTime":"2022-01-03T00:00:00+00:00","valueQuantity":{"value":32.01,"unit":"kilogram","system":"http://unitsofmeasure.org","code":"kg"}}},{"fullUrl":"Observation/a8d94b6d-4a08-4478-b7fa-6b194f6e5fb2","resource":{"resourceType":"Observation","id":"a8d94b6d-4a08-4478-b7fa-6b194f6e5fb2","meta":{"profile":["http://hl7.org/fhir/us/core/StructureDefinition/us-core-body-temperature"]},"status":"final","category":[{"coding":[{"system":"http://terminology.hl7.org/CodeSystem/observation-category","code":"vital-signs","display":"Vital Signs"}]}],"code":{"coding":[{"system":"http://loinc.org","code":"8310-5"}]},"subject":{"reference":"Patient/236aa037-ab61-4de8-9c5e-d896a83e490c"},"effectiveDateTime":"2022-01-01T00:00:00+00:00","valueQuantity":{"value":61.69,"unit":"Degrees Fahrenheit","system":"http://unitsofmeasure.org","code":"[degF]"}}},{"fullUrl":"Observation/3d107860-23d7-4ea2-8e9d-3401c19b5d72","resource":{"resourceType":"Observation","id":"3d107860-23d7-4ea2-8e9d-3401c19b5d72","meta":{"profile":["http://hl7.org/fhir/us/core/StructureDefinition/us-core-body-temperature"]},"status":"final","category":[{"coding":[{"system":"http://terminology.hl7.org/CodeSystem/observation-category","code":"vital-signs","display":"Vital Signs"}]}],"code":{"coding":[{"system":"http://loinc.org","code":"8310-5"}]},"subject":{"reference":"Patient/236aa037-ab61-4de8-9c5e-d896a83e490c"},"effectiveDateTime":"2022-10-17T00:00:00+00:00","valueQuantity":{"value":93.79,"unit":"Degrees Fahrenheit","system":"http://unitsofmeasure.org","code":"[degF]"}}},{"fullUrl":"Observation/88824268-84af-402b-a8bb-c697dcb49c69","resource":{"resourceType":"Observation","id":"88824268-84af-402b-a8bb-c697dcb49c69","meta":{"profile":["http://hl7.org/fhir/us/core/StructureDefinition/us-core-heart-rate"]},"status":"final","category":[{"coding":[{"system":"http://terminology.hl7.org/CodeSystem/observation-category","code":"vital-signs","display":"Vital Signs"}]}],"code":{"coding":[{"system":"http://loinc.org","code":"8867-4"}]},"subject":{"reference":"Patient/236aa037-ab61-4de8-9c5e-d896a83e490c"},"effectiveDateTime":"2022-12-15T00:00:00+00:00","valueQuantity":{"value":100.6,"unit":"Per Minute","system":"http://unitsofmeasure.org","code":"/min"}}}]}