{"resourceType":"Bundle","id":"63b27d69-9639-4f90-80df-1dff15eb6db6","type":"transaction","entry":[{"fullUrl":"Patient/71973521-af6d-4b02-8ee6-693000c9acd9","resource":{"resourceType":"Patient","id":"71973521-af6d-4b02-8ee6-693000c9acd9","identifier":[{"type":{"coding":[{"system":"http://terminology.hl7.org/CodeSystem/v2-0203","code":"MR"}]},"system":"urn:fhirgen:mrn","value":"243-70-6993"}],"name":[{"use":"official","family":"Guzman","given":["Jesse"]},{"use":"maiden","family":"Yu"}],"telecom":[{"system":"phone","value":"(909)806-3683","use":"mobile"},{"system":"email","value":"buckleyjack@gmail.com","use":"work"}],"gender":"male","birthDate":"1969-01-16","address":[{"use":"home","line":["179 Ashley Course"],"city":"Davidsonfurt","state":"MT","postalCode":"99705"},{"use":"old","line":["190 Jacob Lock"],"city":"Valerieview","state":"TX","postalCode":"56717"}]},"request":{"method":"POST","url":"Patient"}},{"fullUrl":"Observation/73309574-88c5-4f39-8153-e01331f6fd49","resource":{"resourceType":"Observation","id":"73309574-88c5-4f39-8153-e01331f6fd49","status":"final","code":{"coding":[{"system":"http://loinc.org","code":"71793-4"}]},"subject":{"reference":"Patient/71973521-af6d-4b02-8ee6-693000c9acd9"},"effectiveDateTime":"2022-06-22T00:00:00+00:00","valueRatio":{"numerator":{"value":1},"denominator":{"value":4}}},"request":{"method":"POST","url":"Observation"}},{"fullUrl":"Observation/62caffb8-ffa3-464b-8f7d-491698cf95e9","resource":{"resourceType":"Observation","id":"62caffb8-ffa3-464b-8f7d-491698cf95e9","status":"final","code":{"coding":[{"system":"http://loinc.org","code":"34382-2"}]},"subject":{"reference":"Patient/71973521-af6d-4b02-8ee6-693000c9acd9"},"effectiveDateTime":"2022-05-07T00:00:00+00:00","valueRatio":{"numerator":{"value":1},"denominator":{"value":32}}},"request":{"method":"POST","url":"Observation"}},{"fullUrl":"Condition/2051ad70-75f2-4182-a7bc-ab1d18323607","resource":{"resourceType":"Condition","id":"2051ad70-75f2-4182-a7bc-ab1d18323607","code":{"coding":[{"system":"http://snomed.info/sct","code":"21522001"}]},"subject":{"reference":"Patient/71973521-af6d-4b02-8ee6-693000c9acd9"},"onsetDateTime":"2022-11-21T00:00:00+00:00"},"request":{"method":"POST","url":"Condition"}},{"fullUrl":"Condition/d0edd7a0-c272-43f1-b7de-9ab17db6e673","resource":{"resourceType":"Condition","id":"d0edd7a0-c272-43f1-b7de-9ab17db6e673","code":{"coding":[{"system":"http://snomed.info/sct","code":"271807003"}]},"subject":{"reference":"Patient/71973521-af6d-4b02-8ee6-693000c9acd9"},"onsetDateTime":"2022-01-05T00:00:00+00:00"},"request":{"method":"POST","url":"Condition"}},{"fullUrl":"Condition/6d0636ec-1ee3-43a3-865b-a34a9e990d0b","resource":{"resourceType":"Condition","id":"6d0636ec-1ee3-43a3-865b-a34a9e990d0b","code":{"coding":[{"system":"http://snomed.info/sct","code":"30746006"}]},"subject":{"reference":"Patient/71973521-af6d-4b02-8ee6-693000c9acd9"},"onsetDateTime":"2022-08-17T00:00:00+00:00"},"request":{"method":"POST","url":"Condition"}},{"fullUrl":"Condition/d8e46aea-bef7-4d44-a948-1e4184c69149","resource":{"resourceType":"Condition","id":"d8e46aea-bef7-4d44-a948-1e4184c69149","code":{"coding":[{"system":"http://snomed.info/sct","code":"3951002"}]},"subject":{"reference":"Patient/71973521-af6d-4b02-8ee6-693000c9acd9"},"onsetDateTime":"2022-01-12T00:00:00+00:00"},"request":{"method":"POST","url":"Condition"}},{"fullUrl":"Condition/2658a221-f785-41ab-bb98-48a4234b9a68","resource":{"resourceType":"Condition","id":"2658a221-f785-41ab-bb98-48a4234b9a68","code":{"coding":[{"system":"http://snomed.info/sct","code":"418290006"}]},"subject":{"reference":"Patient/71973521-af6d-4b02-8ee6-693000c9acd9"},"onsetDateTime":"2022-02-09T00:00:00+00:00"},"request":{"method":"POST","url":"Condition"}},{"fullUrl":"Condition/0e4d17b0-a9c1-4683-ac23-21fa7009368f","resource":{"resourceType":"Condition","id":"0e4d17b0-a9c1-4683-ac23-21fa7009368f","code":{"coding":[{"system":"http://snomed.info/sct","code":"91554004"}]},"subject":{"reference":"Patient/71973521-af6d-4b02-8ee6-693000c9acd9"},"onsetDateTime":"2022-06-25T00:00:00+00:00"},"request":{"method":"POST","url":"Condition"}},{"fullUrl":"Condition/c8bb16c8-9aba-41a5-a93a-1fbdda4d32f6","resource":{"resourceType":"Condition","id":"c8bb16c8-9aba-41a5-a93a-1fbdda4d32f6","code":{"coding":[{"system":"http://snomed.info/sct","code":"21522001"}]},"subject":{"reference":"Patient/71973521-af6d-4b02-8ee6-693000c9acd9"},"onsetDateTime":"2022-04-04T00:00:00+00:00"},"request":{"method":"POST","url":"Condition"}},{"fullUrl":"Condition/5bcc61f1-939e-4a32-91e5-f1906f068181","resource":{"resourceType":"Condition","id":"5bcc61f1-939e-4a32-91e5-f1906f068181","code":{"coding":[{"system":"http://snomed.info/sct","code":"736686006"}]},"subject":{"reference":"Patient/71973521-af6d-4b02-8ee6-693000c9acd9"},"onsetDateTime":"2022-07-20T00:00:00+00:00"},"request":{"method":"POST","url":"Condition"}},{"fullUrl":"Observation/98ac9a2d-81f7-4f8a-802a-e6f613e5bd77","resource":{"resourceType":"Observation","id":"98ac9a2d-81f7-4f8a-802a-e6f613e5bd77","status":"final","code":{"coding":[{"system":"http://loinc.org","code":"49498-9"}]},"subject":{"reference":"Patient/71973521-af6d-4b02-8ee6-693000c9acd9"},"effectiveDateTime":"2022-01-31T00:00:00+00:00","valueQuantity":{"value":9.3}},"request":{"method":"POST","url":"Observation"}},{"fullUrl":"Observation/e874935d-a807-43ed-a608-192fc453ca5b","resource":{"resourceType":"Observation","id":"e874935d-a807-43ed-a608-192fc453ca5b","status":"final","code":{"coding":[{"system":"http://www.ama-assn.org/go/cpt","code":"85048"}]},"subject":{"reference":"Patient/71973521-af6d-4b02-8ee6-693000c9acd9"},"effectiveDateTime":"2022-07-12T00:00:00+00:00","valueQuantity":{"value":8.9}},"request":{"method":"POST","url":"Observation"}},{"fullUrl":"Observation/f30e0186-3d25-4485-9d70-d9e7fbe5e1bc","resource":{"resourceType":"Observation","id":"f30e0186-3d25-4485-9d70-d9e7fbe5e1bc","status":"final","code":{"coding":[{"system":"http://loinc.org","code":"6690-2"}]},"subject":{"reference":"Patient/71973521-af6d-4b02-8ee6-693000c9acd9"},"effectiveDateTime":"2022-01-10T00:00:00+00:00","valueQuantity":{"value":5.8}},"request":{"method":"POST","url":"Observation"}},{"fullUrl":"Observation/7b098683-6a75-4395-ae8a-bfe308e3f5e5","resource":{"resourceType":"Observation","id":"7b098683-6a75-4395-ae8a-bfe308e3f5e5","status":"final","code":{"coding":[{"system":"http://loinc.org","code":"49498-9"}]},"subject":{"reference":"Patient/71973521-af6d-4b02-8ee6-693000c9acd9"},"effectiveDateTime":"2022-02-16T00:00:00+00:00"},"request":{"method":"POST","url":"Observation"}},{"fullUrl":"Observation/b068f237-f6c6-415b-8b64-b5c64b9ccc76","resource":{"resourceType":"Observation","id":"b068f237-f6c6-415b-8b64-b5c64b9ccc76","status":"final","code":{"coding":[{"system":"http://loinc.org","code":"49498-9"}]},"subject":{"reference":"Patient/71973521-af6d-4b02-8ee6-693000c9acd9"},"effectiveDateTime":"2022-04-09T00:00:00+00:00"},"request":{"method":"POST","url":"Observation"}},{"fullUrl":"Observation/8e2ddc44-9c97-4700-b7aa-9c8baad9714b","resource":{"resourceType":"Observation","id":"8e2ddc44-9c97-4700-b7aa-9c8baad9714b","status":"final","code":{"coding":[{"system":"http://loinc.org","code":"49498-9"}]},"subject":{"reference":"Patient/71973521-af6d-4b02-8ee6-693000c9acd9"},"effectiveDateTime":"2022-05-22T00:00:00+00:00"},"request":{"method":"POST","url":"Observation"}},{"fullUrl":"Procedure/7e9e3503-a226-41f0-91d9-db7a310954a6","resource":{"resourceType":"Procedure","id":"7e9e3503-a226-41f0-91d9-db7a310954a6","status":"completed","code":{"coding":[{"system":"http://snomed.info/sct","code":"146005"}]},"subject":{"reference":"Patient/71973521-af6d-4b02-8ee6-693000c9acd9"},"performedDateTime":"2022-06-13T00:00:00+00:00"},"request":{"method":"POST","url":"Procedure"}},{"fullUrl":"Procedure/dd3199cd-9797-4152-b09c-43e8be69d322","resource":{"resourceType":"Procedure","id":"dd3199cd-9797-4152-b09c-43e8be69d322","status":"completed","code":{"coding":[{"system":"http://snomed.info/sct","code":"189009"}]},"subject":{"reference":"Patient/71973521-af6d-4b02-8ee6-693000c9acd9"},"performedDateTime":"2022-11-01T00:00:00+00:00"},"request":{"method":"POST","url":"Procedure"}},{"fullUrl":"Procedure/2c587a3e-a08c-4662-a47d-e4f1a763c813","resource":{"resourceType":"Procedure","id":"2c587a3e-a08c-4662-a47d-e4f1a763c813","status":"completed","code":{"coding":[{"system":"http://snomed.info/sct","code":"115006"}]},"subject":{"reference":"Patient/71973521-af6d-4b02-8ee6-693000c9acd9"},"performedDateTime":"2022-07-03T00:00:00+00:00"},"request":{"method":"POST","url":"Procedure"}},{"fullUrl":"MedicationStatement/e5bc6b1c-15f3-44c1-abb0-b83fc859def3","resource":{"resourceType":"MedicationStatement","id":"e5bc6b1c-15f3-44c1-abb0-b83fc859def3","status":"completed","medicationCodeableConcept":{"coding":[{"system":"http://www.nlm.nih.gov/research/umls/rxnorm","code":"7980"}]},"subject":{"reference":"Patient/71973521-af6d-4b02-8ee6-693000c9acd9"},"effectiveDateTime":"2022-05-21T00:00:00+00:00","dosage":[{"doseAndRate":[{"doseQuantity":{"value":1,"unit":"TAB","system":"http://terminology.hl7.org/CodeSystem/v3-orderableDrugForm","code":"TAB"}}]}]},"request":{"method":"POST","url":"MedicationStatement"}},{"fullUrl":"MedicationStatement/02c09874-416a-4e27-b6af-501112e2534b","resource":{"resourceType":"MedicationStatement","id":"02c09874-416a-4e27-b6af-501112e2534b","status":"completed","medicationCodeableConcept":{"coding":[{"system":"http://www.nlm.nih.gov/research/umls/rxnorm","code":"18631"}]},"subject":{"reference":"Patient/71973521-af6d-4b02-8ee6-693000c9acd9"},"effectiveDateTime":"2022-06-28T00:00:00+00:00","dosage":[{"doseAndRate":[{"doseQuantity":{"value":1,"unit":"TAB","system":"http://terminology.hl7.org/CodeSystem/v3-orderableDrugForm","code":"TAB"}}]}]},"request":{"method":"POST","url":"MedicationStatement"}},{"fullUrl":"MedicationStatement/35ce1ce6-f0a5-4a45-bae3-6be07fce5d5f","resource":{"resourceType":"MedicationStatement","id":"35ce1ce6-f0a5-4a45-bae3-6be07fce5d5f","status":"completed","medicationCodeableConcept":{"coding":[{"system":"http://www.nlm.nih.gov/research/umls/rxnorm","code":"10395"}]},"subject":{"reference":"Patient/71973521-af6d-4b02-8ee6-693000c9acd9"},"effectiveDateTime":"2022-01-12T00:00:00+00:00","dosage":[{"doseAndRate":[{"doseQuantity":{"value":1,"unit":"TAB","system":"http://terminology.hl7.org/CodeSystem/v3-orderableDrugForm","code":"TAB"}}]}]},"request":{"method":"POST","url":"MedicationStatement"}},{"fullUrl":"MedicationStatement/7ada8f2a-9529-43bc-ac91-1f3093e10989","resource":{"resourceType":"MedicationStatement","id":"7ada8f2a-9529-43bc-ac91-1f3093e10989","status":"completed","medicationCodeableConcept":{"coding":[{"system":"http://www.nlm.nih.gov/research/umls/rxnorm","code":"8698"}]},"subject":{"reference":"Patient/71973521-af6d-4b02-8ee6-693000c9acd9"},"effectiveDateTime":"2022-12-11T00:00:00+00:00","dosage":[{"doseAndRate":[{"doseQuantity":{"value":1,"unit":"TAB","system":"http://terminology.hl7.org/CodeSystem/v3-orderableDrugForm","code":"TAB"}}]}]},"request":{"method":"POST","url":"MedicationStatement"}},{"fullUrl":"MedicationStatement/7da1512a-57bc-4efb-8b7d-3560b63841cf","resource":{"resourceType":"MedicationStatement","id":"7da1512a-57bc-4efb-8b7d-3560b63841cf","status":"completed","medicationCodeableConcept":{"coding":[{"system":"http://www.nlm.nih.gov/research/umls/rxnorm","code":"18631"}]},"subject":{"reference":"Patient/71973521-af6d-4b02-8ee6-693000c9acd9"},"effectiveDateTime":"2022-09-26T00:00:00+00:00","dosage":[{"doseAndRate":[{"doseQuantity":{"value":2,"unit":"TAB","system":"http://terminology.hl7.org/CodeSystem/v3-orderableDrugForm","code":"TAB"}}]}]},"request":{"method":"POST","url":"MedicationStatement"}},{"fullUrl":"MedicationStatement/7a65abe9-abe5-42c5-96f7-7865ad4b026c","resource":{"resourceType":"MedicationStatement","id":"7a65abe9-abe5-42c5-96f7-7865ad4b026c","status":"completed","medicationCodeableConcept":{"coding":[{"system":"http://www.nlm.nih.gov/research/umls/rxnorm","code":"10395"}]},"subject":{"reference":"Patient/71973521-af6d-4b02-8ee6-693000c9acd9"},"effectiveDateTime":"2022-04-09T00:00:00+00:00","dosage":[{"doseAndRate":[{"doseQuantity":{"value":6.1,"unit":"TAB","system":"http://terminology.hl7.org/CodeSystem/v3-orderableDrugForm","code":"TAB"}}]}]},"request":{"method":"POST","url":"MedicationStatement"}},{"fullUrl":"MedicationStatement/e6d36290-e322-41f7-8eaf-92cb51e4d2cb","resource":{"resourceType":"MedicationStatement","id":"e6d36290-e322-41f7-8eaf-92cb51e4d2cb","status":"completed","medicationCodeableConcept":{"coding":[{"system":"http://www.nlm.nih.gov/research/umls/rxnorm","code":"7984"}]},"subject":{"reference":"Patient/71973521-af6d-4b02-8ee6-693000c9acd9"},"effectiveDateTime":"2022-12-10T00:00:00+00:00","dosage":[{"doseAndRate":[{"doseQuantity":{"value":5.6,"unit":"TAB","system":"http://terminology.hl7.org/CodeSystem/v3-orderableDrugForm","code":"TAB"}}]}]},"request":{"method":"POST","url":"MedicationStatement"}},{"fullUrl":"MedicationStatement/76092cbd-9a5f-4c63-94a7-1b4dc6a6c03f","resource":{"resourceType":"MedicationStatement","id":"76092cbd-9a5f-4c63-94a7-1b4dc6a6c03f","status":"completed","medicationCodeableConcept":{"coding":[{"system":"http://www.nlm.nih.gov/research/umls/rxnorm","code":"8698"}]},"subject":{"reference":"Patient/71973521-af6d-4b02-8ee6-693000c9acd9"},"effectiveDateTime":"2022-03-02T00:00:00+00:00","dosage":[{"doseAndRate":[{"doseQuantity":{"value":5.5,"unit":"TAB","system":"http://terminology.hl7.org/CodeSystem/v3-orderableDrugForm","code":"TAB"}}]}]},"request":{"method":"POST","url":"MedicationStatement"}},{"fullUrl":"Encounter/b898a59a-ad58-4871-89cf-fae1d65dd4bf","resource":{"resourceType":"Encounter","id":"b898a59a-ad58-4871-89cf-fae1d65dd4bf","status":"finished","class":{"system":"http://terminology.hl7.org/CodeSystem/v3-ActCode","code":"IMP","display":"inpatient encounter"},"type":[{"coding":[{"system":"http://terminology.hl7.org/CodeSystem/encounter-type","code":"CCS60"}]}],"subject":{"reference":"Patient/71973521-af6d-4b02-8ee6-693000c9acd9"},"period":{"start":"2022-01-09T00:00:00+00:00","end":"2022-01-14T00:00:00+00:00"}},"request":{"method":"POST","url":"Encounter"}},{"fullUrl":"Encounter/f7cfa19b-b5a6-408b-9fb6-69c50d456881","resource":{"resourceType":"Encounter","id":"f7cfa19b-b5a6-408b-9fb6-69c50d456881","status":"finished","class":{"system":"http://terminology.hl7.org/CodeSystem/v3-ActCode","code":"IMP","display":"inpatient encounter"},"type":[{"coding":[{"system":"http://terminology.hl7.org/CodeSystem/encounter-type","code":"BD/BM-clin"}]}],"subject":{"reference":"Patient/71973521-af6d-4b02-8ee6-693000c9acd9"},"period":{"start":"2022-07-16T00:00:00+00:00","end":"2022-07-20T00:00:00+00:00"}},"request":{"method":"POST","url":"Encounter"}},{"fullUrl":"Encounter/79bcaf5f-053e-4b17-91bf-3b5e696a88c6","resource":{"resourceType":"Encounter","id":"79bcaf5f-053e-4b17-91bf-3b5e696a88c6","status":"finished","class":{"system":"http://terminology.hl7.org/CodeSystem/v3-ActCode","code":"NONAC","display":"inpatient non-acute"},"type":[{"coding":[{"system":"http://terminology.hl7.org/CodeSystem/encounter-type","code":"CCS60"}]}],"subject":{"reference":"Patient/71973521-af6d-4b02-8ee6-693000c9acd9"},"period":{"start":"2022-03-02T00:00:00+00:00","end":"2022-03-05T00:00:00+00:00"}},"request":{"method":"POST","url":"Encounter"}},{"fullUrl":"Encounter/dd8c5c83-72b3-4b58-93a2-c9e7a37b8d6e","resource":{"resourceType":"Encounter","id":"dd8c5c83-72b3-4b58-93a2-c9e7a37b8d6e","status":"finished","class":{"system":"http://terminology.hl7.org/CodeSystem/v3-ActCode","code":"HH","display":"home health"},"type":[{"coding":[{"system":"http://terminology.hl7.org/CodeSystem/encounter-type","code":"OKI"}]}],"subject":{"reference":"Patient/71973521-af6d-4b02-8ee6-693000c9acd9"},"period":{"start":"2022-07-06T00:00:00+00:00","end":"2022-07-13T00:00:00+00:00"}},"request":{"method":"POST","url":"Encounter"}},{"fullUrl":"Encounter/09fdcd39-a61b-43fd-aa7e-b24871eaa57b","resource":{"resourceType":"Encounter","id":"09fdcd39-a61b-43fd-aa7e-b24871eaa57b","status":"finished","class":{"system":"http://terminology.hl7.org/CodeSystem/v3-ActCode","code":"HH","display":"home health"},"type":[{"coding":[{"system":"http://terminology.hl7.org/CodeSystem/encounter-type","code":"CCS60"}]}],"subject":{"reference":"Patient/71973521-af6d-4b02-8ee6-693000c9acd9"},"period":{"start":"2022-10-05T00:00:00+00:00","end":"2022-10-07T00:00:00+00:00"}},"request":{"method":"POST","url":"Encounter"}},{"fullUrl":"Patient/40795bb4-19f5-46ca-a5cc-8997c9d3781c","resource":{"resourceType":"Patient","id":"40795bb4-19f5-46ca-a5cc-8997c9d3781c","identifier":[{"type":{"coding":[{"system":"http://terminology.hl7.org/CodeSystem/v2-0203","code":"MR"}]},"system":"urn:fhirgen:mrn","value":"758-41-8328"}],"name":[{"use":"official","family":"Bennett","given":["Jose"]},{"use":"maiden","family":"Flores"}],"telecom":[{"system":"phone","value":"001-882-982-9491x5005","use":"mobile"},{"system":"email","value":"yfrank@gmail.com","use":"home"}],"gender":"male","birthDate":"1983-10-09","address":[{"use":"home","line":["35194 Patterson Ramp"],"city":"Reyesmouth","state":"NC","postalCode":"67115"},{"use":"old","line":["035 Toni Tunnel Suite 340"],"city":"New John","state":"AR","postalCode":"96866"}]},"request":{"method":"POST","url":"Patient"}},{"fullUrl":"Observation/d15690d8-ec4c-42b8-83da-766d5704c57c","resource":{"resourceType":"Observation","id":"d15690d8-ec4c-42b8-83da-766d5704c57c","status":"final","code":{"coding":[{"system":"http://loinc.org","code":"51475-2"}]},"subject":{"reference":"Patient/40795bb4-19f5-46ca-a5cc-8997c9d3781c"},"effectiveDateTime":"2022-12-06T00:00:00+00:00","valueRatio":{"numerator":{"value":1},"denominator":{"value":32}}},"request":{"method":"POST","url":"Observation"}},{"fullUrl":"Observation/b4938ba0-a632-4a6c-9d0f-b9b400996aa2","resource":{"resourceType":"Observation","id":"b4938ba0-a632-4a6c-9d0f-b9b400996aa2","status":"final","code":{"coding":[{"system":"http://loinc.org","code":"26009-1"}]},"subject":{"reference":"Patient/40795bb4-19f5-46ca-a5cc-8997c9d3781c"},"effectiveDateTime":"2022-08-27T00:00:00+00:00","valueRatio":{"numerator":{"value":1},"denominator":{"value":32}}},"request":{"method":"POST","url":"Observation"}},{"fullUrl":"Observation/3f3539f2-262b-4a52-b7d2-9945d8b161d5","resource":{"resourceType":"Observation","id":"3f3539f2-262b-4a52-b7d2-9945d8b161d5","status":"final","code":{"coding":[{"system":"http://loinc.org","code":"5394-2"}]},"subject":{"reference":"Patient/40795bb4-19f5-46ca-a5cc-8997c9d3781c"},"effectiveDateTime":"2022-08-19T00:00:00+00:00","valueRatio":{"numerator":{"value":1},"denominator":{"value":32}}},"request":{"method":"POST","url":"Observation"}},{"fullUrl":"Condition/69ce4c1a-de30-4cde-8c4b-6d825945230f","resource":{"resourceType":"Condition","id":"69ce4c1a-de30-4cde-8c4b-6d825945230f","code":{"coding":[{"system":"http://snomed.info/sct","code":"709977002"}]},"subject":{"reference":"Patient/40795bb4-19f5-46ca-a5cc-8997c9d3781c"},"onsetDateTime":"2022-10-06T00:00:00+00:00"},"request":{"method":"POST","url":"Condition"}},{"fullUrl":"Condition/197648b2-4180-4cfb-a1b5-02290b47c548","resource":{"resourceType":"Condition","id":"197648b2-4180-4cfb-a1b5-02290b47c548","code":{"coding":[{"system":"http://snomed.info/sct","code":"56317004"}]},"subject":{"reference":"Patient/40795bb4-19f5-46ca-a5cc-8997c9d3781c"},"onsetDateTime":"2022-02-19T00:00:00+00:00"},"request":{"method":"POST","url":"Condition"}},{"fullUrl":"Condition/ec84b8da-1675-408a-b2d8-7edfa23a1252","resource":{"resourceType":"Condition","id":"ec84b8da-1675-408a-b2d8-7edfa23a1252","code":{"coding":[{"system":"http://snomed.info/sct","code":"709977002"}]},"subject":{"reference":"Patient/40795bb4-19f5-46ca-a5cc-8997c9d3781c"},"onsetDateTime":"2022-07-17T00:00:00+00:00"},"request":{"method":"POST","url":"Condition"}},{"fullUrl":"Condition/8d2ae090-acc8-45fa-820c-e623f03f21a5","resource":{"resourceType":"Condition","id":"8d2ae090-acc8-45fa-820c-e623f03f21a5","code":{"coding":[{"system":"http://snomed.info/sct","code":"418290006"}]},"subject":{"reference":"Patient/40795bb4-19f5-46ca-a5cc-8997c9d3781c"},"onsetDateTime":"2022-06-13T00:00:00+00:00"},"request":{"method":"POST","url":"Condition"}},{"fullUrl":"Observation/ea3a0514-ac35-4251-9050-c232a46711a5","resource":{"resourceType":"Observation","id":"ea3a0514-ac35-4251-9050-c232a46711a5","status":"final","code":{"coding":[{"system":"http://www.ama-assn.org/go/cpt","code":"85048"}]},"subject":{"reference":"Patient/40795bb4-19f5-46ca-a5cc-8997c9d3781c"},"effectiveDateTime":"2022-10-13T00:00:00+00:00","valueQuantity":{"value":9.9}},"request":{"method":"POST","url":"Observation"}},{"fullUrl":"Observation/df3f77f7-e18f-427c-bb37-04d2ed6a944c","resource":{"resourceType":"Observation","id":"df3f77f7-e18f-427c-bb37-04d2ed6a944c","status":"final","code":{"coding":[{"system":"http://loinc.org","code":"26464-8"}]},"subject":{"reference":"Patient/40795bb4-19f5-46ca-a5cc-8997c9d3781c"},"effectiveDateTime":"2022-02-06T00:00:00+00:00","valueQuantity":{"value":10.3}},"request":{"method":"POST","url":"Observation"}},{"fullUrl":"Observation/2b2053bf-a5f6-4d85-bbee-dd69c3f14826","resource":{"resourceType":"Observation","id":"2b2053bf-a5f6-4d85-bbee-dd69c3f14826","status":"final","code":{"coding":[{"system":"http://loinc.org","code":"49498-9"}]},"subject":{"reference":"Patient/40795bb4-19f5-46ca-a5cc-8997c9d3781c"},"effectiveDateTime":"2022-10-09T00:00:00+00:00"},"request":{"method":"POST","url":"Observation"}},{"fullUrl":"Observation/16a2183a-356d-475a-9f33-066d243c4eab","resource":{"resourceType":"Observation","id":"16a2183a-356d-475a-9f33-066d243c4eab","status":"final","code":{"coding":[{"system":"http://loinc.org","code":"49498-9"}]},"subject":{"reference":"Patient/40795bb4-19f5-46ca-a5cc-8997c9d3781c"},"effectiveDateTime":"2022-07-06T00:00:00+00:00"},"request":{"method":"POST","url":"Observation"}},{"fullUrl":"Observation/2e766240-8b5d-4ce4-9315-c65b2ccefc78","resource":{"resourceType":"Observation","id":"2e766240-8b5d-4ce4-9315-c65b2ccefc78","status":"final","code":{"coding":[{"system":"http://loinc.org","code":"49498-9"}]},"subject":{"reference":"Patient/40795bb4-19f5-46ca-a5cc-8997c9d3781c"},"effectiveDateTime":"2022-12-30T00:00:00+00:00"},"request":{"method":"POST","url":"Observation"}},{"fullUrl":"Procedure/44bbf55e-9856-4e90-b6b0-a98211ecae89","resource":{"resourceType":"Procedure","id":"44bbf55e-9856-4e90-b6b0-a98211ecae89","status":"completed","code":{"coding":[{"system":"http://snomed.info/sct","code":"189009"}]},"subject":{"reference":"Patient/40795bb4-19f5-46ca-a5cc-8997c9d3781c"},"performedDateTime":"2022-11-27T00:00:00+00:00"},"request":{"method":"POST","url":"Procedure"}},{"fullUrl":"Procedure/240a7d20-c4f9-4209-91d8-51895b79c20c","resource":{"resourceType":"Procedure","id":"240a7d20-c4f9-4209-91d8-51895b79c20c","status":"completed","code":{"coding":[{"system":"http://snomed.info/sct","code":"189009"}]},"subject":{"reference":"Patient/40795bb4-19f5-46ca-a5cc-8997c9d3781c"},"performedDateTime":"2022-11-01T00:00:00+00:00"},"request":{"method":"POST","url":"Procedure"}},{"fullUrl":"Procedure/552f60e7-77ff-45c7-9ff9-39093acb752c","resource":{"resourceType":"Procedure","id":"552f60e7-77ff-45c7-9ff9-39093acb752c","status":"completed","code":{"coding":[{"system":"http://snomed.info/sct","code":"104001"}]},"subject":{"reference":"Patient/40795bb4-19f5-46ca-a5cc-8997c9d3781c"},"performedDateTime":"2022-01-26T00:00:00+00:00"},"request":{"method":"POST","url":"Procedure"}},{"fullUrl":"MedicationStatement/466735dd-ff76-4877-af05-a49dc2e5ed65","resource":{"resourceType":"MedicationStatement","id":"466735dd-ff76-4877-af05-a49dc2e5ed65","status":"completed","medicationCodeableConcept":{"coding":[{"system":"http://www.nlm.nih.gov/research/umls/rxnorm","code":"8698"}]},"subject":{"reference":"Patient/40795bb4-19f5-46ca-a5cc-8997c9d3781c"},"effectiveDateTime":"2022-07-03T00:00:00+00:00","dosage":[{"doseAndRate":[{"doseQuantity":{"value":1,"unit":"TAB","system":"http://terminology.hl7.org/CodeSystem/v3-orderableDrugForm","code":"TAB"}}]}]},"request":{"method":"POST","url":"MedicationStatement"}},{"fullUrl":"MedicationStatement/f00bde24-2e09-421c-bb10-9ac8b44288ae","resource":{"resourceType":"MedicationStatement","id":"f00bde24-2e09-421c-bb10-9ac8b44288ae","status":"completed","medicationCodeableConcept":{"coding":[{"system":"http://www.nlm.nih.gov/research/umls/rxnorm","code":"3640"}]},"subject":{"reference":"Patient/40795bb4-19f5-46ca-a5cc-8997c9d3781c"},"effectiveDateTime":"2022-06-12T00:00:00+00:00","dosage":[{"doseAndRate":[{"doseQuantity":{"value":1,"unit":"TAB","system":"http://terminology.hl7.org/CodeSystem/v3-orderableDrugForm","code":"TAB"}}]}]},"request":{"method":"POST","url":"MedicationStatement"}},{"fullUrl":"MedicationStatement/c3c112fc-80c7-4f5d-853b-691940d7e88b","resource":{"resourceType":"MedicationStatement","id":"c3c112fc-80c7-4f5d-853b-691940d7e88b","status":"completed","medicationCodeableConcept":{"coding":[{"system":"http://www.nlm.nih.gov/research/umls/rxnorm","code":"2193"}]},"subject":{"reference":"Patient/40795bb4-19f5-46ca-a5cc-8997c9d3781c"},"effectiveDateTime":"2022-06-22T00:00:00+00:00","dosage":[{"doseAndRate":[{"doseQuantity":{"value":5.1,"unit":"TAB","system":"http://terminology.hl7.org/CodeSystem/v3-orderableDrugForm","code":"TAB"}}]}]},"request":{"method":"POST","url":"MedicationStatement"}},{"fullUrl":"MedicationStatement/98384cf8-8d7f-40c9-8fac-05b5e4cfceb0","resource":{"resourceType":"MedicationStatement","id":"98384cf8-8d7f-40c9-8fac-05b5e4cfceb0","status":"completed","medicationCodeableConcept":{"coding":[{"system":"http://www.nlm.nih.gov/research/umls/rxnorm","code":"10395"}]},"subject":{"reference":"Patient/40795bb4-19f5-46ca-a5cc-8997c9d3781c"},"effectiveDateTime":"2022-09-15T00:00:00+00:00","dosage":[{"doseAndRate":[{"doseQuantity":{"value":6,"unit":"TAB","system":"http://terminology.hl7.org/CodeSystem/v3-orderableDrugForm","code":"TAB"}}]}]},"request":{"method":"POST","url":"MedicationStatement"}},{"fullUrl":"MedicationStatement/e566bec1-e245-41a7-b3cd-a3ab5ce08a62","resource":{"resourceType":"MedicationStatement","id":"e566bec1-e245-41a7-b3cd-a3ab5ce08a62","status":"completed","medicationCodeableConcept":{"coding":[{"system":"http://www.nlm.nih.gov/research/umls/rxnorm","code":"8698"}]},"subject":{"reference":"Patient/40795bb4-19f5-46ca-a5cc-8997c9d3781c"},"effectiveDateTime":"2022-01-15T00:00:00+00:00","dosage":[{"doseAndRate":[{"doseQuantity":{"value":3.9,"unit":"TAB","system":"http://terminology.hl7.org/CodeSystem/v3-orderableDrugForm","code":"TAB"}}]}]},"request":{"method":"POST","url":"MedicationStatement"}},{"fullUrl":"Encounter/a87e8a37-d884-4205-bf2a-0683f106dd67","resource":{"resourceType":"Encounter","id":"a87e8a37-d884-4205-bf2a-0683f106dd67","status":"finished","class":{"system":"http://terminology.hl7.org/CodeSystem/v3-ActCode","code":"IMP","display":"inpatient encounter"},"type":[{"coding":[{"system":"http://terminology.hl7.org/CodeSystem/encounter-type","code":"BD/BM-clin"}]}],"subject":{"reference":"Patient/40795bb4-19f5-46ca-a5cc-8997c9d3781c"},"period":{"start":"2022-03-21T00:00:00+00:00","end":"2022-03-24T00:00:00+00:00"}},"request":{"method":"POST","url":"Encounter"}},{"fullUrl":"Encounter/3664997a-3243-44a3-a140-246c131d1ce9","resource":{"resourceType":"Encounter","id":"3664997a-3243-44a3-a140-246c131d1ce9","status":"finished","class":{"system":"http://terminology.hl7.org/CodeSystem/v3-ActCode","code":"IMP","display":"inpatient encounter"},"type":[{"coding":[{"system":"http://terminology.hl7.org/CodeSystem/encounter-type","code":"OKI"}]}],"subject":{"reference":"Patient/40795bb4-19f5-46ca-a5cc-8997c9d3781c"},"period":{"start":"2022-04-06T00:00:00+00:00","end":"2022-04-09T00:00:00+00:00"}},"request":{"method":"POST","url":"Encounter"}},{"fullUrl":"Encounter/a31a2e81-e550-42b5-8ba1-cc0d38cfc25d","resource":{"resourceType":"Encounter","id":"a31a2e81-e550-42b5-8ba1-cc0d38cfc25d","status":"finished","class":{"system":"http://terminology.hl7.org/CodeSystem/v3-ActCode","code":"IMP","display":"inpatient encounter"},"type":[{"coding":[{"system":"http://terminology.hl7.org/CodeSystem/encounter-type","code":"BD/BM-clin"}]}],"subject":{"reference":"Patient/40795bb4-19f5-46ca-a5cc-8997c9d3781c"},"period":{"start":"2022-10-17T00:00:00+00:00","end":"2022-10-24T00:00:00+00:00"}},"request":{"method":"POST","url":"Encounter"}},{"fullUrl":"Encounter/3d67fc28-aef4-44b7-94ea-c32f3883b1f9","resource":{"resourceType":"Encounter","id":"3d67fc28-aef4-44b7-94ea-c32f3883b1f9","status":"finished","class":{"system":"http://terminology.hl7.org/CodeSystem/v3-ActCode","code":"FLD","display":"field"},"type":[{"coding":[{"system":"http://terminology.hl7.org/CodeSystem/encounter-type","code":"ADMS"}]}],"subject":{"reference":"Patient/40795bb4-19f5-46ca-a5cc-8997c9d3781c"},"period":{"start":"2022-11-17T00:00:00+00:00","end":"2022-11-18T00:00:00+00:00"}},"request":{"method":"POST","url":"Encounter"}},{"fullUrl":"Encounter/c8a841fb-bc29-4d55-a300-031e2cd802e0","resource":{"resourceType":"Encounter","id":"c8a841fb-bc29-4d55-a300-031e2cd802e0","status":"finished","class":{"system":"http://terminology.hl7.org/CodeSystem/v3-ActCode","code":"AMB","display":"ambulatory"},"type":[{"coding":[{"system":"http://terminology.hl7.org/CodeSystem/encounter-type","code":"BD/BM-clin"}]}],"subject":{"reference":"Patient/40795bb4-19f5-46ca-a5cc-8997c9d3781c"},"period":{"start":"2022-09-01T00:00:00+00:00","end":"2022-09-08T00:00:00+00:00"}},"request":{"method":"POST","url":"Encounter"}},{"fullUrl":"Patient/176006f5-3a65-4e72-8949-0aeface4752b","resource":{"resourceType":"Patient","id":"176006f5-3a65-4e72-8949-0aeface4752b","identifier":[{"type":{"coding":[{"system":"http://terminology.hl7.org/CodeSystem/v2-0203","code":"MR"}]},"system":"urn:fhirgen:mrn","value":"533-41-9693"}],"name":[{"use":"official","family":"Willis","given":["Tammy"]},{"use":"maiden","family":"Brown"}],"telecom":[{"system":"phone","value":"001-555-861-3576","use":"home"},{"system":"email","value":"jessicanewton@yahoo.com","use":"mobile"}],"gender":"female","birthDate":"1961-11-06","address":[{"use":"home","line":["999 Timothy Circles"],"city":"Jacobside","state":"WA","postalCode":"03096"},{"use":"old","line":["431 Hobbs Unions"],"city":"South Christopher","state":"ND","postalCode":"82199"}]},"request":{"method":"POST","url":"Patient"}},{"fullUrl":"Observation/95b922ea-69b1-48ac-9ef2-087be28ca09a","resource":{"resourceType":"Observation","id":"95b922ea-69b1-48ac-9ef2-087be28ca09a","status":"final","code":{"coding":[{"system":"http://loinc.org","code":"50695-6"}]},"subject":{"reference":"Patient/176006f5-3a65-4e72-8949-0aeface4752b"},"effectiveDateTime":"2022-01-01T00:00:00+00:00","valueRatio":{"numerator":{"value":1},"denominator":{"value":4}}},"request":{"method":"POST","url":"Observation"}},{"fullUrl":"Observation/4024c800-9907-4814-8105-7bcb8273fa6d","resource":{"resourceType":"Observation","id":"4024c800-9907-4814-8105-7bcb8273fa6d","status":"final","code":{"coding":[{"system":"http://loinc.org","code":"26009-1"}]},"subject":{"reference":"Patient/176006f5-3a65-4e72-8949-0aeface4752b"},"effectiveDateTime":"2022-05-12T00:00:00+00:00","valueRatio":{"numerator":{"value":1},"denominator":{"value":32}}},"request":{"method":"POST","url":"Observation"}},{"fullUrl":"Observation/6d57944f-f7f6-484f-ab16-767f6956eb6b","resource":{"resourceType":"Observation","id":"6d57944f-f7f6-484f-ab16-767f6956eb6b","status":"final","code":{"coding":[{"system":"http://loinc.org","code":"50690-7"}]},"subject":{"reference":"Patient/176006f5-3a65-4e72-8949-0aeface4752b"},"effectiveDateTime":"2022-01-28T00:00:00+00:00","valueRatio":{"numerator":{"value":1},"denominator":{"value":64}}},"request":{"method":"POST","url":"Observation"}},{"fullUrl":"Condition/1e294792-e2dc-4003-8548-a55919e57e63","resource":{"resourceType":"Condition","id":"1e294792-e2dc-4003-8548-a55919e57e63","code":{"coding":[{"system":"http://snomed.info/sct","code":"198199009"}]},"subject":{"reference":"Patient/176006f5-3a65-4e72-8949-0aeface4752b"},"onsetDateTime":"2022-02-12T00:00:00+00:00"},"request":{"method":"POST","url":"Condition"}},{"fullUrl":"Condition/b8c6938f-18f1-4d48-92ef-9612063c81ab","resource":{"resourceType":"Condition","id":"b8c6938f-18f1-4d48-92ef-9612063c81ab","code":{"coding":[{"system":"http://snomed.info/sct","code":"18165001"}]},"subject":{"reference":"Patient/176006f5-3a65-4e72-8949-0aeface4752b"},"onsetDateTime":"2022-07-13T00:00:00+00:00"},"request":{"method":"POST","url":"Condition"}},{"fullUrl":"Condition/90346cfd-481a-4140-bae0-aabebaf6ec39","resource":{"resourceType":"Condition","id":"90346cfd-481a-4140-bae0-aabebaf6ec39","code":{"coding":[{"system":"http://snomed.info/sct","code":"736686006"}]},"subject":{"reference":"Patient/176006f5-3a65-4e72-8949-0aeface4752b"},"onsetDateTime":"2022-03-07T00:00:00+00:00"},"request":{"method":"POST","url":"Condition"}},{"fullUrl":"Condition/733598d1-f98e-4fd2-852a-406d7f6c5693","resource":{"resourceType":"Condition","id":"733598d1-f98e-4fd2-852a-406d7f6c5693","code":{"coding":[{"system":"http://snomed.info/sct","code":"56317004"}]},"subject":{"reference":"Patient/176006f5-3a65-4e72-8949-0aeface4752b"},"onsetDateTime":"2022-05-16T00:00:00+00:00"},"request":{"method":"POST","url":"Condition"}},{"fullUrl":"Condition/980acdd0-0548-40e0-a1a6-1f3e104a32cf","resource":{"resourceType":"Condition","id":"980acdd0-0548-40e0-a1a6-1f3e104a32cf","code":{"coding":[{"system":"http://snomed.info/sct","code":"297123002"}]},"subject":{"reference":"Patient/176006f5-3a65-4e72-8949-0aeface4752b"},"onsetDateTime":"2022-06-13T00:00:00+00:00"},"request":{"method":"POST","url":"Condition"}},{"fullUrl":"Condition/06d1009d-32b0-44fe-9af7-fbcd01edb058","resource":{"resourceType":"Condition","id":"06d1009d-32b0-44fe-9af7-fbcd01edb058","code":{"coding":[{"system":"http://snomed.info/sct","code":"297123002"}]},"subject":{"reference":"Patient/176006f5-3a65-4e72-8949-0aeface4752b"},"onsetDateTime":"2022-05-30T00:00:00+00:00"},"request":{"method":"POST","url":"Condition"}},{"fullUrl":"Condition/1f5d10d9-6c02-4268-8614-88133c345df1","resource":{"resourceType":"Condition","id":"1f5d10d9-6c02-4268-8614-88133c345df1","code":{"coding":[{"system":"http://snomed.info/sct","code":"79342006"}]},"subject":{"reference":"Patient/176006f5-3a65-4e72-8949-0aeface4752b"},"onsetDateTime":"2022-01-30T00:00:00+00:00"},"request":{"method":"POST","url":"Condition"}},{"fullUrl":"Observation/0955ed9c-ec1e-4ff1-8169-c39e53dd6d7a","resource":{"resourceType":"Observation","id":"0955ed9c-ec1e-4ff1-8169-c39e53dd6d7a","status":"final","code":{"coding":[{"system":"http://loinc.org","code":"26464-8"}]},"subject":{"reference":"Patient/176006f5-3a65-4e72-8949-0aeface4752b"},"effectiveDateTime":"2022-06-16T00:00:00+00:00","valueQuantity":{"value":8.8}},"request":{"method":"POST","url":"Observation"}},{"fullUrl":"Observation/8579539d-3cff-4185-865e-8ef437ef7eaa","resource":{"resourceType":"Observation","id":"8579539d-3cff-4185-865e-8ef437ef7eaa","status":"final","code":{"coding":[{"system":"http://loinc.org","code":"49498-9"}]},"subject":{"reference":"Patient/176006f5-3a65-4e72-8949-0aeface4752b"},"effectiveDateTime":"2022-01-16T00:00:00+00:00","valueQuantity":{"value":10}},"request":{"method":"POST","url":"Observation"}},{"fullUrl":"Observation/417fe7ce-3db2-45e4-95b2-6f9d1e818862","resource":{"resourceType":"Observation","id":"417fe7ce-3db2-45e4-95b2-6f9d1e818862","status":"final","code":{"coding":[{"system":"http://loinc.org","code":"49498-9"}]},"subject":{"reference":"Patient/176006f5-3a65-4e72-8949-0aeface4752b"},"effectiveDateTime":"2022-06-11T00:00:00+00:00","valueQuantity":{"value":6.3}},"request":{"method":"POST","url":"Observation"}},{"fullUrl":"Observation/f3fb86f9-fcf9-4d70-98c7-1f324c2c2ea7","resource":{"resourceType":"Observation","id":"f3fb86f9-fcf9-4d70-98c7-1f324c2c2ea7","status":"final","code":{"coding":[{"system":"http://loinc.org","code":"49498-9"}]},"subject":{"reference":"Patient/176006f5-3a65-4e72-8949-0aeface4752b"},"effectiveDateTime":"2022-12-02T00:00:00+00:00"},"request":{"method":"POST","url":"Observation"}},{"fullUrl":"Observation/fe43fd70-7b10-44c4-b973-4be925e18524","resource":{"resourceType":"Observation","id":"fe43fd70-7b10-44c4-b973-4be925e18524","status":"final","code":{"coding":[{"system":"http://loinc.org","code":"49498-9"}]},"subject":{"reference":"Patient/176006f5-3a65-4e72-8949-0aeface4752b"},"effectiveDateTime":"2022-05-06T00:00:00+00:00"},"request":{"method":"POST","url":"Observation"}},{"fullUrl":"Procedure/2f02f247-4c06-490c-93ab-a9b2671ae655","resource":{"resourceType":"Procedure","id":"2f02f247-4c06-490c-93ab-a9b2671ae655","status":"completed","code":{"coding":[{"system":"http://snomed.info/sct","code":"647000"}]},"subject":{"reference":"Patient/176006f5-3a65-4e72-8949-0aeface4752b"},"performedDateTime":"2022-03-16T00:00:00+00:00"},"request":{"method":"POST","url":"Procedure"}},{"fullUrl":"Procedure/d656f1d2-1c8a-475e-b7b9-0fccae6dea73","resource":{"resourceType":"Procedure","id":"d656f1d2-1c8a-475e-b7b9-0fccae6dea73","status":"completed","code":{"coding":[{"system":"http://snomed.info/sct","code":"104001"}]},"subject":{"reference":"Patient/176006f5-3a65-4e72-8949-0aeface4752b"},"performedDateTime":"2022-02-27T00:00:00+00:00"},"request":{"method":"POST","url":"Procedure"}},{"fullUrl":"Procedure/caf2de74-7e32-49c6-8337-ff17b56ce958","resource":{"resourceType":"Procedure","id":"caf2de74-7e32-49c6-8337-ff17b56ce958","status":"completed","code":{"coding":[{"system":"http://snomed.info/sct","code":"146005"}]},"subject":{"reference":"Patient/176006f5-3a65-4e72-8949-0aeface4752b"},"performedDateTime":"2022-10-21T00:00:00+00:00"},"request":{"method":"POST","url":"Procedure"}},{"fullUrl":"MedicationStatement/9fb53c91-89f2-42ec-8275-5b19e52d69fc","resource":{"resourceType":"MedicationStatement","id":"9fb53c91-89f2-42ec-8275-5b19e52d69fc","status":"completed","medicationCodeableConcept":{"coding":[{"system":"http://www.nlm.nih.gov/research/umls/rxnorm","code":"7980"}]},"subject":{"reference":"Patient/176006f5-3a65-4e72-8949-0aeface4752b"},"effectiveDateTime":"2022-02-17T00:00:00+00:00","dosage":[{"doseAndRate":[{"doseQuantity":{"value":2,"unit":"TAB","system":"http://terminology.hl7.org/CodeSystem/v3-orderableDrugForm","code":"TAB"}}]}]},"request":{"method":"POST","url":"MedicationStatement"}},{"fullUrl":"MedicationStatement/c4fb6d5d-f5a4-4cc5-b168-b582844a5d9d","resource":{"resourceType":"MedicationStatement","id":"c4fb6d5d-f5a4-4cc5-b168-b582844a5d9d","status":"completed","medicationCodeableConcept":{"coding":[{"system":"http://www.nlm.nih.gov/research/umls/rxnorm","code":"7980"}]},"subject":{"reference":"Patient/176006f5-3a65-4e72-8949-0aeface4752b"},"effectiveDateTime":"2022-09-04T00:00:00+00:00","dosage":[{"doseAndRate":[{"doseQuantity":{"value":2,"unit":"TAB","system":"http://terminology.hl7.org/CodeSystem/v3-orderableDrugForm","code":"TAB"}}]}]},"request":{"method":"POST","url":"MedicationStatement"}},{"fullUrl":"MedicationStatement/76f66787-1e57-4fff-86c3-2d8a2a14c307","resource":{"resourceType":"MedicationStatement","id":"76f66787-1e57-4fff-86c3-2d8a2a14c307","status":"completed","medicationCodeableConcept":{"coding":[{"system":"http://www.nlm.nih.gov/research/umls/rxnorm","code":"2193"}]},"subject":{"reference":"Patient/176006f5-3a65-4e72-8949-0aeface4752b"},"effectiveDateTime":"2022-10-31T00:00:00+00:00","dosage":[{"doseAndRate":[{"doseQuantity":{"value":2,"unit":"TAB","system":"http://terminology.hl7.org/CodeSystem/v3-orderableDrugForm","code":"TAB"}}]}]},"request":{"method":"POST","url":"MedicationStatement"}},{"fullUrl":"MedicationStatement/db147303-b849-41e6-ae3b-407f734135a8","resource":{"resourceType":"MedicationStatement","id":"db147303-b849-41e6-ae3b-407f734135a8","status":"completed","medicationCodeableConcept":{"coding":[{"system":"http://www.nlm.nih.gov/research/umls/rxnorm","code":"7980"}]},"subject":{"reference":"Patient/176006f5-3a65-4e72-8949-0aeface4752b"},"effectiveDateTime":"2022-04-08T00:00:00+00:00","dosage":[{"doseAndRate":[{"doseQuantity":{"value":2,"unit":"TAB","system":"http://terminology.hl7.org/CodeSystem/v3-orderableDrugForm","code":"TAB"}}]}]},"request":{"method":"POST","url":"MedicationStatement"}},{"fullUrl":"MedicationStatement/03f1d07b-1ea8-4e1f-8900-02395ded6eb0","resource":{"resourceType":"MedicationStatement","id":"03f1d07b-1ea8-4e1f-8900-02395ded6eb0","status":"completed","medicationCodeableConcept":{"coding":[{"system":"http://www.nlm.nih.gov/research/umls/rxnorm","code":"2193"}]},"subject":{"reference":"Patient/176006f5-3a65-4e72-8949-0aeface4752b"},"effectiveDateTime":"2022-06-09T00:00:00+00:00","dosage":[{"doseAndRate":[{"doseQuantity":{"value":2,"unit":"TAB","system":"http://terminology.hl7.org/CodeSystem/v3-orderableDrugForm","code":"TAB"}}]}]},"request":{"method":"POST","url":"MedicationStatement"}},{"fullUrl":"MedicationStatement/8ef18882-7505-4d9b-8655-b86d67ad2b53","resource":{"resourceType":"MedicationStatement","id":"8ef18882-7505-4d9b-8655-b86d67ad2b53","status":"completed","medicationCodeableConcept":{"coding":[{"system":"http://www.nlm.nih.gov/research/umls/rxnorm","code":"2193"}]},"subject":{"reference":"Patient/176006f5-3a65-4e72-8949-0aeface4752b"},"effectiveDateTime":"2022-06-11T00:00:00+00:00","dosage":[{"doseAndRate":[{"doseQuantity":{"value":6.7,"unit":"TAB","system":"http://terminology.hl7.org/CodeSystem/v3-orderableDrugForm","code":"TAB"}}]}]},"request":{"method":"POST","url":"MedicationStatement"}},{"fullUrl":"MedicationStatement/4df55cbe-603b-452e-823f-1cead1ddcdfa","resource":{"resourceType":"MedicationStatement","id":"4df55cbe-603b-452e-823f-1cead1ddcdfa","status":"completed","medicationCodeableConcept":{"coding":[{"system":"http://www.nlm.nih.gov/research/umls/rxnorm","code":"18631"}]},"subject":{"reference":"Patient/176006f5-3a65-4e72-8949-0aeface4752b"},"effectiveDateTime":"2022-04-02T00:00:00+00:00","dosage":[{"doseAndRate":[{"doseQuantity":{"value":5.6,"unit":"TAB","system":"http://terminology.hl7.org/CodeSystem/v3-orderableDrugForm","code":"TAB"}}]}]},"request":{"method":"POST","url":"MedicationStatement"}},{"fullUrl":"MedicationStatement/bb424d1e-acee-45d1-83d6-5e7f7a6874ea","resource":{"resourceType":"MedicationStatement","id":"bb424d1e-acee-45d1-83d6-5e7f7a6874ea","status":"completed","medicationCodeableConcept":{"coding":[{"system":"http://www.nlm.nih.gov/research/umls/rxnorm","code":"10395"}]},"subject":{"reference":"Patient/176006f5-3a65-4e72-8949-0aeface4752b"},"effectiveDateTime":"2022-12-19T00:00:00+00:00","dosage":[{"doseAndRate":[{"doseQuantity":{"value":6,"unit":"TAB","system":"http://terminology.hl7.org/CodeSystem/v3-orderableDrugForm","code":"TAB"}}]}]},"request":{"method":"POST","url":"MedicationStatement"}},{"fullUrl":"MedicationStatement/9f1a0310-18df-486a-8ada-0064096a12d5","resource":{"resourceType":"MedicationStatement","id":"9f1a0310-18df-486a-8ada-0064096a12d5","status":"completed","medicationCodeableConcept":{"coding":[{"system":"http://www.nlm.nih.gov/research/umls/rxnorm","code":"8698"}]},"subject":{"reference":"Patient/176006f5-3a65-4e72-8949-0aeface4752b"},"effectiveDateTime":"2022-02-19T00:00:00+00:00","dosage":[{"doseAndRate":[{"doseQuantity":{"value":3.7,"unit":"TAB","system":"http://terminology.hl7.org/CodeSystem/v3-orderableDrugForm","code":"TAB"}}]}]},"request":{"method":"POST","url":"MedicationStatement"}},{"fullUrl":"Encounter/4cb586a4-89d7-4082-8b20-88abecb69b95","resource":{"resourceType":"Encounter","id":"4cb586a4-89d7-4082-8b20-88abecb69b95","status":"finished","class":{"system":"http://terminology.hl7.org/CodeSystem/v3-ActCode","code":"IMP","display":"inpatient encounter"},"type":[{"coding":[{"system":"http://terminology.hl7.org/CodeSystem/encounter-type","code":"CCS60"}]}],"subject":{"reference":"Patient/176006f5-3a65-4e72-8949-0aeface4752b"},"period":{"start":"2022-01-26T00:00:00+00:00","end":"2022-02-02T00:00:00+00:00"}},"request":{"method":"POST","url":"Encounter"}},{"fullUrl":"Encounter/20137e21-da9c-46e5-8174-3b0e4e269bf2","resource":{"resourceType":"Encounter","id":"20137e21-da9c-46e5-8174-3b0e4e269bf2","status":"finished","class":{"system":"http://terminology.hl7.org/CodeSystem/v3-ActCode","code":"IMP","display":"inpatient encounter"},"type":[{"coding":[{"system":"http://terminology.hl7.org/CodeSystem/encounter-type","code":"OKI"}]}],"subject":{"reference":"Patient/176006f5-3a65-4e72-8949-0aeface4752b"},"period":{"start":"2022-03-11T00:00:00+00:00","end":"2022-03-17T00:00:00+00:00"}},"request":{"method":"POST","url":"Encounter"}},{"fullUrl":"Encounter/cf0fd37c-ea3a-483c-af3e-00ed27ebc3b5","resource":{"resourceType":"Encounter","id":"cf0fd37c-ea3a-483c-af3e-00ed27ebc3b5","status":"finished","class":{"system":"http://terminology.hl7.org/CodeSystem/v3-ActCode","code":"IMP","display":"inpatient encounter"},"type":[{"coding":[{"system":"http://terminology.hl7.org/CodeSystem/encounter-type","code":"BD/BM-clin"}]}],"subject":{"reference":"Patient/176006f5-3a65-4e72-8949-0aeface4752b"},"period":{"start":"2022-05-25T00:00:00+00:00","end":"2022-05-26T00:00:00+00:00"}},"request":{"method":"POST","url":"Encounter"}},{"fullUrl":"Encounter/ff40b055-fc14-49f2-a537-4cdbe0a167f1","resource":{"resourceType":"Encounter","id":"ff40b055-fc14-49f2-a537-4cdbe0a167f1","status":"finished","class":{"system":"http://terminology.hl7.org/CodeSystem/v3-ActCode","code":"EMER","display":"emergency"},"type":[{"coding":[{"system":"http://terminology.hl7.org/CodeSystem/encounter-type","code":"ADMS"}]}],"subject":{"reference":"Patient/176006f5-3a65-4e72-8949-0aeface4752b"},"period":{"start":"2022-02-16T00:00:00+00:00","end":"2022-02-24T00:00:00+00:00"}},"request":{"method":"POST","url":"Encounter"}},{"fullUrl":"Encounter/ca4d8512-6ba5-4e72-8a77-04c12205a778","resource":{"resourceType":"Encounter","id":"ca4d8512-6ba5-4e72-8a77-04c12205a778","status":"finished","class":{"system":"http://terminology.hl7.org/CodeSystem/v3-ActCode","code":"IMP","display":"inpatient encounter"},"type":[{"coding":[{"system":"http://terminology.hl7.org/CodeSystem/encounter-type","code":"BD/BM-clin"}]}],"subject":{"reference":"Patient/176006f5-3a65-4e72-8949-0aeface4752b"},"period":{"start":"2022-06-28T00:00:00+00:00","end":"2022-06-29T00:00:00+00:00"}},"request":{"method":"POST","url":"Encounter"}},{"fullUrl":"Patient/85db1930-b776-4834-9bf2-2825477b9780","resource":{"resourceType":"Patient","id":"85db1930-b776-4834-9bf2-2825477b9780","identifier":[{"type":{"coding":[{"system":"http://terminology.hl7.org/CodeSystem/v2-0203","code":"MR"}]},"system":"urn:fhirgen:mrn","value":"360-13-3751"}],"name":[{"use":"official","family":"Bradley","given":["Sarah"]},{"use":"maiden","family":"Lyons"}],"telecom":[{"system":"phone","value":"(308)943-2722x8691","use":"home"},{"system":"email","value":"lindseyjeremy@yahoo.com","use":"home"}],"gender":"female","birthDate":"1997-07-14","address":[{"use":"home","line":["280 Richard Crossroad Apt. 701"],"city":"East Taylorhaven","state":"WA","postalCode":"64132"},{"use":"old","line":["005 Valdez Lights"],"city":"East Ashleyside","state":"ND","postalCode":"13225"}]},"request":{"method":"POST","url":"Patient"}},{"fullUrl":"Observation/7c7a9028-8498-44ff-8503-85a75169bce6","resource":{"resourceType":"Observation","id":"7c7a9028-8498-44ff-8503-85a75169bce6","status":"final","code":{"coding":[{"system":"http://loinc.org","code":"47235-7"}]},"subject":{"reference":"Patient/85db1930-b776-4834-9bf2-2825477b9780"},"effectiveDateTime":"2022-02-24T00:00:00+00:00","valueRatio":{"numerator":{"value":1},"denominator":{"value":32}}},"request":{"method":"POST","url":"Observation"}},{"fullUrl":"Observation/b36d3049-1d33-45a8-9dc9-25a926b7908c","resource":{"resourceType":"Observation","id":"b36d3049-1d33-45a8-9dc9-25a926b7908c","status":"final","code":{"coding":[{"system":"http://loinc.org","code":"51475-2"}]},"subject":{"reference":"Patient/85db1930-b776-4834-9bf2-2825477b9780"},"effectiveDateTime":"2022-06-24T00:00:00+00:00","valueRatio":{"numerator":{"value":1},"denominator":{"value":4}}},"request":{"method":"POST","url":"Observation"}},{"fullUrl":"Observation/a4cf8ca9-b903-4b10-8b82-d849e215dceb","resource":{"resourceType":"Observation","id":"a4cf8ca9-b903-4b10-8b82-d849e215dceb","status":"final","code":{"coding":[{"system":"http://loinc.org","code":"47235-7"}]},"subject":{"reference":"Patient/85db1930-b776-4834-9bf2-2825477b9780"},"effectiveDateTime":"2022-02-05T00:00:00+00:00","valueRatio":{"numerator":{"value":1},"denominator":{"value":64}}},"request":{"method":"POST","url":"Observation"}},{"fullUrl":"Condition/1543f559-9e21-42de-bc30-eeb2c759fc84","resource":{"resourceType":"Condition","id":"1543f559-9e21-42de-bc30-eeb2c759fc84","code":{"coding":[{"system":"http://snomed.info/sct","code":"30746006"}]},"subject":{"reference":"Patient/85db1930-b776-4834-9bf2-2825477b9780"},"onsetDateTime":"2022-05-16T00:00:00+00:00"},"request":{"method":"POST","url":"Condition"}},{"fullUrl":"Condition/82cc6fd9-0423-4031-83d4-0336173db971","resource":{"resourceType":"Condition","id":"82cc6fd9-0423-4031-83d4-0336173db971","code":{"coding":[{"system":"http://snomed.info/sct","code":"56317004"}]},"subject":{"reference":"Patient/85db1930-b776-4834-9bf2-2825477b9780"},"onsetDateTime":"2022-10-15T00:00:00+00:00"},"request":{"method":"POST","url":"Condition"}},{"fullUrl":"Condition/1cb0f826-9daf-4ca6-910d-d6efe21e12cd","resource":{"resourceType":"Condition","id":"1cb0f826-9daf-4ca6-910d-d6efe21e12cd","code":{"coding":[{"system":"http://snomed.info/sct","code":"248980004"}]},"subject":{"reference":"Patient/85db1930-b776-4834-9bf2-2825477b9780"},"onsetDateTime":"2022-11-01T00:00:00+00:00"},"request":{"method":"POST","url":"Condition"}},{"fullUrl":"Condition/dde287f3-de9d-4886-9a4f-eafefcc8d7d6","resource":{"resourceType":"Condition","id":"dde287f3-de9d-4886-9a4f-eafefcc8d7d6","code":{"coding":[{"system":"http://snomed.info/sct","code":"386661006"}]},"subject":{"reference":"Patient/85db1930-b776-4834-9bf2-2825477b9780"},"onsetDateTime":"2022-05-13T00:00:00+00:00"},"request":{"method":"POST","url":"Condition"}},{"fullUrl":"Condition/afd78345-2a81-40bc-b395-4147fec3db77","resource":{"resourceType":"Condition","id":"afd78345-2a81-40bc-b395-4147fec3db77","code":{"coding":[{"system":"http://snomed.info/sct","code":"31070006"}]},"subject":{"reference":"Patient/85db1930-b776-4834-9bf2-2825477b9780"},"onsetDateTime":"2022-07-17T00:00:00+00:00"},"request":{"method":"POST","url":"Condition"}},{"fullUrl":"Observation/fc754d72-5634-4b28-9ed5-3cdd2266fcb8","resource":{"resourceType":"Observation","id":"fc754d72-5634-4b28-9ed5-3cdd2266fcb8","status":"final","code":{"coding":[{"system":"http://loinc.org","code":"49498-9"}]},"subject":{"reference":"Patient/85db1930-b776-4834-9bf2-2825477b9780"},"effectiveDateTime":"2022-09-24T00:00:00+00:00","valueQuantity":{"value":10.5}},"request":{"method":"POST","url":"Observation"}},{"fullUrl":"Observation/7fbaedfb-a929-4fc5-a1dc-f522273379e9","resource":{"resourceType":"Observation","id":"7fbaedfb-a929-4fc5-a1dc-f522273379e9","status":"final","code":{"coding":[{"system":"http://loinc.org","code":"49498-9"}]},"subject":{"reference":"Patient/85db1930-b776-4834-9bf2-2825477b9780"},"effectiveDateTime":"2022-04-12T00:00:00+00:00","valueQuantity":{"value":8.2}},"request":{"method":"POST","url":"Observation"}},{"fullUrl":"Observation/665442d3-d8f4-4175-a11a-e944321d242d","resource":{"resourceType":"Observation","id":"665442d3-d8f4-4175-a11a-e944321d242d","status":"final","code":{"coding":[{"system":"http://loinc.org","code":"49498-9"}]},"subject":{"reference":"Patient/85db1930-b776-4834-9bf2-2825477b9780"},"effectiveDateTime":"2022-03-05T00:00:00+00:00"},"request":{"method":"POST","url":"Observation"}},{"fullUrl":"Observation/ad834c2e-2875-4c9b-a53a-57c8cf0a4a5b","resource":{"resourceType":"Observation","id":"ad834c2e-2875-4c9b-a53a-57c8cf0a4a5b","status":"final","code":{"coding":[{"system":"http://loinc.org","code":"49498-9"}]},"subject":{"reference":"Patient/85db1930-b776-4834-9bf2-2825477b9780"},"effectiveDateTime":"2022-11-30T00:00:00+00:00"},"request":{"method":"POST","url":"Observation"}},{"fullUrl":"Procedure/08812f5c-bf89-4816-948f-dcfb492f0ab3","resource":{"resourceType":"Procedure","id":"08812f5c-bf89-4816-948f-dcfb492f0ab3","status":"completed","code":{"coding":[{"system":"http://snomed.info/sct","code":"104001"}]},"subject":{"reference":"Patient/85db1930-b776-4834-9bf2-2825477b9780"},"performedDateTime":"2022-04-12T00:00:00+00:00"},"request":{"method":"POST","url":"Procedure"}},{"fullUrl":"Procedure/f5ca8197-b966-4407-bf9f-11d7892948a2","resource":{"resourceType":"Procedure","id":"f5ca8197-b966-4407-bf9f-11d7892948a2","status":"completed","code":{"coding":[{"system":"http://snomed.info/sct","code":"647000"}]},"subject":{"reference":"Patient/85db1930-b776-4834-9bf2-2825477b9780"},"performedDateTime":"2022-11-29T00:00:00+00:00"},"request":{"method":"POST","url":"Procedure"}},{"fullUrl":"Procedure/14bbc9d9-f930-4b6b-9b52-52a1c35cfeef","resource":{"resourceType":"Procedure","id":"14bbc9d9-f930-4b6b-9b52-52a1c35cfeef","status":"completed","code":{"coding":[{"system":"http://snomed.info/sct","code":"115006"}]},"subject":{"reference":"Patient/85db1930-b776-4834-9bf2-2825477b9780"},"performedDateTime":"2022-09-26T00:00:00+00:00"},"request":{"method":"POST","url":"Procedure"}},{"fullUrl":"MedicationStatement/16f82487-a2a1-4af1-ae2f-acbe159554da","resource":{"resourceType":"MedicationStatement","id":"16f82487-a2a1-4af1-ae2f-acbe159554da","status":"completed","medicationCodeableConcept":{"coding":[{"system":"http://www.nlm.nih.gov/research/umls/rxnorm","code":"7984"}]},"subject":{"reference":"Patient/85db1930-b776-4834-9bf2-2825477b9780"},"effectiveDateTime":"2022-11-30T00:00:00+00:00","dosage":[{"doseAndRate":[{"doseQuantity":{"value":1,"unit":"TAB","system":"http://terminology.hl7.org/CodeSystem/v3-orderableDrugForm","code":"TAB"}}]}]},"request":{"method":"POST","url":"MedicationStatement"}},{"fullUrl":"MedicationStatement/707e0d24-13a6-49ab-a026-4bc86579279e","resource":{"resourceType":"MedicationStatement","id":"707e0d24-13a6-49ab-a026-4bc86579279e","status":"completed","medicationCodeableConcept":{"coding":[{"system":"http://www.nlm.nih.gov/research/umls/rxnorm","code":"8698"}]},"subject":{"reference":"Patient/85db1930-b776-4834-9bf2-2825477b9780"},"effectiveDateTime":"2022-02-03T00:00:00+00:00","dosage":[{"doseAndRate":[{"doseQuantity":{"value":1,"unit":"TAB","system":"http://terminology.hl7.org/CodeSystem/v3-orderableDrugForm","code":"TAB"}}]}]},"request":{"method":"POST","url":"MedicationStatement"}},{"fullUrl":"MedicationStatement/df9ecd17-265c-4d5a-949a-d03162f64d9c","resource":{"resourceType":"MedicationStatement","id":"df9ecd17-265c-4d5a-949a-d03162f64d9c","status":"completed","medicationCodeableConcept":{"coding":[{"system":"http://www.nlm.nih.gov/research/umls/rxnorm","code":"18631"}]},"subject":{"reference":"Patient/85db1930-b776-4834-9bf2-2825477b9780"},"effectiveDateTime":"2022-02-08T00:00:00+00:00","dosage":[{"doseAndRate":[{"doseQuantity":{"value":2,"unit":"TAB","system":"http://terminology.hl7.org/CodeSystem/v3-orderableDrugForm","code":"TAB"}}]}]},"request":{"method":"POST","url":"MedicationStatement"}},{"fullUrl":"MedicationStatement/e921118b-7c46-493b-bf71-61caaed436f2","resource":{"resourceType":"MedicationStatement","id":"e921118b-7c46-493b-bf71-61caaed436f2","status":"completed","medicationCodeableConcept":{"coding":[{"system":"http://www.nlm.nih.gov/research/umls/rxnorm","code":"8698"}]},"subject":{"reference":"Patient/85db1930-b776-4834-9bf2-2825477b9780"},"effectiveDateTime":"2022-01-15T00:00:00+00:00","dosage":[{"doseAndRate":[{"doseQuantity":{"value":5,"unit":"TAB","system":"http://terminology.hl7.org/CodeSystem/v3-orderableDrugForm","code":"TAB"}}]}]},"request":{"method":"POST","url":"MedicationStatement"}},{"fullUrl":"MedicationStatement/b7155849-bc74-4cb4-9c68-2229f539bd56","resource":{"resourceType":"MedicationStatement","id":"b7155849-bc74-4cb4-9c68-2229f539bd56","status":"completed","medicationCodeableConcept":{"coding":[{"system":"http://www.nlm.nih.gov/research/umls/rxnorm","code":"7980"}]},"subject":{"reference":"Patient/85db1930-b776-4834-9bf2-2825477b9780"},"effectiveDateTime":"2022-05-31T00:00:00+00:00","dosage":[{"doseAndRate":[{"doseQuantity":{"value":6.7,"unit":"TAB","system":"http://terminology.hl7.org/CodeSystem/v3-orderableDrugForm","code":"TAB"}}]}]},"request":{"method":"POST","url":"MedicationStatement"}},{"fullUrl":"MedicationStatement/abd64968-6ab7-40cf-ad1d-049e378ebbee","resource":{"resourceType":"MedicationStatement","id":"abd64968-6ab7-40cf-ad1d-049e378ebbee","status":"completed","medicationCodeableConcept":{"coding":[{"system":"http://www.nlm.nih.gov/research/umls/rxnorm","code":"8698"}]},"subject":{"reference":"Patient/85db1930-b776-4834-9bf2-2825477b9780"},"effectiveDateTime":"2022-11-12T00:00:00+00:00","dosage":[{"doseAndRate":[{"doseQuantity":{"value":5.4,"unit":"TAB","system":"http://terminology.hl7.org/CodeSystem/v3-orderableDrugForm","code":"TAB"}}]}]},"request":{"method":"POST","url":"MedicationStatement"}},{"fullUrl":"MedicationStatement/6df7b8e2-c9e8-4ae7-9bb6-5030547774ea","resource":{"resourceType":"MedicationStatement","id":"6df7b8e2-c9e8-4ae7-9bb6-5030547774ea","status":"completed","medicationCodeableConcept":{"coding":[{"system":"http://www.nlm.nih.gov/research/umls/rxnorm","code":"3640"}]},"subject":{"reference":"Patient/85db1930-b776-4834-9bf2-2825477b9780"},"effectiveDateTime":"2022-12-09T00:00:00+00:00","dosage":[{"doseAndRate":[{"doseQuantity":{"value":5.4,"unit":"TAB","system":"http://terminology.hl7.org/CodeSystem/v3-orderableDrugForm","code":"TAB"}}]}]},"request":{"method":"POST","url":"MedicationStatement"}},{"fullUrl":"MedicationStatement/c198af83-904d-4d13-afb4-aa0ee87a8abd","resource":{"resourceType":"MedicationStatement","id":"c198af83-904d-4d13-afb4-aa0ee87a8abd","status":"completed","medicationCodeableConcept":{"coding":[{"system":"http://www.nlm.nih.gov/research/umls/rxnorm","code":"8698"}]},"subject":{"reference":"Patient/85db1930-b776-4834-9bf2-2825477b9780"},"effectiveDateTime":"2022-08-09T00:00:00+00:00","dosage":[{"doseAndRate":[{"doseQuantity":{"value":5,"unit":"TAB","system":"http://terminology.hl7.org/CodeSystem/v3-orderableDrugForm","code":"TAB"}}]}]},"request":{"method":"POST","url":"MedicationStatement"}},{"fullUrl":"MedicationStatement/82ab7e7d-e6a9-489e-9e24-48bc95177867","resource":{"resourceType":"MedicationStatement","id":"82ab7e7d-e6a9-489e-9e24-48bc95177867","status":"completed","medicationCodeableConcept":{"coding":[{"system":"http://www.nlm.nih.gov/research/umls/rxnorm","code":"3640"}]},"subject":{"reference":"Patient/85db1930-b776-4834-9bf2-2825477b9780"},"effectiveDateTime":"2022-07-12T00:00:00+00:00","dosage":[{"doseAndRate":[{"doseQuantity":{"value":6.1,"unit":"TAB","system":"http://terminology.hl7.org/CodeSystem/v3-orderableDrugForm","code":"TAB"}}]}]},"request":{"method":"POST","url":"MedicationStatement"}},{"fullUrl":"MedicationStatement/5476fc60-c670-4a7e-89da-8296bc79822c","resource":{"resourceType":"MedicationStatement","id":"5476fc60-c670-4a7e-89da-8296bc79822c","status":"completed","medicationCodeableConcept":{"coding":[{"system":"http://www.nlm.nih.gov/research/umls/rxnorm","code":"2193"}]},"subject":{"reference":"Patient/85db1930-b776-4834-9bf2-2825477b9780"},"effectiveDateTime":"2022-01-26T00:00:00+00:00","dosage":[{"doseAndRate":[{"doseQuantity":{"value":4.9,"unit":"TAB","system":"http://terminology.hl7.org/CodeSystem/v3-orderableDrugForm","code":"TAB"}}]}]},"request":{"method":"POST","url":"MedicationStatement"}},{"fullUrl":"MedicationStatement/d50d1198-5ebe-478a-93bf-d8d5b0afed99","resource":{"resourceType":"MedicationStatement","id":"d50d1198-5ebe-478a-93bf-d8d5b0afed99","status":"completed","medicationCodeableConcept":{"coding":[{"system":"http://www.nlm.nih.gov/research/umls/rxnorm","code":"7984"}]},"subject":{"reference":"Patient/85db1930-b776-4834-9bf2-2825477b9780"},"effectiveDateTime":"2022-03-17T00:00:00+00:00","dosage":[{"doseAndRate":[{"doseQuantity":{"value":3.8,"unit":"TAB","system":"http://terminology.hl7.org/CodeSystem/v3-orderableDrugForm","code":"TAB"}}]}]},"request":{"method":"POST","url":"MedicationStatement"}},{"fullUrl":"Encounter/bd2bc01e-cf11-4249-b50c-b461f59e2ff1","resource":{"resourceType":"Encounter","id":"bd2bc01e-cf11-4249-b50c-b461f59e2ff1","status":"finished","class":{"system":"http://terminology.hl7.org/CodeSystem/v3-ActCode","code":"IMP","display":"inpatient encounter"},"type":[{"coding":[{"system":"http://terminology.hl7.org/CodeSystem/encounter-type","code":"OKI"}]}],"subject":{"reference":"Patient/85db1930-b776-4834-9bf2-2825477b9780"},"period":{"start":"2022-03-12T00:00:00+00:00","end":"2022-03-21T00:00:00+00:00"}},"request":{"method":"POST","url":"Encounter"}},{"fullUrl":"Encounter/48074365-5405-4d0a-bf8c-3b6c5a104c20","resource":{"resourceType":"Encounter","id":"48074365-5405-4d0a-bf8c-3b6c5a104c20","status":"finished","class":{"system":"http://terminology.hl7.org/CodeSystem/v3-ActCode","code":"IMP","display":"inpatient encounter"},"type":[{"coding":[{"system":"http://terminology.hl7.org/CodeSystem/encounter-type","code":"BD/BM-clin"}]}],"subject":{"reference":"Patient/85db1930-b776-4834-9bf2-2825477b9780"},"period":{"start":"2022-12-30T00:00:00+00:00","end":"2023-01-04T00:00:00+00:00"}},"request":{"method":"POST","url":"Encounter"}},{"fullUrl":"Encounter/a666a9da-654e-4e76-9c88-3f273e4f51a2","resource":{"resourceType":"Encounter","id":"a666a9da-654e-4e76-9c88-3f273e4f51a2","status":"finished","class":{"system":"http://terminology.hl7.org/CodeSystem/v3-ActCode","code":"HH","display":"home health"},"type":[{"coding":[{"system":"http://terminology.hl7.org/CodeSystem/encounter-type","code":"ADMS"}]}],"subject":{"reference":"Patient/85db1930-b776-4834-9bf2-2825477b9780"},"period":{"start":"2022-03-06T00:00:00+00:00","end":"2022-03-12T00:00:00+00:00"}},"request":{"method":"POST","url":"Encounter"}},{"fullUrl":"Encounter/908c7a1a-e4a3-4b16-b131-530a7529973e","resource":{"resourceType":"Encounter","id":"908c7a1a-e4a3-4b16-b131-530a7529973e","status":"finished","class":{"system":"http://terminology.hl7.org/CodeSystem/v3-ActCode","code":"VR","display":"virtual"},"type":[{"coding":[{"system":"http://terminology.hl7.org/CodeSystem/encounter-type","code":"ADMS"}]}],"subject":{"reference":"Patient/85db1930-b776-4834-9bf2-2825477b9780"},"period":{"start":"2022-10-07T00:00:00+00:00","end":"2022-10-15T00:00:00+00:00"}},"request":{"method":"POST","url":"Encounter"}},{"fullUrl":"Encounter/50ea75d6-0346-4cf6-a9d6-6f16e56fc84f","resource":{"resourceType":"Encounter","id":"50ea75d6-0346-4cf6-a9d6-6f16e56fc84f","status":"finished","class":{"system":"http://terminology.hl7.org/CodeSystem/v3-ActCode","code":"AMB","display":"ambulatory"},"type":[{"coding":[{"system":"http://terminology.hl7.org/CodeSystem/encounter-type","code":"BD/BM-clin"}]}],"subject":{"reference":"Patient/85db1930-b776-4834-9bf2-2825477b9780"},"period":{"start":"2022-04-20T00:00:00+00:00","end":"2022-04-25T00:00:00+00:00"}},"request":{"method":"POST","url":"Encounter"}},{"fullUrl":"Patient/e60687ab-3584-4a04-b4cc-e6d3f0789fbe","resource":{"resourceType":"Patient","id":"e60687ab-3584-4a04-b4cc-e6d3f0789fbe","identifier":[{"type":{"coding":[{"system":"http://terminology.hl7.org/CodeSystem/v2-0203","code":"MR"}]},"system":"urn:fhirgen:mrn","value":"638-94-9779"}],"name":[{"use":"official","family":"Snyder","given":["Sheila"]},{"use":"maiden","family":"Mckinney"}],"telecom":[{"system":"phone","value":"+1-610-220-4655","use":"home"},{"system":"email","value":"butleremily@hotmail.com","use":"work"}],"gender":"other","birthDate":"1977-11-15","address":[{"use":"home","line":["93297 Ryan Station"],"city":"Karenville","state":"IA","postalCode":"89588"},{"use":"old","line":["686 Amber Knoll"],"city":"Scottbury","state":"WA","postalCode":"52464"}]},"request":{"method":"POST","url":"Patient"}},{"fullUrl":"Observation/f221976d-0931-44d4-a39e-56cd68dcf426","resource":{"resourceType":"Observation","id":"f221976d-0931-44d4-a39e-56cd68dcf426","status":"final","code":{"coding":[{"system":"http://loinc.org","code":"31147-2"}]},"subject":{"reference":"Patient/e60687ab-3584-4a04-b4cc-e6d3f0789fbe"},"effectiveDateTime":"2022-06-11T00:00:00+00:00","valueRatio":{"numerator":{"value":1},"denominator":{"value":64}}},"request":{"method":"POST","url":"Observation"}},{"fullUrl":"Observation/308ac518-915f-45e2-b4fd-89856234f875","resource":{"resourceType":"Observation","id":"308ac518-915f-45e2-b4fd-89856234f875","status":"final","code":{"coding":[{"system":"http://loinc.org","code":"47235-7"}]},"subject":{"reference":"Patient/e60687ab-3584-4a04-b4cc-e6d3f0789fbe"},"effectiveDateTime":"2022-11-04T00:00:00+00:00","valueRatio":{"numerator":{"value":1},"denominator":{"value":32}}},"request":{"method":"POST","url":"Observation"}},{"fullUrl":"Observation/00498c8f-1161-4f3b-9480-20d77e06986e","resource":{"resourceType":"Observation","id":"00498c8f-1161-4f3b-9480-20d77e06986e","status":"final","code":{"coding":[{"system":"http://loinc.org","code":"47235-7"}]},"subject":{"reference":"Patient/e60687ab-3584-4a04-b4cc-e6d3f0789fbe"},"effectiveDateTime":"2022-10-05T00:00:00+00:00","valueRatio":{"numerator":{"value":1},"denominator":{"value":64}}},"request":{"method":"POST","url":"Observation"}},{"fullUrl":"Condition/f66ecc1d-5c84-4350-b0b9-c680c70c44cd","resource":{"resourceType":"Condition","id":"f66ecc1d-5c84-4350-b0b9-c680c70c44cd","code":{"coding":[{"system":"http://snomed.info/sct","code":"79342006"}]},"subject":{"reference":"Patient/e60687ab-3584-4a04-b4cc-e6d3f0789fbe"},"onsetDateTime":"2022-12-29T00:00:00+00:00"},"request":{"method":"POST","url":"Condition"}},{"fullUrl":"Condition/491ae5a4-cc09-4476-aeff-48d45f4b74a3","resource":{"resourceType":"Condition","id":"491ae5a4-cc09-4476-aeff-48d45f4b74a3","code":{"coding":[{"system":"http://snomed.info/sct","code":"31070006"}]},"subject":{"reference":"Patient/e60687ab-3584-4a04-b4cc-e6d3f0789fbe"},"onsetDateTime":"2022-07-30T00:00:00+00:00"},"request":{"method":"POST","url":"Condition"}},{"fullUrl":"Condition/962aad33-0823-4863-824c-878be3cfc4e0","resource":{"resourceType":"Condition","id":"962aad33-0823-4863-824c-878be3cfc4e0","code":{"coding":[{"system":"http://snomed.info/sct","code":"18165001"}]},"subject":{"reference":"Patient/e60687ab-3584-4a04-b4cc-e6d3f0789fbe"},"onsetDateTime":"2022-09-19T00:00:00+00:00"},"request":{"method":"POST","url":"Condition"}},{"fullUrl":"Condition/a3b22819-bb53-493b-a9ef-8faa50176584","resource":{"resourceType":"Condition","id":"a3b22819-bb53-493b-a9ef-8faa50176584","code":{"coding":[{"system":"http://snomed.info/sct","code":"91554004"}]},"subject":{"reference":"Patient/e60687ab-3584-4a04-b4cc-e6d3f0789fbe"},"onsetDateTime":"2022-07-15T00:00:00+00:00"},"request":{"method":"POST","url":"Condition"}},{"fullUrl":"Observation/a8c7a614-2b4e-45c2-89df-e70f6edf696b","resource":{"resourceType":"Observation","id":"a8c7a614-2b4e-45c2-89df-e70f6edf696b","status":"final","code":{"coding":[{"system":"http://loinc.org","code":"26464-8"}]},"subject":{"reference":"Patient/e60687ab-3584-4a04-b4cc-e6d3f0789fbe"},"effectiveDateTime":"2022-04-30T00:00:00+00:00","valueQuantity":{"value":10.2}},"request":{"method":"POST","url":"Observation"}},{"fullUrl":"Observation/e4b5108d-1da1-46c0-ade3-349ee6f39d0a","resource":{"resourceType":"Observation","id":"e4b5108d-1da1-46c0-ade3-349ee6f39d0a","status":"final","code":{"coding":[{"system":"http://loinc.org","code":"49498-9"}]},"subject":{"reference":"Patient/e60687ab-3584-4a04-b4cc-e6d3f0789fbe"},"effectiveDateTime":"2022-08-28T00:00:00+00:00","valueQuantity":{"value":8.2}},"request":{"method":"POST","url":"Observation"}},{"fullUrl":"Observation/76cf7a8b-a229-4aa5-b391-363c7243f03b","resource":{"resourceType":"Observation","id":"76cf7a8b-a229-4aa5-b391-363c7243f03b","status":"final","code":{"coding":[{"system":"http://loinc.org","code":"6690-2"}]},"subject":{"reference":"Patient/e60687ab-3584-4a04-b4cc-e6d3f0789fbe"},"effectiveDateTime":"2022-04-29T00:00:00+00:00","valueQuantity":{"value":10.7}},"request":{"method":"POST","url":"Observation"}},{"fullUrl":"Observation/948aee28-b385-4d99-9e66-fedc81648a0e","resource":{"resourceType":"Observation","id":"948aee28-b385-4d99-9e66-fedc81648a0e","status":"final","code":{"coding":[{"system":"http://loinc.org","code":"49498-9"}]},"subject":{"reference":"Patient/e60687ab-3584-4a04-b4cc-e6d3f0789fbe"},"effectiveDateTime":"2022-07-29T00:00:00+00:00"},"request":{"method":"POST","url":"Observation"}},{"fullUrl":"Observation/4995436d-c22b-4d29-9529-39da950ae094","resource":{"resourceType":"Observation","id":"4995436d-c22b-4d29-9529-39da950ae094","status":"final","code":{"coding":[{"system":"http://loinc.org","code":"49498-9"}]},"subject":{"reference":"Patient/e60687ab-3584-4a04-b4cc-e6d3f0789fbe"},"effectiveDateTime":"2022-08-11T00:00:00+00:00"},"request":{"method":"POST","url":"Observation"}},{"fullUrl":"Procedure/1ba1f36c-b14c-46b8-9427-6861b0c92e3a","resource":{"resourceType":"Procedure","id":"1ba1f36c-b14c-46b8-9427-6861b0c92e3a","status":"completed","code":{"coding":[{"system":"http://snomed.info/sct","code":"647000"}]},"subject":{"reference":"Patient/e60687ab-3584-4a04-b4cc-e6d3f0789fbe"},"performedDateTime":"2022-10-20T00:00:00+00:00"},"request":{"method":"POST","url":"Procedure"}},{"fullUrl":"Procedure/1bcc983c-1839-4c46-8f2b-7349ae6f6e9a","resource":{"resourceType":"Procedure","id":"1bcc983c-1839-4c46-8f2b-7349ae6f6e9a","status":"completed","code":{"coding":[{"system":"http://snomed.info/sct","code":"146005"}]},"subject":{"reference":"Patient/e60687ab-3584-4a04-b4cc-e6d3f0789fbe"},"performedDateTime":"2022-08-18T00:00:00+00:00"},"request":{"method":"POST","url":"Procedure"}},{"fullUrl":"Procedure/47319a6a-4236-4c57-b63d-0622c5a11f83","resource":{"resourceType":"Procedure","id":"47319a6a-4236-4c57-b63d-0622c5a11f83","status":"completed","code":{"coding":[{"system":"http://snomed.info/sct","code":"146005"}]},"subject":{"reference":"Patient/e60687ab-3584-4a04-b4cc-e6d3f0789fbe"},"performedDateTime":"2022-07-30T00:00:00+00:00"},"request":{"method":"POST","url":"Procedure"}},{"fullUrl":"MedicationStatement/2b43f652-d33d-4f16-9e28-97e4d335dbb4","resource":{"resourceType":"MedicationStatement","id":"2b43f652-d33d-4f16-9e28-97e4d335dbb4","status":"completed","medicationCodeableConcept":{"coding":[{"system":"http://www.nlm.nih.gov/research/umls/rxnorm","code":"7980"}]},"subject":{"reference":"Patient/e60687ab-3584-4a04-b4cc-e6d3f0789fbe"},"effectiveDateTime":"2022-05-03T00:00:00+00:00","dosage":[{"doseAndRate":[{"doseQuantity":{"value":2,"unit":"TAB","system":"http://terminology.hl7.org/CodeSystem/v3-orderableDrugForm","code":"TAB"}}]}]},"request":{"method":"POST","url":"MedicationStatement"}},{"fullUrl":"MedicationStatement/ea28e656-d5cf-40e0-90fc-608e18693589","resource":{"resourceType":"MedicationStatement","id":"ea28e656-d5cf-40e0-90fc-608e18693589","status":"completed","medicationCodeableConcept":{"coding":[{"system":"http://www.nlm.nih.gov/research/umls/rxnorm","code":"3640"}]},"subject":{"reference":"Patient/e60687ab-3584-4a04-b4cc-e6d3f0789fbe"},"effectiveDateTime":"2022-01-02T00:00:00+00:00","dosage":[{"doseAndRate":[{"doseQuantity":{"value":3.1,"unit":"TAB","system":"http://terminology.hl7.org/CodeSystem/v3-orderableDrugForm","code":"TAB"}}]}]},"request":{"method":"POST","url":"MedicationStatement"}},{"fullUrl":"Encounter/f5edd73a-f67e-42be-b873-b2475932df8b","resource":{"resourceType":"Encounter","id":"f5edd73a-f67e-42be-b873-b2475932df8b","status":"finished","class":{"system":"http://terminology.hl7.org/CodeSystem/v3-ActCode","code":"IMP","display":"inpatient encounter"},"type":[{"coding":[{"system":"http://terminology.hl7.org/CodeSystem/encounter-type","code":"OKI"}]}],"subject":{"reference":"Patient/e60687ab-3584-4a04-b4cc-e6d3f0789fbe"},"period":{"start":"2022-03-15T00:00:00+00:00","end":"2022-03-23T00:00:00+00:00"}},"request":{"method":"POST","url":"Encounter"}},{"fullUrl":"Encounter/49e02243-a838-4f3d-8d49-e09d8b555787","resource":{"resourceType":"Encounter","id":"49e02243-a838-4f3d-8d49-e09d8b555787","status":"finished","class":{"system":"http://terminology.hl7.org/CodeSystem/v3-ActCode","code":"IMP","display":"inpatient encounter"},"type":[{"coding":[{"system":"http://terminology.hl7.org/CodeSystem/encounter-type","code":"ADMS"}]}],"subject":{"reference":"Patient/e60687ab-3584-4a04-b4cc-e6d3f0789fbe"},"period":{"start":"2022-04-25T00:00:00+00:00","end":"2022-04-27T00:00:00+00:00"}},"request":{"method":"POST","url":"Encounter"}},{"fullUrl":"Encounter/55ed0814-11aa-42f3-b32a-31c97ef14f12","resource":{"resourceType":"Encounter","id":"55ed0814-11aa-42f3-b32a-31c97ef14f12","status":"finished","class":{"system":"http://terminology.hl7.org/CodeSystem/v3-ActCode","code":"IMP","display":"inpatient encounter"},"type":[{"coding":[{"system":"http://terminology.hl7.org/CodeSystem/encounter-type","code":"BD/BM-clin"}]}],"subject":{"reference":"Patient/e60687ab-3584-4a04-b4cc-e6d3f0789fbe"},"period":{"start":"2022-08-09T00:00:00+00:00","end":"2022-08-13T00:00:00+00:00"}},"request":{"method":"POST","url":"Encounter"}},{"fullUrl":"Encounter/27361984-49c9-45e5-8d4b-164ae8b49ca1","resource":{"resourceType":"Encounter","id":"27361984-49c9-45e5-8d4b-164ae8b49ca1","status":"finished","class":{"system":"http://terminology.hl7.org/CodeSystem/v3-ActCode","code":"AMB","display":"ambulatory"},"type":[{"coding":[{"system":"http://terminology.hl7.org/CodeSystem/encounter-type","code":"CCS60"}]}],"subject":{"reference":"Patient/e60687ab-3584-4a04-b4cc-e6d3f0789fbe"},"period":{"start":"2022-09-23T00:00:00+00:00","end":"2022-09-28T00:00:00+00:00"}},"request":{"method":"POST","url":"Encounter"}},{"fullUrl":"Encounter/ca22b852-d517-4aad-bd45-a89c7c2741c6","resource":{"resourceType":"Encounter","id":"ca22b852-d517-4aad-bd45-a89c7c2741c6","status":"finished","class":{"system":"http://terminology.hl7.org/CodeSystem/v3-ActCode","code":"AMB","display":"ambulatory"},"type":[{"coding":[{"system":"http://terminology.hl7.org/CodeSystem/encounter-type","code":"CCS60"}]}],"subject":{"reference":"Patient/e60687ab-3584-4a04-b4cc-e6d3f0789fbe"},"period":{"start":"2022-03-24T00:00:00+00:00","end":"2022-03-25T00:00:00+00:00"}},"request":{"method":"POST","url":"Encounter"}},{"fullUrl":"Encounter/212e1102-c644-4660-ba92-7d3f3bfbea77","resource":{"resourceType":"Encounter","id":"212e1102-c644-4660-ba92-7d3f3bfbea77","status":"finished","class":{"system":"http://terminology.hl7.org/CodeSystem/v3-ActCode","code":"SS","display":"short-stay"},"type":[{"coding":[{"system":"http://terminology.hl7.org/CodeSystem/encounter-type","code":"BD/BM-clin"}]}],"subject":{"reference":"Patient/e60687ab-3584-4a04-b4cc-e6d3f0789fbe"},"period":{"start":"2022-06-25T00:00:00+00:00","end":"2022-06-29T00:00:00+00:00"}},"request":{"method":"POST","url":"Encounter"}}]}