{"resourceType":"Bundle","id":"04dff031-9e2a-4e33-b3ed-79d51b331627","type":"collection","entry":[{"fullUrl":"Patient/b10a2410-2d58-411c-bafa-70366aa1541d","resource":{"resourceType":"Patient","id":"b10a2410-2d58-411c-bafa-70366aa1541d","identifier":[{"type":{"coding":[{"system":"http://terminology.hl7.org/CodeSystem/v2-0203","code":"MR"}]},"system":"urn:fhirgen:mrn","value":"055-76-5324"}],"name":[{"family":"Carroll","given":["Kent"]}],"gender":"male","birthDate":"1968-12-08","address":[{"line":["51137 Evans Trafficway Suite 996"],"city":"Shellyview","state":"Hawaii"}]}},{"fullUrl":"Observation/648f5cb3-e605-4a49-8ebc-716da5c9c08c","resource":{"resourceType":"Observation","id":"648f5cb3-e605-4a49-8ebc-716da5c9c08c","status":"final","code":{"coding":[{"system":"http://loinc.org","code":"31146-4"}]},"subject":{"reference":"Patient/b10a2410-2d58-411c-bafa-70366aa1541d"},"effectiveDateTime":"2022-07-09T00:00:00+00:00","valueRatio":{"numerator":{"value":1.0},"denominator":{"value":64.0}}}},{"fullUrl":"Observation/f5c79c0c-ebec-468d-b88a-cfd599418723","resource":{"resourceType":"Observation","id":"f5c79c0c-ebec-468d-b88a-cfd599418723","status":"final","code":{"coding":[{"system":"http://loinc.org","code":"22590-4"}]},"subject":{"reference":"Patient/b10a2410-2d58-411c-bafa-70366aa1541d"},"effectiveDateTime":"2022-06-17T00:00:00+00:00","valueRatio":{"numerator":{"value":1.0},"denominator":{"value":32.0}}}},{"fullUrl":"Observation/5aa27f8c-4dba-427b-a683-50f9a9aca82c","resource":{"resourceType":"Observation","id":"5aa27f8c-4dba-427b-a683-50f9a9aca82c","status":"final","code":{"coding":[{"system":"http://loinc.org","code":"51475-2"}]},"subject":{"reference":"Patient/b10a2410-2d58-411c-bafa-70366aa1541d"},"effectiveDateTime":"2022-06-01T00:00:00+00:00","valueRatio":{"numerator":{"value":1.0},"denominator":{"value":4.0}}}},{"fullUrl":"Condition/01ca7e26-8215-48e8-9148-c53a944c4d80","resource":{"resourceType":"Condition","id":"01ca7e26-8215-48e8-9148-c53a944c4d80","code":{"coding":[{"system":"http://snomed.info/sct","code":"405737000"}]},"subject":{"reference":"Patient/b10a2410-2d58-411c-bafa-70366aa1541d"},"onsetDateTime":"2022-10-30T00:00:00+00:00"}},{"fullUrl":"Condition/f1c7ef65-d02c-449d-b586-0c105b64a4da","resource":{"resourceType":"Condition","id":"f1c7ef65-d02c-449d-b586-0c105b64a4da","code":{"coding":[{"system":"http://snomed.info/sct","code":"3951002"}]},"subject":{"reference":"Patient/b10a2410-2d58-411c-bafa-70366aa1541d"},"onsetDateTime":"2022-05-19T00:00:00+00:00"}},{"fullUrl":"Condition/37b6b9f1-423b-4e9d-84c7-ee5305054ed6","resource":{"resourceType":"Condition","id":"37b6b9f1-423b-4e9d-84c7-ee5305054ed6","code":{"coding":[{"system":"http://snomed.info/sct","code":"386661006"}]},"subject":{"reference":"Patient/b10a2410-2d58-411c-bafa-70366aa1541d"},"onsetDateTime":"2022-09-21T00:00:00+00:00"}},{"fullUrl":"Condition/43b3ff79-1c62-4615-8246-28e837727955","resource":{"resourceType":"Condition","id":"43b3ff79-1c62-4615-8246-28e837727955","code":{"coding":[{"system":"http://snomed.info/sct","code":"386661006"}]},"subject":{"reference":"Patient/b10a2410-2d58-411c-bafa-70366aa1541d"},"onsetDateTime":"2022-07-26T00:00:00+00:00"}},{"fullUrl":"Condition/dc3aa345-3a26-4993-bf67-0815e5c5d462","resource":{"resourceType":"Condition","id":"dc3aa345-3a26-4993-bf67-0815e5c5d462","code":{"coding":[{"system":"http://snomed.info/sct","code":"418290006"}]},"subject":{"reference":"Patient/b10a2410-2d58-411c-bafa-70366aa1541d"},"onsetDateTime":"2022-08-02T00:00:00+00:00"}},{"fullUrl":"Condition/010ca351-b928-4f5c-9930-7667a285e7c1","resource":{"resourceType":"Condition","id":"010ca351-b928-4f5c-9930-7667a285e7c1","code":{"coding":[{"system":"http://snomed.info/sct","code":"386661006"}]},"subject":{"reference":"Patient/b10a2410-2d58-411c-bafa-70366aa1541d"},"onsetDateTime":"2022-01-18T00:00:00+00:00"}},{"fullUrl":"Condition/8cc5f6c7-c5f5-432e-b4bc-dee3b2d1bc33","resource":{"resourceType":"Condition","id":"8cc5f6c7-c5f5-432e-b4bc-dee3b2d1bc33","code":{"coding":[{"system":"http://snomed.info/sct","code":"91554004"}]},"subject":{"reference":"Patient/b10a2410-2d58-411c-bafa-70366aa1541d"},"onsetDateTime":"2022-10-27T00:00:00+00:00"}},{"fullUrl":"Condition/07d936b7-2907-40f7-a7e9-f6308e188f96","resource":{"resourceType":"Condition","id":"07d936b7-2907-40f7-a7e9-f6308e188f96","code":{"coding":[{"system":"http://snomed.info/sct","code":"271939006"}]},"subject":{"reference":"Patient/b10a2410-2d58-411c-bafa-70366aa1541d"},"onsetDateTime":"2022-11-14T00:00:00+00:00"}},{"fullUrl":"Observation/c6ad63dc-faa9-4566-af7e-15ac748c7d06","resource":{"resourceType":"Observation","id":"c6ad63dc-faa9-4566-af7e-15ac748c7d06","status":"final","code":{"coding":[{"system":"http://loinc.org","code":"26464-8"}]},"subject":{"reference":"Patient/b10a2410-2d58-411c-bafa-70366aa1541d"},"effectiveDateTime":"2022-11-12T00:00:00+00:00","valueQuantity":{"value":8.0}}},{"fullUrl":"Observation/339eab0b-57ce-4b19-a524-aa68f49c2742","resource":{"resourceType":"Observation","id":"339eab0b-57ce-4b19-a524-aa68f49c2742","status":"final","code":{"coding":[{"system":"http://loinc.org","code":"6690-2"}]},"subject":{"reference":"Patient/b10a2410-2d58-411c-bafa-70366aa1541d"},"effectiveDateTime":"2022-03-08T00:00:00+00:00","valueQuantity":{"value":8.2}}},{"fullUrl":"Observation/538326c9-798a-4c9f-b810-8fcd67a4626c","resource":{"resourceType":"Observation","id":"538326c9-798a-4c9f-b810-8fcd67a4626c","status":"final","code":{"coding":[{"system":"http://loinc.org","code":"6690-2"}]},"subject":{"reference":"Patient/b10a2410-2d58-411c-bafa-70366aa1541d"},"effectiveDateTime":"2022-06-20T00:00:00+00:00","valueQuantity":{"value":4.6}}},{"fullUrl":"Procedure/b9a6af1c-5343-46cc-80d9-4cfe4ee1b43b","resource":{"resourceType":"Procedure","id":"b9a6af1c-5343-46cc-80d9-4cfe4ee1b43b","status":"completed","code":{"coding":[{"system":"http://snomed.info/sct","code":"647000"}]},"subject":{"reference":"Patient/b10a2410-2d58-411c-bafa-70366aa1541d"},"performedDateTime":"2022-04-12T00:00:00+00:00"}},{"fullUrl":"Procedure/5e12e829-7a05-49a7-ae87-9fa45b4fa771","resource":{"resourceType":"Procedure","id":"5e12e829-7a05-49a7-ae87-9fa45b4fa771","status":"completed","code":{"coding":[{"system":"http://snomed.info/sct","code":"115006"}]},"subject":{"reference":"Patient/b10a2410-2d58-411c-bafa-70366aa1541d"},"performedDateTime":"2022-01-15T00:00:00+00:00"}},{"fullUrl":"Procedure/bac74db0-aad6-4e63-b3b6-1aea11f2ece5","resource":{"resourceType":"Procedure","id":"bac74db0-aad6-4e63-b3b6-1aea11f2ece5","status":"completed","code":{"coding":[{"system":"http://snomed.info/sct","code":"647000"}]},"subject":{"reference":"Patient/b10a2410-2d58-411c-bafa-70366aa1541d"},"performedDateTime":"2022-12-09T00:00:00+00:00"}},{"fullUrl":"MedicationStatement/95b4443d-ffb3-4074-9f67-a1eb75340edf","resource":{"resourceType":"MedicationStatement","id":"95b4443d-ffb3-4074-9f67-a1eb75340edf","status":"completed","medicationCodeableConcept":{"coding":[{"system":"http://www.nlm.nih.gov/research/umls/rxnorm","code":"2193"}]},"subject":{"reference":"Patient/b10a2410-2d58-411c-bafa-70366aa1541d"},"effectiveDateTime":"2022-03-07T00:00:00+00:00","dosage":[{"doseAndRate":[{"doseQuantity":{"value":2.0,"unit":"TAB","system":"http://terminology.hl7.org/CodeSystem/v3-orderableDrugForm","code":"TAB"}}]}]}},{"fullUrl":"MedicationStatement/31932a10-b0b6-4fc3-8c54-fd40b021545b","resource":{"resourceType":"MedicationStatement","id":"31932a10-b0b6-4fc3-8c54-fd40b021545b","status":"completed","medicationCodeableConcept":{"coding":[{"system":"http://www.nlm.nih.gov/research/umls/rxnorm","code":"7984"}]},"subject":{"reference":"Patient/b10a2410-2d58-411c-bafa-70366aa1541d"},"effectiveDateTime":"2022-09-26T00:00:00+00:00","dosage":[{"doseAndRate":[{"doseQuantity":{"value":1.0,"unit":"TAB","system":"http://terminology.hl7.org/CodeSystem/v3-orderableDrugForm","code":"TAB"}}]}]}},{"fullUrl":"MedicationStatement/6cac5949-4d97-433e-9ced-62ddfd3b7951","resource":{"resourceType":"MedicationStatement","id":"6cac5949-4d97-433e-9ced-62ddfd3b7951","status":"completed","medicationCodeableConcept":{"coding":[{"system":"http://www.nlm.nih.gov/research/umls/rxnorm","code":"2193"}]},"subject":{"reference":"Patient/b10a2410-2d58-411c-bafa-70366aa1541d"},"effectiveDateTime":"2022-08-21T00:00:00+00:00","dosage":[{"doseAndRate":[{"doseQuantity":{"value":1.0,"unit":"TAB","system":"http://terminology.hl7.org/CodeSystem/v3-orderableDrugForm","code":"TAB"}}]}]}},{"fullUrl":"MedicationStatement/2a1d400c-f2ee-4065-af26-41b5d32ae2be","resource":{"resourceType":"MedicationStatement","id":"2a1d400c-f2ee-4065-af26-41b5d32ae2be","status":"completed","medicationCodeableConcept":{"coding":[{"system":"http://www.nlm.nih.gov/research/umls/rxnorm","code":"18631"}]},"subject":{"reference":"Patient/b10a2410-2d58-411c-bafa-70366aa1541d"},"effectiveDateTime":"2022-11-09T00:00:00+00:00","dosage":[{"doseAndRate":[{"doseQuantity":{"value":1.0,"unit":"TAB","system":"http://terminology.hl7.org/CodeSystem/v3-orderableDrugForm","code":"TAB"}}]}]}},{"fullUrl":"MedicationStatement/96aa5c74-4df1-463e-a1bc-0460e99fa169","resource":{"resourceType":"MedicationStatement","id":"96aa5c74-4df1-463e-a1bc-0460e99fa169","status":"completed","medicationCodeableConcept":{"coding":[{"system":"http://www.nlm.nih.gov/research/umls/rxnorm","code":"2193"}]},"subject":{"reference":"Patient/b10a2410-2d58-411c-bafa-70366aa1541d"},"effectiveDateTime":"2022-05-14T00:00:00+00:00","dosage":[{"doseAndRate":[{"doseQuantity":{"value":1.0,"unit":"TAB","system":"http://terminology.hl7.org/CodeSystem/v3-orderableDrugForm","code":"TAB"}}]}]}},{"fullUrl":"MedicationStatement/399c0d1f-6308-480b-a535-898d8e7bb7cc","resource":{"resourceType":"MedicationStatement","id":"399c0d1f-6308-480b-a535-898d8e7bb7cc","status":"completed","medicationCodeableConcept":{"coding":[{"system":"http://www.nlm.nih.gov/research/umls/rxnorm","code":"10395"}]},"subject":{"reference":"Patient/b10a2410-2d58-411c-bafa-70366aa1541d"},"effectiveDateTime":"2022-01-21T00:00:00+00:00","dosage":[{"doseAndRate":[{"doseQuantity":{"value":1.0,"unit":"TAB","system":"http://terminology.hl7.org/CodeSystem/v3-orderableDrugForm","code":"TAB"}}]}]}},{"fullUrl":"MedicationStatement/2a99fb98-2ca6-4a6f-a330-d89e57e8040b","resource":{"resourceType":"MedicationStatement","id":"2a99fb98-2ca6-4a6f-a330-d89e57e8040b","status":"completed","medicationCodeableConcept":{"coding":[{"system":"http://www.nlm.nih.gov/research/umls/rxnorm","code":"2193"}]},"subject":{"reference":"Patient/b10a2410-2d58-411c-bafa-70366aa1541d"},"effectiveDateTime":"2022-01-28T00:00:00+00:00","dosage":[{"doseAndRate":[{"doseQuantity":{"value":2.0,"unit":"TAB","system":"http://terminology.hl7.org/CodeSystem/v3-orderableDrugForm","code":"TAB"}}]}]}},{"fullUrl":"Encounter/810b4602-7c05-4d58-8828-830c8d2c9ad2","resource":{"resourceType":"Encounter","id":"810b4602-7c05-4d58-8828-830c8d2c9ad2","status":"finished","class":{"system":"http://terminology.hl7.org/CodeSystem/v3-ActCode","code":"FLD","display":"field"},"type":[{"coding":[{"system":"http://terminology.hl7.org/CodeSystem/encounter-type","code":"CCS60"}]}],"subject":{"reference":"Patient/b10a2410-2d58-411c-bafa-70366aa1541d"},"period":{"start":"2022-02-24T00:00:00+00:00","end":"2022-02-26T00:00:00+00:00"}}},{"fullUrl":"Encounter/a32c5ef0-97a3-4e9c-b708-770ee04de242","resource":{"resourceType":"Encounter","id":"a32c5ef0-97a3-4e9c-b708-770ee04de242","status":"finished","class":{"system":"http://terminology.hl7.org/CodeSystem/v3-ActCode","code":"SS","display":"short-stay"},"type":[{"coding":[{"system":"http://terminology.hl7.org/CodeSystem/encounter-type","code":"CCS60"}]}],"subject":{"reference":"Patient/b10a2410-2d58-411c-bafa-70366aa1541d"},"period":{"start":"2022-11-16T00:00:00+00:00","end":"2022-11-19T00:00:00+00:00"}}},{"fullUrl":"Patient/cc2d7c67-35cc-4b5d-9356-eceaff19ddab","resource":{"resourceType":"Patient","id":"cc2d7c67-35cc-4b5d-9356-eceaff19ddab","identifier":[{"type":{"coding":[{"system":"http://terminology.hl7.org/CodeSystem/v2-0203","code":"MR"}]},"system":"urn:fhirgen:mrn","value":"433-94-3929"}],"name":[{"family":"Williams","given":["Andrew"]}],"gender":"male","birthDate":"1998-06-15","address":[{"line":["000 Donald Avenue"],"city":"New Anthonyport","state":"Kansas"}]}},{"fullUrl":"Observation/df939a16-eec6-4b28-a610-b3c9ef627e6a","resource":{"resourceType":"Observation","id":"df939a16-eec6-4b28-a610-b3c9ef627e6a","status":"final","code":{"coding":[{"system":"http://loinc.org","code":"22590-4"}]},"subject":{"reference":"Patient/cc2d7c67-35cc-4b5d-9356-eceaff19ddab"},"effectiveDateTime":"2022-02-18T00:00:00+00:00","valueRatio":{"numerator":{"value":1.0},"denominator":{"value":64.0}}}},{"fullUrl":"Observation/8ddbf9bc-585a-460f-bd7a-a89ba9235523","resource":{"resourceType":"Observation","id":"8ddbf9bc-585a-460f-bd7a-a89ba9235523","status":"final","code":{"coding":[{"system":"http://loinc.org","code":"50695-6"}]},"subject":{"reference":"Patient/cc2d7c67-35cc-4b5d-9356-eceaff19ddab"},"effectiveDateTime":"2022-02-04T00:00:00+00:00","valueRatio":{"numerator":{"value":1.0},"denominator":{"value":32.0}}}},{"fullUrl":"Condition/82267a44-97d0-47c0-9d2e-4ce540d51c64","resource":{"resourceType":"Condition","id":"82267a44-97d0-47c0-9d2e-4ce540d51c64","code":{"coding":[{"system":"http://snomed.info/sct","code":"271939006"}]},"subject":{"reference":"Patient/cc2d7c67-35cc-4b5d-9356-eceaff19ddab"},"onsetDateTime":"2022-02-13T00:00:00+00:00"}},{"fullUrl":"Condition/ea9c6fe8-0991-4abf-ab5f-ccb4398d27b3","resource":{"resourceType":"Condition","id":"ea9c6fe8-0991-4abf-ab5f-ccb4398d27b3","code":{"coding":[{"system":"http://snomed.info/sct","code":"297123002"}]},"subject":{"reference":"Patient/cc2d7c67-35cc-4b5d-9356-eceaff19ddab"},"onsetDateTime":"2022-05-09T00:00:00+00:00"}},{"fullUrl":"Condition/fae57243-fefa-4cce-9efc-f8aafa912599","resource":{"resourceType":"Condition","id":"fae57243-fefa-4cce-9efc-f8aafa912599","code":{"coding":[{"system":"http://snomed.info/sct","code":"405737000"}]},"subject":{"reference":"Patient/cc2d7c67-35cc-4b5d-9356-eceaff19ddab"},"onsetDateTime":"2022-11-28T00:00:00+00:00"}},{"fullUrl":"Condition/8efc0079-db6b-439e-a9d0-439aa142c194","resource":{"resourceType":"Condition","id":"8efc0079-db6b-439e-a9d0-439aa142c194","code":{"coding":[{"system":"http://snomed.info/sct","code":"297123002"}]},"subject":{"reference":"Patient/cc2d7c67-35cc-4b5d-9356-eceaff19ddab"},"onsetDateTime":"2022-05-17T00:00:00+00:00"}},{"fullUrl":"Condition/40c0abe0-edb6-4c4d-8041-2a31c97fe9fa","resource":{"resourceType":"Condition","id":"40c0abe0-edb6-4c4d-8041-2a31c97fe9fa","code":{"coding":[{"system":"http://snomed.info/sct","code":"44882003"}]},"subject":{"reference":"Patient/cc2d7c67-35cc-4b5d-9356-eceaff19ddab"},"onsetDateTime":"2022-08-08T00:00:00+00:00"}},{"fullUrl":"Condition/636cece3-c227-4cbe-bba5-e5042b9aac30","resource":{"resourceType":"Condition","id":"636cece3-c227-4cbe-bba5-e5042b9aac30","code":{"coding":[{"system":"http://snomed.info/sct","code":"248980004"}]},"subject":{"reference":"Patient/cc2d7c67-35cc-4b5d-9356-eceaff19ddab"},"onsetDateTime":"2022-11-04T00:00:00+00:00"}},{"fullUrl":"Condition/aef360dd-b895-4ed6-bb6e-1944f1f35825","resource":{"resourceType":"Condition","id":"aef360dd-b895-4ed6-bb6e-1944f1f35825","code":{"coding":[{"system":"http://snomed.info/sct","code":"736686006"}]},"subject":{"reference":"Patient/cc2d7c67-35cc-4b5d-9356-eceaff19ddab"},"onsetDateTime":"2022-04-19T00:00:00+00:00"}},{"fullUrl":"Condition/f36bd9f7-43f7-4c5e-8d97-2102b2c55ddd","resource":{"resourceType":"Condition","id":"f36bd9f7-43f7-4c5e-8d97-2102b2c55ddd","code":{"coding":[{"system":"http://snomed.info/sct","code":"30746006"}]},"subject":{"reference":"Patient/cc2d7c67-35cc-4b5d-9356-eceaff19ddab"},"onsetDateTime":"2022-11-30T00:00:00+00:00"}},{"fullUrl":"Observation/b5e36129-c336-42b0-8e01-f3f9eb54d06c","resource":{"resourceType":"Observation","id":"b5e36129-c336-42b0-8e01-f3f9eb54d06c","status":"final","code":{"coding":[{"system":"http://www.ama-assn.org/go/cpt","code":"85048"}]},"subject":{"reference":"Patient/cc2d7c67-35cc-4b5d-9356-eceaff19ddab"},"effectiveDateTime":"2022-10-03T00:00:00+00:00","valueQuantity":{"value":9.8}}},{"fullUrl":"Observation/ae3cda7e-7c1d-455f-b723-cfea5db25da7","resource":{"resourceType":"Observation","id":"ae3cda7e-7c1d-455f-b723-cfea5db25da7","status":"final","code":{"coding":[{"system":"http://loinc.org","code":"26464-8"}]},"subject":{"reference":"Patient/cc2d7c67-35cc-4b5d-9356-eceaff19ddab"},"effectiveDateTime":"2022-07-06T00:00:00+00:00","valueQuantity":{"value":5.7}}},{"fullUrl":"Procedure/0a8f31c3-8069-4652-a169-a9cfbfd3f9c2","resource":{"resourceType":"Procedure","id":"0a8f31c3-8069-4652-a169-a9cfbfd3f9c2","status":"completed","code":{"coding":[{"system":"http://snomed.info/sct","code":"146005"}]},"subject":{"reference":"Patient/cc2d7c67-35cc-4b5d-9356-eceaff19ddab"},"performedDateTime":"2022-04-19T00:00:00+00:00"}},{"fullUrl":"Procedure/3764cdf4-55f5-450a-8253-abc615aecda3","resource":{"resourceType":"Procedure","id":"3764cdf4-55f5-450a-8253-abc615aecda3","status":"completed","code":{"coding":[{"system":"http://snomed.info/sct","code":"146005"}]},"subject":{"reference":"Patient/cc2d7c67-35cc-4b5d-9356-eceaff19ddab"},"performedDateTime":"2022-08-06T00:00:00+00:00"}},{"fullUrl":"Procedure/4e10987d-595b-4268-99ca-b81d6c11b519","resource":{"resourceType":"Procedure","id":"4e10987d-595b-4268-99ca-b81d6c11b519","status":"completed","code":{"coding":[{"system":"http://snomed.info/sct","code":"104001"}]},"subject":{"reference":"Patient/cc2d7c67-35cc-4b5d-9356-eceaff19ddab"},"performedDateTime":"2022-08-08T00:00:00+00:00"}},{"fullUrl":"MedicationStatement/e6d52f26-95fa-40e2-8557-915e0a3482e4","resource":{"resourceType":"MedicationStatement","id":"e6d52f26-95fa-40e2-8557-915e0a3482e4","status":"completed","medicationCodeableConcept":{"coding":[{"system":"http://www.nlm.nih.gov/research/umls/rxnorm","code":"3640"}]},"subject":{"reference":"Patient/cc2d7c67-35cc-4b5d-9356-eceaff19ddab"},"effectiveDateTime":"2022-06-12T00:00:00+00:00","dosage":[{"doseAndRate":[{"doseQuantity":{"value":2.0,"unit":"TAB","system":"http://terminology.hl7.org/CodeSystem/v3-orderableDrugForm","code":"TAB"}}]}]}},{"fullUrl":"MedicationStatement/1a207824-58d7-4677-a896-80b235d7da07","resource":{"resourceType":"MedicationStatement","id":"1a207824-58d7-4677-a896-80b235d7da07","status":"completed","medicationCodeableConcept":{"coding":[{"system":"http://www.nlm.nih.gov/research/umls/rxnorm","code":"8698"}]},"subject":{"reference":"Patient/cc2d7c67-35cc-4b5d-9356-eceaff19ddab"},"effectiveDateTime":"2022-07-05T00:00:00+00:00","dosage":[{"doseAndRate":[{"doseQuantity":{"value":1.0,"unit":"TAB","system":"http://terminology.hl7.org/CodeSystem/v3-orderableDrugForm","code":"TAB"}}]}]}},{"fullUrl":"MedicationStatement/6ea12353-6680-41fd-b09d-adff0d276eeb","resource":{"resourceType":"MedicationStatement","id":"6ea12353-6680-41fd-b09d-adff0d276eeb","status":"completed","medicationCodeableConcept":{"coding":[{"system":"http://www.nlm.nih.gov/research/umls/rxnorm","code":"7984"}]},"subject":{"reference":"Patient/cc2d7c67-35cc-4b5d-9356-eceaff19ddab"},"effectiveDateTime":"2022-06-28T00:00:00+00:00","dosage":[{"doseAndRate":[{"doseQuantity":{"value":1.0,"unit":"TAB","system":"http://terminology.hl7.org/CodeSystem/v3-orderableDrugForm","code":"TAB"}}]}]}},{"fullUrl":"MedicationStatement/c49792df-c21e-4e72-a914-8eebf6b6cd71","resource":{"resourceType":"MedicationStatement","id":"c49792df-c21e-4e72-a914-8eebf6b6cd71","status":"completed","medicationCodeableConcept":{"coding":[{"system":"http://www.nlm.nih.gov/research/umls/rxnorm","code":"2193"}]},"subject":{"reference":"Patient/cc2d7c67-35cc-4b5d-9356-eceaff19ddab"},"effectiveDateTime":"2022-01-10T00:00:00+00:00","dosage":[{"doseAndRate":[{"doseQuantity":{"value":1.0,"unit":"TAB","system":"http://terminology.hl7.org/CodeSystem/v3-orderableDrugForm","code":"TAB"}}]}]}},{"fullUrl":"Encounter/e4e22c8a-d77f-4b00-8b47-7bc5dd9e3daf","resource":{"resourceType":"Encounter","id":"e4e22c8a-d77f-4b00-8b47-7bc5dd9e3daf","status":"finished","class":{"system":"http://terminology.hl7.org/CodeSystem/v3-ActCode","code":"OBSENC","display":"observation encounter"},"type":[{"coding":[{"system":"http://terminology.hl7.org/CodeSystem/encounter-type","code":"BD/BM-clin"}]}],"subject":{"reference":"Patient/cc2d7c67-35cc-4b5d-9356-eceaff19ddab"},"period":{"start":"2022-07-05T00:00:00+00:00","end":"2022-07-10T00:00:00+00:00"}}},{"fullUrl":"Encounter/d66f4f35-ba66-42eb-901f-b3ebfb8be44d","resource":{"resourceType":"Encounter","id":"d66f4f35-ba66-42eb-901f-b3ebfb8be44d","status":"finished","class":{"system":"http://terminology.hl7.org/CodeSystem/v3-ActCode","code":"OBSENC","display":"observation encounter"},"type":[{"coding":[{"system":"http://terminology.hl7.org/CodeSystem/encounter-type","code":"CCS60"}]}],"subject":{"reference":"Patient/cc2d7c67-35cc-4b5d-9356-eceaff19ddab"},"period":{"start":"2022-04-03T00:00:00+00:00","end":"2022-04-10T00:00:00+00:00"}}},{"fullUrl":"Patient/85a66959-1265-4ed0-bf9c-5a2d54ab11b4","resource":{"resourceType":"Patient","id":"85a66959-1265-4ed0-bf9c-5a2d54ab11b4","identifier":[{"type":{"coding":[{"system":"http://terminology.hl7.org/CodeSystem/v2-0203","code":"MR"}]},"system":"urn:fhirgen:mrn","value":"184-41-2962"}],"name":[{"family":"Carter","given":["Beth"]}],"gender":"female","birthDate":"1968-06-09","address":[{"line":["2065 Grant Spring Suite 705"],"city":"North David","state":"New Hampshire"}]}},{"fullUrl":"Observation/62cade95-7a67-41f1-93f8-ca755c4f4b67","resource":{"resourceType":"Observation","id":"62cade95-7a67-41f1-93f8-ca755c4f4b67","status":"final","code":{"coding":[{"system":"http://loinc.org","code":"22590-4"}]},"subject":{"reference":"Patient/85a66959-1265-4ed0-bf9c-5a2d54ab11b4"},"effectiveDateTime":"2022-02-25T00:00:00+00:00","valueRatio":{"numerator":{"value":1.0},"denominator":{"value":4.0}}}},{"fullUrl":"Observation/119dd16c-6f8a-4332-9b4c-5afa6bdf8807","resource":{"resourceType":"Observation","id":"119dd16c-6f8a-4332-9b4c-5afa6bdf8807","status":"final","code":{"coding":[{"system":"http://loinc.org","code":"47235-7"}]},"subject":{"reference":"Patient/85a66959-1265-4ed0-bf9c-5a2d54ab11b4"},"effectiveDateTime":"2022-05-19T00:00:00+00:00","valueRatio":{"numerator":{"value":1.0},"denominator":{"value":64.0}}}},{"fullUrl":"Condition/f32b4aaa-2245-4713-82da-2d9964878901","resource":{"resourceType":"Condition","id":"f32b4aaa-2245-4713-82da-2d9964878901","code":{"coding":[{"system":"http://snomed.info/sct","code":"31070006"}]},"subject":{"reference":"Patient/85a66959-1265-4ed0-bf9c-5a2d54ab11b4"},"onsetDateTime":"2022-05-21T00:00:00+00:00"}},{"fullUrl":"Condition/7d3fc24f-2fd2-44f4-a62a-ed9c8e707386","resource":{"resourceType":"Condition","id":"7d3fc24f-2fd2-44f4-a62a-ed9c8e707386","code":{"coding":[{"system":"http://snomed.info/sct","code":"386661006"}]},"subject":{"reference":"Patient/85a66959-1265-4ed0-bf9c-5a2d54ab11b4"},"onsetDateTime":"2022-09-15T00:00:00+00:00"}},{"fullUrl":"Condition/6eacdc9a-722f-43e6-b800-c691d23c1257","resource":{"resourceType":"Condition","id":"6eacdc9a-722f-43e6-b800-c691d23c1257","code":{"coding":[{"system":"http://snomed.info/sct","code":"386661006"}]},"subject":{"reference":"Patient/85a66959-1265-4ed0-bf9c-5a2d54ab11b4"},"onsetDateTime":"2022-08-19T00:00:00+00:00"}},{"fullUrl":"Condition/bf07d279-3029-42a1-9b70-bcd34faddc4a","resource":{"resourceType":"Condition","id":"bf07d279-3029-42a1-9b70-bcd34faddc4a","code":{"coding":[{"system":"http://snomed.info/sct","code":"248980004"}]},"subject":{"reference":"Patient/85a66959-1265-4ed0-bf9c-5a2d54ab11b4"},"onsetDateTime":"2022-07-30T00:00:00+00:00"}},{"fullUrl":"Condition/8d883993-5c54-4546-85aa-54476557e017","resource":{"resourceType":"Condition","id":"8d883993-5c54-4546-85aa-54476557e017","code":{"coding":[{"system":"http://snomed.info/sct","code":"271807003"}]},"subject":{"reference":"Patient/85a66959-1265-4ed0-bf9c-5a2d54ab11b4"},"onsetDateTime":"2022-11-17T00:00:00+00:00"}},{"fullUrl":"Condition/a88b8f0b-fab3-4208-be68-bf907bb0bab1","resource":{"resourceType":"Condition","id":"a88b8f0b-fab3-4208-be68-bf907bb0bab1","code":{"coding":[{"system":"http://snomed.info/sct","code":"18165001"}]},"subject":{"reference":"Patient/85a66959-1265-4ed0-bf9c-5a2d54ab11b4"},"onsetDateTime":"2022-08-20T00:00:00+00:00"}},{"fullUrl":"Condition/563a955c-8d3d-42be-9d90-362d22268c3e","resource":{"resourceType":"Condition","id":"563a955c-8d3d-42be-9d90-362d22268c3e","code":{"coding":[{"system":"http://snomed.info/sct","code":"271939006"}]},"subject":{"reference":"Patient/85a66959-1265-4ed0-bf9c-5a2d54ab11b4"},"onsetDateTime":"2022-02-19T00:00:00+00:00"}},{"fullUrl":"Observation/dc330328-af97-4156-8c52-74b53bcc9ad8","resource":{"resourceType":"Observation","id":"dc330328-af97-4156-8c52-74b53bcc9ad8","status":"final","code":{"coding":[{"system":"http://loinc.org","code":"804-5"}]},"subject":{"reference":"Patient/85a66959-1265-4ed0-bf9c-5a2d54ab11b4"},"effectiveDateTime":"2022-08-12T00:00:00+00:00","valueQuantity":{"value":6.3}}},{"fullUrl":"Observation/b906301f-88af-4ed6-8e5f-abc8b5653401","resource":{"resourceType":"Observation","id":"b906301f-88af-4ed6-8e5f-abc8b5653401","status":"final","code":{"coding":[{"system":"http://www.ama-assn.org/go/cpt","code":"85048"}]},"subject":{"reference":"Patient/85a66959-1265-4ed0-bf9c-5a2d54ab11b4"},"effectiveDateTime":"2022-12-10T00:00:00+00:00","valueQuantity":{"value":7.4}}},{"fullUrl":"Observation/ec5d6b34-5d6d-40ad-b765-061f2f5406ec","resource":{"resourceType":"Observation","id":"ec5d6b34-5d6d-40ad-b765-061f2f5406ec","status":"final","code":{"coding":[{"system":"http://loinc.org","code":"26464-8"}]},"subject":{"reference":"Patient/85a66959-1265-4ed0-bf9c-5a2d54ab11b4"},"effectiveDateTime":"2022-02-05T00:00:00+00:00","valueQuantity":{"value":4.6}}},{"fullUrl":"Procedure/f8bf4155-f79e-41c0-a527-5563317bc56a","resource":{"resourceType":"Procedure","id":"f8bf4155-f79e-41c0-a527-5563317bc56a","status":"completed","code":{"coding":[{"system":"http://snomed.info/sct","code":"146005"}]},"subject":{"reference":"Patient/85a66959-1265-4ed0-bf9c-5a2d54ab11b4"},"performedDateTime":"2022-06-30T00:00:00+00:00"}},{"fullUrl":"Procedure/b86ed67f-24b7-423d-999c-7edebbc7fcb9","resource":{"resourceType":"Procedure","id":"b86ed67f-24b7-423d-999c-7edebbc7fcb9","status":"completed","code":{"coding":[{"system":"http://snomed.info/sct","code":"647000"}]},"subject":{"reference":"Patient/85a66959-1265-4ed0-bf9c-5a2d54ab11b4"},"performedDateTime":"2022-12-06T00:00:00+00:00"}},{"fullUrl":"Procedure/b3757511-2483-4f6c-b58e-2d5955d3673b","resource":{"resourceType":"Procedure","id":"b3757511-2483-4f6c-b58e-2d5955d3673b","status":"completed","code":{"coding":[{"system":"http://snomed.info/sct","code":"146005"}]},"subject":{"reference":"Patient/85a66959-1265-4ed0-bf9c-5a2d54ab11b4"},"performedDateTime":"2022-11-01T00:00:00+00:00"}},{"fullUrl":"MedicationStatement/f255c700-5757-4f7b-ab12-666377463e6e","resource":{"resourceType":"MedicationStatement","id":"f255c700-5757-4f7b-ab12-666377463e6e","status":"completed","medicationCodeableConcept":{"coding":[{"system":"http://www.nlm.nih.gov/research/umls/rxnorm","code":"7984"}]},"subject":{"reference":"Patient/85a66959-1265-4ed0-bf9c-5a2d54ab11b4"},"effectiveDateTime":"2022-09-21T00:00:00+00:00","dosage":[{"doseAndRate":[{"doseQuantity":{"value":2.0,"unit":"TAB","system":"http://terminology.hl7.org/CodeSystem/v3-orderableDrugForm","code":"TAB"}}]}]}},{"fullUrl":"MedicationStatement/6b5be89c-1a6c-4664-8288-450fd6ee9a98","resource":{"resourceType":"MedicationStatement","id":"6b5be89c-1a6c-4664-8288-450fd6ee9a98","status":"completed","medicationCodeableConcept":{"coding":[{"system":"http://www.nlm.nih.gov/research/umls/rxnorm","code":"2193"}]},"subject":{"reference":"Patient/85a66959-1265-4ed0-bf9c-5a2d54ab11b4"},"effectiveDateTime":"2022-10-19T00:00:00+00:00","dosage":[{"doseAndRate":[{"doseQuantity":{"value":1.0,"unit":"TAB","system":"http://terminology.hl7.org/CodeSystem/v3-orderableDrugForm","code":"TAB"}}]}]}},{"fullUrl":"MedicationStatement/d0054f87-2599-4ff9-906f-cf2e75bc9904","resource":{"resourceType":"MedicationStatement","id":"d0054f87-2599-4ff9-906f-cf2e75bc9904","status":"completed","medicationCodeableConcept":{"coding":[{"system":"http://www.nlm.nih.gov/research/umls/rxnorm","code":"2193"}]},"subject":{"reference":"Patient/85a66959-1265-4ed0-bf9c-5a2d54ab11b4"},"effectiveDateTime":"2022-10-16T00:00:00+00:00","dosage":[{"doseAndRate":[{"doseQuantity":{"value":2.0,"unit":"TAB","system":"http://terminology.hl7.org/CodeSystem/v3-orderableDrugForm","code":"TAB"}}]}]}},{"fullUrl":"MedicationStatement/5a8d7f17-03c0-4b0e-ba04-cf5e4330d175","resource":{"resourceType":"MedicationStatement","id":"5a8d7f17-03c0-4b0e-ba04-cf5e4330d175","status":"completed","medicationCodeableConcept":{"coding":[{"system":"http://www.nlm.nih.gov/research/umls/rxnorm","code":"8698"}]},"subject":{"reference":"Patient/85a66959-1265-4ed0-bf9c-5a2d54ab11b4"},"effectiveDateTime":"2022-04-29T00:00:00+00:00","dosage":[{"doseAndRate":[{"doseQuantity":{"value":2.0,"unit":"TAB","system":"http://terminology.hl7.org/CodeSystem/v3-orderableDrugForm","code":"TAB"}}]}]}},{"fullUrl":"MedicationStatement/8f8a197e-cf6e-4770-88e4-7b3014525d74","resource":{"resourceType":"MedicationStatement","id":"8f8a197e-cf6e-4770-88e4-7b3014525d74","status":"completed","medicationCodeableConcept":{"coding":[{"system":"http://www.nlm.nih.gov/research/umls/rxnorm","code":"7980"}]},"subject":{"reference":"Patient/85a66959-1265-4ed0-bf9c-5a2d54ab11b4"},"effectiveDateTime":"2022-03-16T00:00:00+00:00","dosage":[{"doseAndRate":[{"doseQuantity":{"value":1.0,"unit":"TAB","system":"http://terminology.hl7.org/CodeSystem/v3-orderableDrugForm","code":"TAB"}}]}]}},{"fullUrl":"MedicationStatement/8c3e4ace-3f44-4767-b6cd-397460179921","resource":{"resourceType":"MedicationStatement","id":"8c3e4ace-3f44-4767-b6cd-397460179921","status":"completed","medicationCodeableConcept":{"coding":[{"system":"http://www.nlm.nih.gov/research/umls/rxnorm","code":"3640"}]},"subject":{"reference":"Patient/85a66959-1265-4ed0-bf9c-5a2d54ab11b4"},"effectiveDateTime":"2022-02-13T00:00:00+00:00","dosage":[{"doseAndRate":[{"doseQuantity":{"value":2.0,"unit":"TAB","system":"http://terminology.hl7.org/CodeSystem/v3-orderableDrugForm","code":"TAB"}}]}]}},{"fullUrl":"MedicationStatement/5f47062a-0dca-4f27-81ec-d88826dfb8aa","resource":{"resourceType":"MedicationStatement","id":"5f47062a-0dca-4f27-81ec-d88826dfb8aa","status":"completed","medicationCodeableConcept":{"coding":[{"system":"http://www.nlm.nih.gov/research/umls/rxnorm","code":"18631"}]},"subject":{"reference":"Patient/85a66959-1265-4ed0-bf9c-5a2d54ab11b4"},"effectiveDateTime":"2022-04-23T00:00:00+00:00","dosage":[{"doseAndRate":[{"doseQuantity":{"value":2.0,"unit":"TAB","system":"http://terminology.hl7.org/CodeSystem/v3-orderableDrugForm","code":"TAB"}}]}]}},{"fullUrl":"Encounter/6cd19717-9989-4664-b42a-77a1553961fb","resource":{"resourceType":"Encounter","id":"6cd19717-9989-4664-b42a-77a1553961fb","status":"finished","class":{"system":"http://terminology.hl7.org/CodeSystem/v3-ActCode","code":"EMER","display":"emergency"},"type":[{"coding":[{"system":"http://terminology.hl7.org/CodeSystem/encounter-type","code":"BD/BM-clin"}]}],"subject":{"reference":"Patient/85a66959-1265-4ed0-bf9c-5a2d54ab11b4"},"period":{"start":"2022-01-18T00:00:00+00:00","end":"2022-01-20T00:00:00+00:00"}}},{"fullUrl":"Encounter/3a4307fa-cd66-49b4-9569-326688f9c4f5","resource":{"resourceType":"Encounter","id":"3a4307fa-cd66-49b4-9569-326688f9c4f5","status":"finished","class":{"system":"http://terminology.hl7.org/CodeSystem/v3-ActCode","code":"NONAC","display":"inpatient non-acute"},"type":[{"coding":[{"system":"http://terminology.hl7.org/CodeSystem/encounter-type","code":"ADMS"}]}],"subject":{"reference":"Patient/85a66959-1265-4ed0-bf9c-5a2d54ab11b4"},"period":{"start":"2022-08-09T00:00:00+00:00","end":"2022-08-18T00:00:00+00:00"}}},{"fullUrl":"Patient/a8b35e63-e331-493c-a0b6-1c77c34af2db","resource":{"resourceType":"Patient","id":"a8b35e63-e331-493c-a0b6-1c77c34af2db","identifier":[{"type":{"coding":[{"system":"http://terminology.hl7.org/CodeSystem/v2-0203","code":"MR"}]},"system":"urn:fhirgen:mrn","value":"288-56-3984"}],"name":[{"family":"Cervantes","given":["Danielle"]}],"gender":"female","birthDate":"1954-07-16","address":[{"line":["5745 Hernandez Landing Suite 581"],"city":"Mckenziemouth","state":"Michigan"}]}},{"fullUrl":"Observation/ba88a6a4-7f37-4ee5-9534-8d8bfa306f98","resource":{"resourceType":"Observation","id":"ba88a6a4-7f37-4ee5-9534-8d8bfa306f98","status":"final","code":{"coding":[{"system":"http://loinc.org","code":"11084-1"}]},"subject":{"reference":"Patient/a8b35e63-e331-493c-a0b6-1c77c34af2db"},"effectiveDateTime":"2022-12-04T00:00:00+00:00","valueRatio":{"numerator":{"value":1.0},"denominator":{"value":4.0}}}},{"fullUrl":"Observation/35e96af2-8cdf-4870-987c-938e0b6ca819","resource":{"resourceType":"Observation","id":"35e96af2-8cdf-4870-987c-938e0b6ca819","status":"final","code":{"coding":[{"system":"http://loinc.org","code":"26009-1"}]},"subject":{"reference":"Patient/a8b35e63-e331-493c-a0b6-1c77c34af2db"},"effectiveDateTime":"2022-12-14T00:00:00+00:00","valueRatio":{"numerator":{"value":1.0},"denominator":{"value":32.0}}}},{"fullUrl":"Observation/6cc49f35-cec2-4f76-afa1-3cbe242359d6","resource":{"resourceType":"Observation","id":"6cc49f35-cec2-4f76-afa1-3cbe242359d6","status":"final","code":{"coding":[{"system":"http://loinc.org","code":"11084-1"}]},"subject":{"reference":"Patient/a8b35e63-e331-493c-a0b6-1c77c34af2db"},"effectiveDateTime":"2022-12-04T00:00:00+00:00","valueRatio":{"numerator":{"value":1.0},"denominator":{"value":64.0}}}},{"fullUrl":"Condition/70c93048-2c0a-4143-97b4-d3037b59e800","resource":{"resourceType":"Condition","id":"70c93048-2c0a-4143-97b4-d3037b59e800","code":{"coding":[{"system":"http://snomed.info/sct","code":"3951002"}]},"subject":{"reference":"Patient/a8b35e63-e331-493c-a0b6-1c77c34af2db"},"onsetDateTime":"2022-07-04T00:00:00+00:00"}},{"fullUrl":"Condition/1cca5799-0a88-4b43-8038-28716a400ad8","resource":{"resourceType":"Condition","id":"1cca5799-0a88-4b43-8038-28716a400ad8","code":{"coding":[{"system":"http://snomed.info/sct","code":"405737000"}]},"subject":{"reference":"Patient/a8b35e63-e331-493c-a0b6-1c77c34af2db"},"onsetDateTime":"2022-09-10T00:00:00+00:00"}},{"fullUrl":"Condition/0e6dd1bb-3942-4431-ad07-fb2d0e9a630a","resource":{"resourceType":"Condition","id":"0e6dd1bb-3942-4431-ad07-fb2d0e9a630a","code":{"coding":[{"system":"http://snomed.info/sct","code":"3951002"}]},"subject":{"reference":"Patient/a8b35e63-e331-493c-a0b6-1c77c34af2db"},"onsetDateTime":"2022-05-31T00:00:00+00:00"}},{"fullUrl":"Condition/4ad020cc-52be-4f3d-b074-7f1df7b0ae08","resource":{"resourceType":"Condition","id":"4ad020cc-52be-4f3d-b074-7f1df7b0ae08","code":{"coding":[{"system":"http://snomed.info/sct","code":"30746006"}]},"subject":{"reference":"Patient/a8b35e63-e331-493c-a0b6-1c77c34af2db"},"onsetDateTime":"2022-09-12T00:00:00+00:00"}},{"fullUrl":"Condition/b5420ce7-7002-41e0-b58b-7cd6dc137711","resource":{"resourceType":"Condition","id":"b5420ce7-7002-41e0-b58b-7cd6dc137711","code":{"coding":[{"system":"http://snomed.info/sct","code":"709977002"}]},"subject":{"reference":"Patient/a8b35e63-e331-493c-a0b6-1c77c34af2db"},"onsetDateTime":"2022-09-27T00:00:00+00:00"}},{"fullUrl":"Condition/05fdeda8-e1b0-4f0b-b4c1-4129754ef239","resource":{"resourceType":"Condition","id":"05fdeda8-e1b0-4f0b-b4c1-4129754ef239","code":{"coding":[{"system":"http://snomed.info/sct","code":"31070006"}]},"subject":{"reference":"Patient/a8b35e63-e331-493c-a0b6-1c77c34af2db"},"onsetDateTime":"2022-08-18T00:00:00+00:00"}},{"fullUrl":"Observation/504b2ef5-e51b-438c-b41c-bc1d5832a0e1","resource":{"resourceType":"Observation","id":"504b2ef5-e51b-438c-b41c-bc1d5832a0e1","status":"final","code":{"coding":[{"system":"http://loinc.org","code":"26464-8"}]},"subject":{"reference":"Patient/a8b35e63-e331-493c-a0b6-1c77c34af2db"},"effectiveDateTime":"2022-09-07T00:00:00+00:00","valueQuantity":{"value":5.6}}},{"fullUrl":"Observation/ca6cd0de-a665-40a9-b469-46a637cc33fe","resource":{"resourceType":"Observation","id":"ca6cd0de-a665-40a9-b469-46a637cc33fe","status":"final","code":{"coding":[{"system":"http://loinc.org","code":"26464-8"}]},"subject":{"reference":"Patient/a8b35e63-e331-493c-a0b6-1c77c34af2db"},"effectiveDateTime":"2022-06-27T00:00:00+00:00","valueQuantity":{"value":10.5}}},{"fullUrl":"Procedure/17d75926-bdaf-42f4-a16d-cf37f918ed0b","resource":{"resourceType":"Procedure","id":"17d75926-bdaf-42f4-a16d-cf37f918ed0b","status":"completed","code":{"coding":[{"system":"http://snomed.info/sct","code":"146005"}]},"subject":{"reference":"Patient/a8b35e63-e331-493c-a0b6-1c77c34af2db"},"performedDateTime":"2022-06-28T00:00:00+00:00"}},{"fullUrl":"Procedure/8aaf7949-160a-4a65-a87e-d573b0d2d70f","resource":{"resourceType":"Procedure","id":"8aaf7949-160a-4a65-a87e-d573b0d2d70f","status":"completed","code":{"coding":[{"system":"http://snomed.info/sct","code":"115006"}]},"subject":{"reference":"Patient/a8b35e63-e331-493c-a0b6-1c77c34af2db"},"performedDateTime":"2022-10-29T00:00:00+00:00"}},{"fullUrl":"Procedure/e902fd8c-c541-4e06-9c42-c381251fc9b2","resource":{"resourceType":"Procedure","id":"e902fd8c-c541-4e06-9c42-c381251fc9b2","status":"completed","code":{"coding":[{"system":"http://snomed.info/sct","code":"115006"}]},"subject":{"reference":"Patient/a8b35e63-e331-493c-a0b6-1c77c34af2db"},"performedDateTime":"2022-08-05T00:00:00+00:00"}},{"fullUrl":"MedicationStatement/49be1e73-3cfa-417b-b8f5-dfecc7941a25","resource":{"resourceType":"MedicationStatement","id":"49be1e73-3cfa-417b-b8f5-dfecc7941a25","status":"completed","medicationCodeableConcept":{"coding":[{"system":"http://www.nlm.nih.gov/research/umls/rxnorm","code":"2193"}]},"subject":{"reference":"Patient/a8b35e63-e331-493c-a0b6-1c77c34af2db"},"effectiveDateTime":"2022-05-25T00:00:00+00:00","dosage":[{"doseAndRate":[{"doseQuantity":{"value":1.0,"unit":"TAB","system":"http://terminology.hl7.org/CodeSystem/v3-orderableDrugForm","code":"TAB"}}]}]}},{"fullUrl":"MedicationStatement/9cf28480-0887-44b3-b9f1-ecda321b2665","resource":{"resourceType":"MedicationStatement","id":"9cf28480-0887-44b3-b9f1-ecda321b2665","status":"completed","medicationCodeableConcept":{"coding":[{"system":"http://www.nlm.nih.gov/research/umls/rxnorm","code":"7980"}]},"subject":{"reference":"Patient/a8b35e63-e331-493c-a0b6-1c77c34af2db"},"effectiveDateTime":"2022-07-03T00:00:00+00:00","dosage":[{"doseAndRate":[{"doseQuantity":{"value":2.0,"unit":"TAB","system":"http://terminology.hl7.org/CodeSystem/v3-orderableDrugForm","code":"TAB"}}]}]}},{"fullUrl":"MedicationStatement/6b9ecad8-4a5c-4c8f-9f17-d225db8e075b","resource":{"resourceType":"MedicationStatement","id":"6b9ecad8-4a5c-4c8f-9f17-d225db8e075b","status":"completed","medicationCodeableConcept":{"coding":[{"system":"http://www.nlm.nih.gov/research/umls/rxnorm","code":"2193"}]},"subject":{"reference":"Patient/a8b35e63-e331-493c-a0b6-1c77c34af2db"},"effectiveDateTime":"2022-06-24T00:00:00+00:00","dosage":[{"doseAndRate":[{"doseQuantity":{"value":2.0,"unit":"TAB","system":"http://terminology.hl7.org/CodeSystem/v3-orderableDrugForm","code":"TAB"}}]}]}},{"fullUrl":"MedicationStatement/5dff11b1-c83a-4ac8-8d22-6abab3687ef2","resource":{"resourceType":"MedicationStatement","id":"5dff11b1-c83a-4ac8-8d22-6abab3687ef2","status":"completed","medicationCodeableConcept":{"coding":[{"system":"http://www.nlm.nih.gov/research/umls/rxnorm","code":"18631"}]},"subject":{"reference":"Patient/a8b35e63-e331-493c-a0b6-1c77c34af2db"},"effectiveDateTime":"2022-08-23T00:00:00+00:00","dosage":[{"doseAndRate":[{"doseQuantity":{"value":2.0,"unit":"TAB","system":"http://terminology.hl7.org/CodeSystem/v3-orderableDrugForm","code":"TAB"}}]}]}},{"fullUrl":"MedicationStatement/a9fcc0ea-1bcc-4841-b023-5741660ca5aa","resource":{"resourceType":"MedicationStatement","id":"a9fcc0ea-1bcc-4841-b023-5741660ca5aa","status":"completed","medicationCodeableConcept":{"coding":[{"system":"http://www.nlm.nih.gov/research/umls/rxnorm","code":"18631"}]},"subject":{"reference":"Patient/a8b35e63-e331-493c-a0b6-1c77c34af2db"},"effectiveDateTime":"2022-06-02T00:00:00+00:00","dosage":[{"doseAndRate":[{"doseQuantity":{"value":1.0,"unit":"TAB","system":"http://terminology.hl7.org/CodeSystem/v3-orderableDrugForm","code":"TAB"}}]}]}},{"fullUrl":"MedicationStatement/dfa70e05-71f9-4ed2-81f1-f1d3f8c16c11","resource":{"resourceType":"MedicationStatement","id":"dfa70e05-71f9-4ed2-81f1-f1d3f8c16c11","status":"completed","medicationCodeableConcept":{"coding":[{"system":"http://www.nlm.nih.gov/research/umls/rxnorm","code":"8698"}]},"subject":{"reference":"Patient/a8b35e63-e331-493c-a0b6-1c77c34af2db"},"effectiveDateTime":"2022-11-15T00:00:00+00:00","dosage":[{"doseAndRate":[{"doseQuantity":{"value":2.0,"unit":"TAB","system":"http://terminology.hl7.org/CodeSystem/v3-orderableDrugForm","code":"TAB"}}]}]}},{"fullUrl":"MedicationStatement/316bf2e0-f412-4ff5-8164-e2feee5d60a9","resource":{"resourceType":"MedicationStatement","id":"316bf2e0-f412-4ff5-8164-e2feee5d60a9","status":"completed","medicationCodeableConcept":{"coding":[{"system":"http://www.nlm.nih.gov/research/umls/rxnorm","code":"7980"}]},"subject":{"reference":"Patient/a8b35e63-e331-493c-a0b6-1c77c34af2db"},"effectiveDateTime":"2022-06-11T00:00:00+00:00","dosage":[{"doseAndRate":[{"doseQuantity":{"value":1.0,"unit":"TAB","system":"http://terminology.hl7.org/CodeSystem/v3-orderableDrugForm","code":"TAB"}}]}]}},{"fullUrl":"Encounter/3765d82b-25e8-419d-8390-5ae850a0e222","resource":{"resourceType":"Encounter","id":"3765d82b-25e8-419d-8390-5ae850a0e222","status":"finished","class":{"system":"http://terminology.hl7.org/CodeSystem/v3-ActCode","code":"FLD","display":"field"},"type":[{"coding":[{"system":"http://terminology.hl7.org/CodeSystem/encounter-type","code":"CCS60"}]}],"subject":{"reference":"Patient/a8b35e63-e331-493c-a0b6-1c77c34af2db"},"period":{"start":"2022-12-06T00:00:00+00:00","end":"2022-12-15T00:00:00+00:00"}}},{"fullUrl":"Encounter/93664dd4-1913-40f0-b6c8-e1b4eef8a991","resource":{"resourceType":"Encounter","id":"93664dd4-1913-40f0-b6c8-e1b4eef8a991","status":"finished","class":{"system":"http://terminology.hl7.org/CodeSystem/v3-ActCode","code":"OBSENC","display":"observation encounter"},"type":[{"coding":[{"system":"http://terminology.hl7.org/CodeSystem/encounter-type","code":"ADMS"}]}],"subject":{"reference":"Patient/a8b35e63-e331-493c-a0b6-1c77c34af2db"},"period":{"start":"2022-04-03T00:00:00+00:00","end":"2022-04-07T00:00:00+00:00"}}},{"fullUrl":"Patient/014b4f0d-e42a-4a0f-bf94-a1a3369b8aa7","resource":{"resourceType":"Patient","id":"014b4f0d-e42a-4a0f-bf94-a1a3369b8aa7","identifier":[{"type":{"coding":[{"system":"http://terminology.hl7.org/CodeSystem/v2-0203","code":"MR"}]},"system":"urn:fhirgen:mrn","value":"290-97-3695"}],"name":[{"family":"Nelson","given":["Alyssa"]}],"gender":"other","birthDate":"1981-06-17","address":[{"line":["2051 Ashlee Skyway"],"city":"Mckinneychester","state":"Maryland"}]}},{"fullUrl":"Observation/3afec4ae-26fb-4e71-810f-9155b2a58ffd","resource":{"resourceType":"Observation","id":"3afec4ae-26fb-4e71-810f-9155b2a58ffd","status":"final","code":{"coding":[{"system":"http://loinc.org","code":"47476-7"}]},"subject":{"reference":"Patient/014b4f0d-e42a-4a0f-bf94-a1a3369b8aa7"},"effectiveDateTime":"2022-09-02T00:00:00+00:00","valueRatio":{"numerator":{"value":1.0},"denominator":{"value":64.0}}}},{"fullUrl":"Observation/61f346f1-6687-4a35-9898-77492e6880b7","resource":{"resourceType":"Observation","id":"61f346f1-6687-4a35-9898-77492e6880b7","status":"final","code":{"coding":[{"system":"http://loinc.org","code":"87925-4"}]},"subject":{"reference":"Patient/014b4f0d-e42a-4a0f-bf94-a1a3369b8aa7"},"effectiveDateTime":"2022-02-27T00:00:00+00:00","valueRatio":{"numerator":{"value":1.0},"denominator":{"value":4.0}}}},{"fullUrl":"Condition/7b65015e-45d7-4fe1-a5d8-40711bac626f","resource":{"resourceType":"Condition","id":"7b65015e-45d7-4fe1-a5d8-40711bac626f","code":{"coding":[{"system":"http://snomed.info/sct","code":"30746006"}]},"subject":{"reference":"Patient/014b4f0d-e42a-4a0f-bf94-a1a3369b8aa7"},"onsetDateTime":"2022-04-30T00:00:00+00:00"}},{"fullUrl":"Condition/12955a2a-729d-44e8-b8d9-1b99234fca90","resource":{"resourceType":"Condition","id":"12955a2a-729d-44e8-b8d9-1b99234fca90","code":{"coding":[{"system":"http://snomed.info/sct","code":"91554004"}]},"subject":{"reference":"Patient/014b4f0d-e42a-4a0f-bf94-a1a3369b8aa7"},"onsetDateTime":"2022-08-27T00:00:00+00:00"}},{"fullUrl":"Condition/03c47cca-9b81-4462-a338-fe8188c1361d","resource":{"resourceType":"Condition","id":"03c47cca-9b81-4462-a338-fe8188c1361d","code":{"coding":[{"system":"http://snomed.info/sct","code":"91554004"}]},"subject":{"reference":"Patient/014b4f0d-e42a-4a0f-bf94-a1a3369b8aa7"},"onsetDateTime":"2022-04-25T00:00:00+00:00"}},{"fullUrl":"Condition/456a631a-cd22-4e2d-a923-35b7f5bc2507","resource":{"resourceType":"Condition","id":"456a631a-cd22-4e2d-a923-35b7f5bc2507","code":{"coding":[{"system":"http://snomed.info/sct","code":"405737000"}]},"subject":{"reference":"Patient/014b4f0d-e42a-4a0f-bf94-a1a3369b8aa7"},"onsetDateTime":"2022-12-15T00:00:00+00:00"}},{"fullUrl":"Condition/b09ff5dc-f47b-40f8-b6f5-af2fc2f6c228","resource":{"resourceType":"Condition","id":"b09ff5dc-f47b-40f8-b6f5-af2fc2f6c228","code":{"coding":[{"system":"http://snomed.info/sct","code":"418290006"}]},"subject":{"reference":"Patient/014b4f0d-e42a-4a0f-bf94-a1a3369b8aa7"},"onsetDateTime":"2022-02-14T00:00:00+00:00"}},{"fullUrl":"Condition/6a39e9d6-f027-49c4-adb2-b544e9d4697c","resource":{"resourceType":"Condition","id":"6a39e9d6-f027-49c4-adb2-b544e9d4697c","code":{"coding":[{"system":"http://snomed.info/sct","code":"198199009"}]},"subject":{"reference":"Patient/014b4f0d-e42a-4a0f-bf94-a1a3369b8aa7"},"onsetDateTime":"2022-03-15T00:00:00+00:00"}},{"fullUrl":"Condition/113b6989-8858-40b2-9c5d-201b2b199378","resource":{"resourceType":"Condition","id":"113b6989-8858-40b2-9c5d-201b2b199378","code":{"coding":[{"system":"http://snomed.info/sct","code":"3951002"}]},"subject":{"reference":"Patient/014b4f0d-e42a-4a0f-bf94-a1a3369b8aa7"},"onsetDateTime":"2022-01-02T00:00:00+00:00"}},{"fullUrl":"Observation/26a3348c-d4b1-45c4-93e9-d465e36bb4bd","resource":{"resourceType":"Observation","id":"26a3348c-d4b1-45c4-93e9-d465e36bb4bd","status":"final","code":{"coding":[{"system":"http://loinc.org","code":"26464-8"}]},"subject":{"reference":"Patient/014b4f0d-e42a-4a0f-bf94-a1a3369b8aa7"},"effectiveDateTime":"2022-05-16T00:00:00+00:00","valueQuantity":{"value":8.7}}},{"fullUrl":"Observation/4572be04-a1ea-478d-b256-33aa5a345775","resource":{"resourceType":"Observation","id":"4572be04-a1ea-478d-b256-33aa5a345775","status":"final","code":{"coding":[{"system":"http://loinc.org","code":"6690-2"}]},"subject":{"reference":"Patient/014b4f0d-e42a-4a0f-bf94-a1a3369b8aa7"},"effectiveDateTime":"2022-07-30T00:00:00+00:00","valueQuantity":{"value":6.1}}},{"fullUrl":"Observation/f8cffc69-1023-4fc6-91d3-eac85060f9af","resource":{"resourceType":"Observation","id":"f8cffc69-1023-4fc6-91d3-eac85060f9af","status":"final","code":{"coding":[{"system":"http://loinc.org","code":"26464-8"}]},"subject":{"reference":"Patient/014b4f0d-e42a-4a0f-bf94-a1a3369b8aa7"},"effectiveDateTime":"2022-11-01T00:00:00+00:00","valueQuantity":{"value":9.1}}},{"fullUrl":"Procedure/2a074b12-ece0-4d5e-8649-8051c68b8f90","resource":{"resourceType":"Procedure","id":"2a074b12-ece0-4d5e-8649-8051c68b8f90","status":"completed","code":{"coding":[{"system":"http://snomed.info/sct","code":"115006"}]},"subject":{"reference":"Patient/014b4f0d-e42a-4a0f-bf94-a1a3369b8aa7"},"performedDateTime":"2022-03-07T00:00:00+00:00"}},{"fullUrl":"Procedure/533ebb7f-bc12-4262-bd0b-1363102583cc","resource":{"resourceType":"Procedure","id":"533ebb7f-bc12-4262-bd0b-1363102583cc","status":"completed","code":{"coding":[{"system":"http://snomed.info/sct","code":"146005"}]},"subject":{"reference":"Patient/014b4f0d-e42a-4a0f-bf94-a1a3369b8aa7"},"performedDateTime":"2022-12-07T00:00:00+00:00"}},{"fullUrl":"Procedure/cfdea980-5f39-4443-a95d-0905a6936252","resource":{"resourceType":"Procedure","id":"cfdea980-5f39-4443-a95d-0905a6936252","status":"completed","code":{"coding":[{"system":"http://snomed.info/sct","code":"115006"}]},"subject":{"reference":"Patient/014b4f0d-e42a-4a0f-bf94-a1a3369b8aa7"},"performedDateTime":"2022-05-28T00:00:00+00:00"}},{"fullUrl":"MedicationStatement/7dfcd232-1e5d-423b-a67d-2fe79f02b736","resource":{"resourceType":"MedicationStatement","id":"7dfcd232-1e5d-423b-a67d-2fe79f02b736","status":"completed","medicationCodeableConcept":{"coding":[{"system":"http://www.nlm.nih.gov/research/umls/rxnorm","code":"2193"}]},"subject":{"reference":"Patient/014b4f0d-e42a-4a0f-bf94-a1a3369b8aa7"},"effectiveDateTime":"2022-06-29T00:00:00+00:00","dosage":[{"doseAndRate":[{"doseQuantity":{"value":1.0,"unit":"TAB","system":"http://terminology.hl7.org/CodeSystem/v3-orderableDrugForm","code":"TAB"}}]}]}},{"fullUrl":"MedicationStatement/78e29a6e-eb49-41e1-8908-f2760a713508","resource":{"resourceType":"MedicationStatement","id":"78e29a6e-eb49-41e1-8908-f2760a713508","status":"completed","medicationCodeableConcept":{"coding":[{"system":"http://www.nlm.nih.gov/research/umls/rxnorm","code":"10395"}]},"subject":{"reference":"Patient/014b4f0d-e42a-4a0f-bf94-a1a3369b8aa7"},"effectiveDateTime":"2022-12-23T00:00:00+00:00","dosage":[{"doseAndRate":[{"doseQuantity":{"value":2.0,"unit":"TAB","system":"http://terminology.hl7.org/CodeSystem/v3-orderableDrugForm","code":"TAB"}}]}]}},{"fullUrl":"Encounter/193a319e-fa15-4cd3-a843-cc9392afdcd2","resource":{"resourceType":"Encounter","id":"193a319e-fa15-4cd3-a843-cc9392afdcd2","status":"finished","class":{"system":"http://terminology.hl7.org/CodeSystem/v3-ActCode","code":"OBSENC","display":"observation encounter"},"type":[{"coding":[{"system":"http://terminology.hl7.org/CodeSystem/encounter-type","code":"CCS60"}]}],"subject":{"reference":"Patient/014b4f0d-e42a-4a0f-bf94-a1a3369b8aa7"},"period":{"start":"2022-07-12T00:00:00+00:00","end":"2022-07-19T00:00:00+00:00"}}},{"fullUrl":"Encounter/6e798c8f-1936-4fbe-84c3-ec775cd013a2","resource":{"resourceType":"Encounter","id":"6e798c8f-1936-4fbe-84c3-ec775cd013a2","status":"finished","class":{"system":"http://terminology.hl7.org/CodeSystem/v3-ActCode","code":"FLD","display":"field"},"type":[{"coding":[{"system":"http://terminology.hl7.org/CodeSystem/encounter-type","code":"OKI"}]}],"subject":{"reference":"Patient/014b4f0d-e42a-4a0f-bf94-a1a3369b8aa7"},"period":{"start":"2022-12-16T00:00:00+00:00","end":"2022-12-22T00:00:00+00:00"}}},{"fullUrl":"Encounter/461516dc-6f4e-4117-8990-19664f3cdc32","resource":{"resourceType":"Encounter","id":"461516dc-6f4e-4117-8990-19664f3cdc32","status":"finished","class":{"system":"http://terminology.hl7.org/CodeSystem/v3-ActCode","code":"PRENC","display":"pre-admission"},"type":[{"coding":[{"system":"http://terminology.hl7.org/CodeSystem/encounter-type","code":"OKI"}]}],"subject":{"reference":"Patient/014b4f0d-e42a-4a0f-bf94-a1a3369b8aa7"},"period":{"start":"2022-04-30T00:00:00+00:00","end":"2022-05-01T00:00:00+00:00"}}}]}