{"resourceType":"Bundle","id":"9cdbfe2f-0274-4fd6-96a7-3d6f67bcfdec","type":"transaction","entry":[{"fullUrl":"Patient/03060f38-7b1d-4019-9e64-815cb0b3f31e","resource":{"resourceType":"Patient","id":"03060f38-7b1d-4019-9e64-815cb0b3f31e","identifier":[{"type":{"coding":[{"system":"http://terminology.hl7.org/CodeSystem/v2-0203","code":"MR"}]},"system":"urn:fhirgen:mrn","value":"718-76-0279"},{"type":{"coding":[{"system":"http://terminology.hl7.org/CodeSystem/v2-0203","code":"SS"}]},"system":"http://hl7.org/fhir/sid/us-ssn","value":"640-30-2238"}],"name":[{"use":"official","family":"Gonzalez","given":["Paul"]},{"use":"maiden","family":"Ford"}],"telecom":[{"system":"phone","value":"902.427.6049x18695","use":"home"},{"system":"email","value":"dtaylor@yahoo.com","use":"mobile"}],"gender":"male","birthDate":"1986-11-24","address":[{"use":"home","line":["89316 Morales Station"],"city":"Mariaburgh","state":"MA","postalCode":"42586"},{"use":"old","line":["4334 Mendez Corners"],"city":"North Veronica","state":"AZ","postalCode":"75751"}],"maritalStatus":{"coding":[{"system":"http://terminology.hl7.org/CodeSystem/v3-MaritalStatus","code":"W","display":"Widowed"}]}},"request":{"method":"POST","url":"Patient"}},{"fullUrl":"Observation/5cf82530-7064-46b7-9a0e-08aba5da08e9","resource":{"resourceType":"Observation","id":"5cf82530-7064-46b7-9a0e-08aba5da08e9","status":"final","code":{"coding":[{"system":"http://loinc.org","code":"31147-2"}]},"subject":{"reference":"Patient/03060f38-7b1d-4019-9e64-815cb0b3f31e"},"effectiveDateTime":"2022-07-30T00:00:00+00:00","valueRatio":{"numerator":{"value":1},"denominator":{"value":32}}},"request":{"method":"POST","url":"Observation"}},{"fullUrl":"Observation/2bd0f845-62c3-489a-80e6-d255a93db083","resource":{"resourceType":"Observation","id":"2bd0f845-62c3-489a-80e6-d255a93db083","status":"final","code":{"coding":[{"system":"http://loinc.org","code":"22590-4"}]},"subject":{"reference":"Patient/03060f38-7b1d-4019-9e64-815cb0b3f31e"},"effectiveDateTime":"2022-04-24T00:00:00+00:00","valueRatio":{"numerator":{"value":1},"denominator":{"value":4}}},"request":{"method":"POST","url":"Observation"}},{"fullUrl":"Condition/9152a797-809e-46e3-a3b5-e4f1a812f6c7","resource":{"resourceType":"Condition","id":"9152a797-809e-46e3-a3b5-e4f1a812f6c7","code":{"coding":[{"system":"http://snomed.info/sct","code":"3951002"}]},"subject":{"reference":"Patient/03060f38-7b1d-4019-9e64-815cb0b3f31e"},"onsetDateTime":"2022-08-12T00:00:00+00:00"},"request":{"method":"POST","url":"Condition"}},{"fullUrl":"Condition/a1655f13-2286-44fb-b907-215166a6168e","resource":{"resourceType":"Condition","id":"a1655f13-2286-44fb-b907-215166a6168e","code":{"coding":[{"system":"http://snomed.info/sct","code":"91554004"}]},"subject":{"reference":"Patient/03060f38-7b1d-4019-9e64-815cb0b3f31e"},"onsetDateTime":"2022-02-04T00:00:00+00:00"},"request":{"method":"POST","url":"Condition"}},{"fullUrl":"Condition/61885063-4138-4ea3-8579-67500defdf57","resource":{"resourceType":"Condition","id":"61885063-4138-4ea3-8579-67500defdf57","code":{"coding":[{"system":"http://snomed.info/sct","code":"736686006"}]},"subject":{"reference":"Patient/03060f38-7b1d-4019-9e64-815cb0b3f31e"},"onsetDateTime":"2022-08-03T00:00:00+00:00"},"request":{"method":"POST","url":"Condition"}},{"fullUrl":"Condition/8941c52f-deb2-4ce1-a169-05bc1a52ae19","resource":{"resourceType":"Condition","id":"8941c52f-deb2-4ce1-a169-05bc1a52ae19","code":{"coding":[{"system":"http://snomed.info/sct","code":"31070006"}]},"subject":{"reference":"Patient/03060f38-7b1d-4019-9e64-815cb0b3f31e"},"onsetDateTime":"2022-01-20T00:00:00+00:00"},"request":{"method":"POST","url":"Condition"}},{"fullUrl":"Condition/8065a42b-7ace-48eb-b82e-3a177c9514c7","resource":{"resourceType":"Condition","id":"8065a42b-7ace-48eb-b82e-3a177c9514c7","code":{"coding":[{"system":"http://snomed.info/sct","code":"91554004"}]},"subject":{"reference":"Patient/03060f38-7b1d-4019-9e64-815cb0b3f31e"},"onsetDateTime":"2022-01-15T00:00:00+00:00"},"request":{"method":"POST","url":"Condition"}},{"fullUrl":"Condition/d166ab69-ece9-4c77-94ed-ae9e0a6f47a7","resource":{"resourceType":"Condition","id":"d166ab69-ece9-4c77-94ed-ae9e0a6f47a7","code":{"coding":[{"system":"http://snomed.info/sct","code":"709977002"}]},"subject":{"reference":"Patient/03060f38-7b1d-4019-9e64-815cb0b3f31e"},"onsetDateTime":"2022-04-12T00:00:00+00:00"},"request":{"method":"POST","url":"Condition"}},{"fullUrl":"Observation/fbb6e7de-25b4-4ea7-82a6-552bd1beb276","resource":{"resourceType":"Observation","id":"fbb6e7de-25b4-4ea7-82a6-552bd1beb276","status":"final","code":{"coding":[{"system":"http://loinc.org","code":"26464-8"}]},"subject":{"reference":"Patient/03060f38-7b1d-4019-9e64-815cb0b3f31e"},"effectiveDateTime":"2022-03-23T00:00:00+00:00","valueQuantity":{"value":9.1}},"request":{"method":"POST","url":"Observation"}},{"fullUrl":"Observation/cb21ebb4-02c7-4528-91bc-324d8b6c8787","resource":{"resourceType":"Observation","id":"cb21ebb4-02c7-4528-91bc-324d8b6c8787","status":"final","code":{"coding":[{"system":"http://www.ama-assn.org/go/cpt","code":"85048"}]},"subject":{"reference":"Patient/03060f38-7b1d-4019-9e64-815cb0b3f31e"},"effectiveDateTime":"2022-12-22T00:00:00+00:00","valueQuantity":{"value":8.2}},"request":{"method":"POST","url":"Observation"}},{"fullUrl":"Observation/64d651d5-d8f7-4bf0-9fe9-649c88fe384c","resource":{"resourceType":"Observation","id":"64d651d5-d8f7-4bf0-9fe9-649c88fe384c","status":"final","code":{"coding":[{"system":"http://www.ama-assn.org/go/cpt","code":"85048"}]},"subject":{"reference":"Patient/03060f38-7b1d-4019-9e64-815cb0b3f31e"},"effectiveDateTime":"2022-01-20T00:00:00+00:00","valueQuantity":{"value":9.2}},"request":{"method":"POST","url":"Observation"}},{"fullUrl":"Observation/5c941159-d427-4446-8d02-35d48f8e44c3","resource":{"resourceType":"Observation","id":"5c941159-d427-4446-8d02-35d48f8e44c3","status":"final","code":{"coding":[{"system":"http://loinc.org","code":"26464-8"}]},"subject":{"reference":"Patient/03060f38-7b1d-4019-9e64-815cb0b3f31e"},"effectiveDateTime":"2022-01-26T00:00:00+00:00","valueCodeableConcept":{"coding":[{"system":"snomed","code":"123456","display":"fake snomed"}]}},"request":{"method":"POST","url":"Observation"}},{"fullUrl":"Observation/3e800760-ec5e-44a5-bd03-a008b3cb500f","resource":{"resourceType":"Observation","id":"3e800760-ec5e-44a5-bd03-a008b3cb500f","status":"final","code":{"coding":[{"system":"http://loinc.org","code":"26464-8"}]},"subject":{"reference":"Patient/03060f38-7b1d-4019-9e64-815cb0b3f31e"},"effectiveDateTime":"2022-08-24T00:00:00+00:00","valueCodeableConcept":{"coding":[{"system":"snomed","code":"123456","display":"fake snomed"}]}},"request":{"method":"POST","url":"Observation"}},{"fullUrl":"Observation/48e19624-bdd2-47b2-afee-f45be52090be","resource":{"resourceType":"Observation","id":"48e19624-bdd2-47b2-afee-f45be52090be","status":"final","code":{"coding":[{"system":"http://loinc.org","code":"49498-9"}]},"subject":{"reference":"Patient/03060f38-7b1d-4019-9e64-815cb0b3f31e"},"effectiveDateTime":"2022-12-27T00:00:00+00:00"},"request":{"method":"POST","url":"Observation"}},{"fullUrl":"Observation/57363457-a1ac-4770-8977-be26946e0703","resource":{"resourceType":"Observation","id":"57363457-a1ac-4770-8977-be26946e0703","status":"final","code":{"coding":[{"system":"http://loinc.org","code":"49498-9"}]},"subject":{"reference":"Patient/03060f38-7b1d-4019-9e64-815cb0b3f31e"},"effectiveDateTime":"2022-09-22T00:00:00+00:00"},"request":{"method":"POST","url":"Observation"}},{"fullUrl":"Observation/5a0e4289-5034-412f-9bbc-e8af164c474d","resource":{"resourceType":"Observation","id":"5a0e4289-5034-412f-9bbc-e8af164c474d","status":"final","code":{"coding":[{"system":"http://loinc.org","code":"49498-9"}]},"subject":{"reference":"Patient/03060f38-7b1d-4019-9e64-815cb0b3f31e"},"effectiveDateTime":"2022-11-11T00:00:00+00:00"},"request":{"method":"POST","url":"Observation"}},{"fullUrl":"Procedure/b5d553ac-cd53-4ede-aa6e-bd1578fd18fc","resource":{"resourceType":"Procedure","id":"b5d553ac-cd53-4ede-aa6e-bd1578fd18fc","status":"completed","code":{"coding":[{"system":"http://snomed.info/sct","code":"104001"}]},"subject":{"reference":"Patient/03060f38-7b1d-4019-9e64-815cb0b3f31e"},"performedDateTime":"2022-10-21T00:00:00+00:00"},"request":{"method":"POST","url":"Procedure"}},{"fullUrl":"Procedure/98b44c8d-416b-421e-8716-89cb2dc37cba","resource":{"resourceType":"Procedure","id":"98b44c8d-416b-421e-8716-89cb2dc37cba","status":"completed","code":{"coding":[{"system":"http://snomed.info/sct","code":"104001"}]},"subject":{"reference":"Patient/03060f38-7b1d-4019-9e64-815cb0b3f31e"},"performedDateTime":"2022-07-09T00:00:00+00:00"},"request":{"method":"POST","url":"Procedure"}},{"fullUrl":"Procedure/61699ee4-056d-43a3-901c-03eb05eba256","resource":{"resourceType":"Procedure","id":"61699ee4-056d-43a3-901c-03eb05eba256","status":"completed","code":{"coding":[{"system":"http://snomed.info/sct","code":"104001"}]},"subject":{"reference":"Patient/03060f38-7b1d-4019-9e64-815cb0b3f31e"},"performedDateTime":"2022-05-01T00:00:00+00:00"},"request":{"method":"POST","url":"Procedure"}},{"fullUrl":"MedicationStatement/90e92490-1c6b-49f6-9e43-021dbf7d2a11","resource":{"resourceType":"MedicationStatement","id":"90e92490-1c6b-49f6-9e43-021dbf7d2a11","status":"completed","medicationCodeableConcept":{"coding":[{"system":"http://www.nlm.nih.gov/research/umls/rxnorm","code":"7984"}]},"subject":{"reference":"Patient/03060f38-7b1d-4019-9e64-815cb0b3f31e"},"effectiveDateTime":"2022-12-19T00:00:00+00:00","dosage":[{"doseAndRate":[{"doseQuantity":{"value":1,"unit":"TAB","system":"http://terminology.hl7.org/CodeSystem/v3-orderableDrugForm","code":"TAB"}}]}]},"request":{"method":"POST","url":"MedicationStatement"}},{"fullUrl":"MedicationStatement/8b141491-df30-4914-a822-f5adb2c6dc2d","resource":{"resourceType":"MedicationStatement","id":"8b141491-df30-4914-a822-f5adb2c6dc2d","status":"completed","medicationCodeableConcept":{"coding":[{"system":"http://www.nlm.nih.gov/research/umls/rxnorm","code":"3640"}]},"subject":{"reference":"Patient/03060f38-7b1d-4019-9e64-815cb0b3f31e"},"effectiveDateTime":"2022-03-12T00:00:00+00:00","dosage":[{"doseAndRate":[{"doseQuantity":{"value":2,"unit":"TAB","system":"http://terminology.hl7.org/CodeSystem/v3-orderableDrugForm","code":"TAB"}}]}]},"request":{"method":"POST","url":"MedicationStatement"}},{"fullUrl":"MedicationStatement/48be464c-bb14-4ee9-af7e-b04cdc895383","resource":{"resourceType":"MedicationStatement","id":"48be464c-bb14-4ee9-af7e-b04cdc895383","status":"completed","medicationCodeableConcept":{"coding":[{"system":"http://www.nlm.nih.gov/research/umls/rxnorm","code":"10395"}]},"subject":{"reference":"Patient/03060f38-7b1d-4019-9e64-815cb0b3f31e"},"effectiveDateTime":"2022-04-03T00:00:00+00:00","dosage":[{"doseAndRate":[{"doseQuantity":{"value":1,"unit":"TAB","system":"http://terminology.hl7.org/CodeSystem/v3-orderableDrugForm","code":"TAB"}}]}]},"request":{"method":"POST","url":"MedicationStatement"}},{"fullUrl":"MedicationStatement/e4de5672-7eeb-4d68-80a3-2bb388c04205","resource":{"resourceType":"MedicationStatement","id":"e4de5672-7eeb-4d68-80a3-2bb388c04205","status":"completed","medicationCodeableConcept":{"coding":[{"system":"http://www.nlm.nih.gov/research/umls/rxnorm","code":"8698"}]},"subject":{"reference":"Patient/03060f38-7b1d-4019-9e64-815cb0b3f31e"},"effectiveDateTime":"2022-12-03T00:00:00+00:00","dosage":[{"doseAndRate":[{"doseQuantity":{"value":1,"unit":"TAB","system":"http://terminology.hl7.org/CodeSystem/v3-orderableDrugForm","code":"TAB"}}]}]},"request":{"method":"POST","url":"MedicationStatement"}},{"fullUrl":"MedicationStatement/1fcf8c5e-06db-4a25-ac23-b9bcaa40d51c","resource":{"resourceType":"MedicationStatement","id":"1fcf8c5e-06db-4a25-ac23-b9bcaa40d51c","status":"completed","medicationCodeableConcept":{"coding":[{"system":"http://www.nlm.nih.gov/research/umls/rxnorm","code":"7980"}]},"subject":{"reference":"Patient/03060f38-7b1d-4019-9e64-815cb0b3f31e"},"effectiveDateTime":"2022-12-25T00:00:00+00:00","dosage":[{"doseAndRate":[{"doseQuantity":{"value":2,"unit":"TAB","system":"http://terminology.hl7.org/CodeSystem/v3-orderableDrugForm","code":"TAB"}}]}]},"request":{"method":"POST","url":"MedicationStatement"}},{"fullUrl":"MedicationStatement/cb7b8b5c-badb-479e-9188-91736be58dc7","resource":{"resourceType":"MedicationStatement","id":"cb7b8b5c-badb-479e-9188-91736be58dc7","status":"completed","medicationCodeableConcept":{"coding":[{"system":"http://www.nlm.nih.gov/research/umls/rxnorm","code":"7980"}]},"subject":{"reference":"Patient/03060f38-7b1d-4019-9e64-815cb0b3f31e"},"effectiveDateTime":"2022-05-14T00:00:00+00:00","dosage":[{"doseAndRate":[{"doseQuantity":{"value":1,"unit":"TAB","system":"http://terminology.hl7.org/CodeSystem/v3-orderableDrugForm","code":"TAB"}}]}]},"request":{"method":"POST","url":"MedicationStatement"}},{"fullUrl":"MedicationStatement/8eba28ed-0819-4aab-a727-c730dc71caf6","resource":{"resourceType":"MedicationStatement","id":"8eba28ed-0819-4aab-a727-c730dc71caf6","status":"completed","medicationCodeableConcept":{"coding":[{"system":"http://www.nlm.nih.gov/research/umls/rxnorm","code":"7984"}]},"subject":{"reference":"Patient/03060f38-7b1d-4019-9e64-815cb0b3f31e"},"effectiveDateTime":"2022-10-15T00:00:00+00:00","dosage":[{"doseAndRate":[{"doseQuantity":{"value":3.1,"unit":"TAB","system":"http://terminology.hl7.org/CodeSystem/v3-orderableDrugForm","code":"TAB"}}]}]},"request":{"method":"POST","url":"MedicationStatement"}},{"fullUrl":"MedicationStatement/a36f0e66-de53-4ec2-9103-deef34e19d02","resource":{"resourceType":"MedicationStatement","id":"a36f0e66-de53-4ec2-9103-deef34e19d02","status":"completed","medicationCodeableConcept":{"coding":[{"system":"http://www.nlm.nih.gov/research/umls/rxnorm","code":"18631"}]},"subject":{"reference":"Patient/03060f38-7b1d-4019-9e64-815cb0b3f31e"},"effectiveDateTime":"2022-09-24T00:00:00+00:00","dosage":[{"doseAndRate":[{"doseQuantity":{"value":3.8,"unit":"TAB","system":"http://terminology.hl7.org/CodeSystem/v3-orderableDrugForm","code":"TAB"}}]}]},"request":{"method":"POST","url":"MedicationStatement"}},{"fullUrl":"MedicationStatement/a0df1184-5f57-4fbd-9953-e30af7131e5c","resource":{"resourceType":"MedicationStatement","id":"a0df1184-5f57-4fbd-9953-e30af7131e5c","status":"completed","medicationCodeableConcept":{"coding":[{"system":"http://www.nlm.nih.gov/research/umls/rxnorm","code":"2193"}]},"subject":{"reference":"Patient/03060f38-7b1d-4019-9e64-815cb0b3f31e"},"effectiveDateTime":"2022-02-14T00:00:00+00:00","dosage":[{"doseAndRate":[{"doseQuantity":{"value":6.6,"unit":"TAB","system":"http://terminology.hl7.org/CodeSystem/v3-orderableDrugForm","code":"TAB"}}]}]},"request":{"method":"POST","url":"MedicationStatement"}},{"fullUrl":"MedicationStatement/cc22ec4d-0a5b-4b0d-8862-9b0d6f10b042","resource":{"resourceType":"MedicationStatement","id":"cc22ec4d-0a5b-4b0d-8862-9b0d6f10b042","status":"completed","medicationCodeableConcept":{"coding":[{"system":"http://www.nlm.nih.gov/research/umls/rxnorm","code":"8698"}]},"subject":{"reference":"Patient/03060f38-7b1d-4019-9e64-815cb0b3f31e"},"effectiveDateTime":"2022-09-22T00:00:00+00:00","dosage":[{"doseAndRate":[{"doseQuantity":{"value":6.8,"unit":"TAB","system":"http://terminology.hl7.org/CodeSystem/v3-orderableDrugForm","code":"TAB"}}]}]},"request":{"method":"POST","url":"MedicationStatement"}},{"fullUrl":"MedicationStatement/8a799012-7331-4756-a439-acda5a7563bd","resource":{"resourceType":"MedicationStatement","id":"8a799012-7331-4756-a439-acda5a7563bd","status":"completed","medicationCodeableConcept":{"coding":[{"system":"http://www.nlm.nih.gov/research/umls/rxnorm","code":"10395"}]},"subject":{"reference":"Patient/03060f38-7b1d-4019-9e64-815cb0b3f31e"},"effectiveDateTime":"2022-03-17T00:00:00+00:00","dosage":[{"doseAndRate":[{"doseQuantity":{"value":6,"unit":"TAB","system":"http://terminology.hl7.org/CodeSystem/v3-orderableDrugForm","code":"TAB"}}]}]},"request":{"method":"POST","url":"MedicationStatement"}},{"fullUrl":"MedicationStatement/b0463ad7-b92a-4143-bfdc-1e65c283689b","resource":{"resourceType":"MedicationStatement","id":"b0463ad7-b92a-4143-bfdc-1e65c283689b","status":"completed","medicationCodeableConcept":{"coding":[{"system":"http://www.nlm.nih.gov/research/umls/rxnorm","code":"7984"}]},"subject":{"reference":"Patient/03060f38-7b1d-4019-9e64-815cb0b3f31e"},"effectiveDateTime":"2022-01-01T00:00:00+00:00","dosage":[{"doseAndRate":[{"doseQuantity":{"value":5.6,"unit":"TAB","system":"http://terminology.hl7.org/CodeSystem/v3-orderableDrugForm","code":"TAB"}}]}]},"request":{"method":"POST","url":"MedicationStatement"}},{"fullUrl":"MedicationStatement/14b5d278-1726-4fee-942f-6ee9ccaa3c84","resource":{"resourceType":"MedicationStatement","id":"14b5d278-1726-4fee-942f-6ee9ccaa3c84","status":"completed","medicationCodeableConcept":{"coding":[{"system":"http://www.nlm.nih.gov/research/umls/rxnorm","code":"3640"}]},"subject":{"reference":"Patient/03060f38-7b1d-4019-9e64-815cb0b3f31e"},"effectiveDateTime":"2022-06-19T00:00:00+00:00","dosage":[{"doseAndRate":[{"doseQuantity":{"value":6.4,"unit":"TAB","system":"http://terminology.hl7.org/CodeSystem/v3-orderableDrugForm","code":"TAB"}}]}]},"request":{"method":"POST","url":"MedicationStatement"}},{"fullUrl":"Encounter/fae28600-bbdc-4f5b-9739-bf6258cf094d","resource":{"resourceType":"Encounter","id":"fae28600-bbdc-4f5b-9739-bf6258cf094d","status":"finished","class":{"system":"http://terminology.hl7.org/CodeSystem/v3-ActCode","code":"IMP","display":"inpatient encounter"},"type":[{"coding":[{"system":"http://terminology.hl7.org/CodeSystem/encounter-type","code":"CCS60"}]}],"subject":{"reference":"Patient/03060f38-7b1d-4019-9e64-815cb0b3f31e"},"period":{"start":"2022-02-23T00:00:00+00:00","end":"2022-03-03T00:00:00+00:00"}},"request":{"method":"POST","url":"Encounter"}},{"fullUrl":"Encounter/ca0cb583-0866-4a43-a31a-611f0d8c937c","resource":{"resourceType":"Encounter","id":"ca0cb583-0866-4a43-a31a-611f0d8c937c","status":"finished","class":{"system":"http://terminology.hl7.org/CodeSystem/v3-ActCode","code":"IMP","display":"inpatient encounter"},"type":[{"coding":[{"system":"http://terminology.hl7.org/CodeSystem/encounter-type","code":"ADMS"}]}],"subject":{"reference":"Patient/03060f38-7b1d-4019-9e64-815cb0b3f31e"},"period":{"start":"2022-10-21T00:00:00+00:00","end":"2022-10-26T00:00:00+00:00"}},"request":{"method":"POST","url":"Encounter"}},{"fullUrl":"Encounter/22a04b30-0ab5-4cc4-8ff8-5a7c750ebeea","resource":{"resourceType":"Encounter","id":"22a04b30-0ab5-4cc4-8ff8-5a7c750ebeea","status":"finished","class":{"system":"http://terminology.hl7.org/CodeSystem/v3-ActCode","code":"NONAC","display":"inpatient non-acute"},"type":[{"coding":[{"system":"http://terminology.hl7.org/CodeSystem/encounter-type","code":"OKI"}]}],"subject":{"reference":"Patient/03060f38-7b1d-4019-9e64-815cb0b3f31e"},"period":{"start":"2022-02-13T00:00:00+00:00","end":"2022-02-19T00:00:00+00:00"}},"request":{"method":"POST","url":"Encounter"}},{"fullUrl":"Encounter/73d3a46a-df07-4679-b1b2-13a6a47a19fc","resource":{"resourceType":"Encounter","id":"73d3a46a-df07-4679-b1b2-13a6a47a19fc","status":"finished","class":{"system":"http://terminology.hl7.org/CodeSystem/v3-ActCode","code":"OBSENC","display":"observation encounter"},"type":[{"coding":[{"system":"http://terminology.hl7.org/CodeSystem/encounter-type","code":"CCS60"}]}],"subject":{"reference":"Patient/03060f38-7b1d-4019-9e64-815cb0b3f31e"},"period":{"start":"2022-10-23T00:00:00+00:00","end":"2022-10-23T00:00:00+00:00"}},"request":{"method":"POST","url":"Encounter"}},{"fullUrl":"Encounter/7e995f8d-1ba0-4698-85fc-d821a983e7b1","resource":{"resourceType":"Encounter","id":"7e995f8d-1ba0-4698-85fc-d821a983e7b1","status":"finished","class":{"system":"http://terminology.hl7.org/CodeSystem/v3-ActCode","code":"NONAC","display":"inpatient non-acute"},"type":[{"coding":[{"system":"http://terminology.hl7.org/CodeSystem/encounter-type","code":"ADMS"}]}],"subject":{"reference":"Patient/03060f38-7b1d-4019-9e64-815cb0b3f31e"},"period":{"start":"2022-06-12T00:00:00+00:00","end":"2022-06-17T00:00:00+00:00"}},"request":{"method":"POST","url":"Encounter"}},{"fullUrl":"Location/fb7c0134-eeee-471f-bf95-bb18aeb9700a","resource":{"resourceType":"Location","id":"fb7c0134-eeee-471f-bf95-bb18aeb9700a","status":"active","name":"Powell-Simon","telecom":[{"system":"phone","value":"(007)232-3481x56282","use":"mobile"}],"address":{"use":"work","line":["9297 Robert Lock"],"city":"Allisonborough","state":"KS","postalCode":"26140"}},"request":{"method":"POST","url":"Location"}},{"fullUrl":"Observation/416957a0-72e1-401c-829a-e4908d96097c","resource":{"resourceType":"Observation","id":"416957a0-72e1-401c-829a-e4908d96097c","status":"final","code":{"coding":[{"system":"http://loinc.org","code":"81956-5"}]},"subject":{"reference":"Patient/03060f38-7b1d-4019-9e64-815cb0b3f31e"},"effectiveDateTime":"2022-12-27T00:00:00+00:00","valueDateTime":"2022-11-15T00:00:00+00:00"},"request":{"method":"POST","url":"Observation"}},{"fullUrl":"Patient/9996ef0a-c454-4485-afef-849cf58f1fb7","resource":{"resourceType":"Patient","id":"9996ef0a-c454-4485-afef-849cf58f1fb7","identifier":[{"type":{"coding":[{"system":"http://terminology.hl7.org/CodeSystem/v2-0203","code":"MR"}]},"system":"urn:fhirgen:mrn","value":"371-69-7442"},{"type":{"coding":[{"system":"http://terminology.hl7.org/CodeSystem/v2-0203","code":"SS"}]},"system":"http://hl7.org/fhir/sid/us-ssn","value":"293-98-0439"}],"name":[{"use":"official","family":"Gonzalez","given":["Christopher"]},{"use":"maiden","family":"Dorsey"}],"telecom":[{"system":"phone","value":"667-783-3280x79725","use":"mobile"},{"system":"email","value":"cynthiabooker@yahoo.com","use":"mobile"}],"gender":"male","birthDate":"1973-10-28","address":[{"use":"home","line":["579 Mercado Harbors Apt. 802"],"city":"Lake Paulton","state":"OR","postalCode":"50805"},{"use":"old","line":["0689 Marissa Fords Suite 342"],"city":"Port Anthonystad","state":"MI","postalCode":"03151"}],"maritalStatus":{"coding":[{"system":"http://terminology.hl7.org/CodeSystem/v3-MaritalStatus","code":"P","display":"Polygamous"}]}},"request":{"method":"POST","url":"Patient"}},{"fullUrl":"Observation/7c8cea96-e31f-479f-9f8b-c9c25a9f6ead","resource":{"resourceType":"Observation","id":"7c8cea96-e31f-479f-9f8b-c9c25a9f6ead","status":"final","code":{"coding":[{"system":"http://loinc.org","code":"50690-7"}]},"subject":{"reference":"Patient/9996ef0a-c454-4485-afef-849cf58f1fb7"},"effectiveDateTime":"2022-02-05T00:00:00+00:00","valueRatio":{"numerator":{"value":1},"denominator":{"value":32}}},"request":{"method":"POST","url":"Observation"}},{"fullUrl":"Observation/152ab4ee-3f5f-419e-b881-f1c564599c9c","resource":{"resourceType":"Observation","id":"152ab4ee-3f5f-419e-b881-f1c564599c9c","status":"final","code":{"coding":[{"system":"http://loinc.org","code":"46203-6"}]},"subject":{"reference":"Patient/9996ef0a-c454-4485-afef-849cf58f1fb7"},"effectiveDateTime":"2022-11-18T00:00:00+00:00","valueRatio":{"numerator":{"value":1},"denominator":{"value":64}}},"request":{"method":"POST","url":"Observation"}},{"fullUrl":"Observation/e7d6323e-8813-4fbc-ab8e-2f78be1d5973","resource":{"resourceType":"Observation","id":"e7d6323e-8813-4fbc-ab8e-2f78be1d5973","status":"final","code":{"coding":[{"system":"http://loinc.org","code":"71793-4"}]},"subject":{"reference":"Patient/9996ef0a-c454-4485-afef-849cf58f1fb7"},"effectiveDateTime":"2022-08-13T00:00:00+00:00","valueRatio":{"numerator":{"value":1},"denominator":{"value":4}}},"request":{"method":"POST","url":"Observation"}},{"fullUrl":"Condition/ca1834b2-9b86-4288-88e8-4907bb5cd7c1","resource":{"resourceType":"Condition","id":"ca1834b2-9b86-4288-88e8-4907bb5cd7c1","code":{"coding":[{"system":"http://snomed.info/sct","code":"386661006"}]},"subject":{"reference":"Patient/9996ef0a-c454-4485-afef-849cf58f1fb7"},"onsetDateTime":"2022-08-29T00:00:00+00:00"},"request":{"method":"POST","url":"Condition"}},{"fullUrl":"Condition/b8278cda-2ec1-4664-bf50-004c739b34f5","resource":{"resourceType":"Condition","id":"b8278cda-2ec1-4664-bf50-004c739b34f5","code":{"coding":[{"system":"http://snomed.info/sct","code":"709977002"}]},"subject":{"reference":"Patient/9996ef0a-c454-4485-afef-849cf58f1fb7"},"onsetDateTime":"2022-05-22T00:00:00+00:00"},"request":{"method":"POST","url":"Condition"}},{"fullUrl":"Condition/c4e42f02-bd63-454f-85ae-f7bf416bc9d8","resource":{"resourceType":"Condition","id":"c4e42f02-bd63-454f-85ae-f7bf416bc9d8","code":{"coding":[{"system":"http://snomed.info/sct","code":"248980004"}]},"subject":{"reference":"Patient/9996ef0a-c454-4485-afef-849cf58f1fb7"},"onsetDateTime":"2022-07-08T00:00:00+00:00"},"request":{"method":"POST","url":"Condition"}},{"fullUrl":"Condition/049f8774-0e34-4d91-add3-18f5fb6f31a3","resource":{"resourceType":"Condition","id":"049f8774-0e34-4d91-add3-18f5fb6f31a3","code":{"coding":[{"system":"http://snomed.info/sct","code":"56317004"}]},"subject":{"reference":"Patient/9996ef0a-c454-4485-afef-849cf58f1fb7"},"onsetDateTime":"2022-10-07T00:00:00+00:00"},"request":{"method":"POST","url":"Condition"}},{"fullUrl":"Observation/7f70fb77-45d0-4e55-8c54-f3c3c54f8421","resource":{"resourceType":"Observation","id":"7f70fb77-45d0-4e55-8c54-f3c3c54f8421","status":"final","code":{"coding":[{"system":"http://loinc.org","code":"49498-9"}]},"subject":{"reference":"Patient/9996ef0a-c454-4485-afef-849cf58f1fb7"},"effectiveDateTime":"2022-06-29T00:00:00+00:00","valueQuantity":{"value":7.9}},"request":{"method":"POST","url":"Observation"}},{"fullUrl":"Observation/12b1f813-cd63-40c2-91d6-cd7c672d4c2d","resource":{"resourceType":"Observation","id":"12b1f813-cd63-40c2-91d6-cd7c672d4c2d","status":"final","code":{"coding":[{"system":"http://loinc.org","code":"804-5"}]},"subject":{"reference":"Patient/9996ef0a-c454-4485-afef-849cf58f1fb7"},"effectiveDateTime":"2022-02-17T00:00:00+00:00","valueQuantity":{"value":7.5}},"request":{"method":"POST","url":"Observation"}},{"fullUrl":"Observation/8c41114f-747d-4dcb-aa2b-c763e8db653b","resource":{"resourceType":"Observation","id":"8c41114f-747d-4dcb-aa2b-c763e8db653b","status":"final","code":{"coding":[{"system":"http://www.ama-assn.org/go/cpt","code":"85048"}]},"subject":{"reference":"Patient/9996ef0a-c454-4485-afef-849cf58f1fb7"},"effectiveDateTime":"2022-05-28T00:00:00+00:00","valueCodeableConcept":{"coding":[{"system":"snomed","code":"123456","display":"fake snomed"}]}},"request":{"method":"POST","url":"Observation"}},{"fullUrl":"Observation/0aaa2141-ffdd-4fae-a96e-b5a65718d6ce","resource":{"resourceType":"Observation","id":"0aaa2141-ffdd-4fae-a96e-b5a65718d6ce","status":"final","code":{"coding":[{"system":"http://loinc.org","code":"804-5"}]},"subject":{"reference":"Patient/9996ef0a-c454-4485-afef-849cf58f1fb7"},"effectiveDateTime":"2022-06-23T00:00:00+00:00","valueCodeableConcept":{"coding":[{"system":"snomed","code":"123456","display":"fake snomed"}]}},"request":{"method":"POST","url":"Observation"}},{"fullUrl":"Observation/a81959f2-3f13-4ff8-8a3d-5546f9a0af02","resource":{"resourceType":"Observation","id":"a81959f2-3f13-4ff8-8a3d-5546f9a0af02","status":"final","code":{"coding":[{"system":"http://loinc.org","code":"49498-9"}]},"subject":{"reference":"Patient/9996ef0a-c454-4485-afef-849cf58f1fb7"},"effectiveDateTime":"2022-03-07T00:00:00+00:00"},"request":{"method":"POST","url":"Observation"}},{"fullUrl":"Observation/0976e038-e034-4fb4-bba4-075059ef84d6","resource":{"resourceType":"Observation","id":"0976e038-e034-4fb4-bba4-075059ef84d6","status":"final","code":{"coding":[{"system":"http://loinc.org","code":"49498-9"}]},"subject":{"reference":"Patient/9996ef0a-c454-4485-afef-849cf58f1fb7"},"effectiveDateTime":"2022-11-04T00:00:00+00:00"},"request":{"method":"POST","url":"Observation"}},{"fullUrl":"Observation/bde64e91-534b-4d78-9907-b8f6bbdc1234","resource":{"resourceType":"Observation","id":"bde64e91-534b-4d78-9907-b8f6bbdc1234","status":"final","code":{"coding":[{"system":"http://loinc.org","code":"49498-9"}]},"subject":{"reference":"Patient/9996ef0a-c454-4485-afef-849cf58f1fb7"},"effectiveDateTime":"2022-12-12T00:00:00+00:00"},"request":{"method":"POST","url":"Observation"}},{"fullUrl":"Procedure/c818d9f0-0898-4ab9-b3c4-8a73f992371b","resource":{"resourceType":"Procedure","id":"c818d9f0-0898-4ab9-b3c4-8a73f992371b","status":"completed","code":{"coding":[{"system":"http://snomed.info/sct","code":"104001"}]},"subject":{"reference":"Patient/9996ef0a-c454-4485-afef-849cf58f1fb7"},"performedDateTime":"2022-11-17T00:00:00+00:00"},"request":{"method":"POST","url":"Procedure"}},{"fullUrl":"Procedure/e0f76325-e88e-48d4-bc55-56041af581b8","resource":{"resourceType":"Procedure","id":"e0f76325-e88e-48d4-bc55-56041af581b8","status":"completed","code":{"coding":[{"system":"http://snomed.info/sct","code":"104001"}]},"subject":{"reference":"Patient/9996ef0a-c454-4485-afef-849cf58f1fb7"},"performedDateTime":"2022-07-01T00:00:00+00:00"},"request":{"method":"POST","url":"Procedure"}},{"fullUrl":"Procedure/32b3d884-82b9-415e-ab01-31e54f29952b","resource":{"resourceType":"Procedure","id":"32b3d884-82b9-415e-ab01-31e54f29952b","status":"completed","code":{"coding":[{"system":"http://snomed.info/sct","code":"189009"}]},"subject":{"reference":"Patient/9996ef0a-c454-4485-afef-849cf58f1fb7"},"performedDateTime":"2022-01-19T00:00:00+00:00"},"request":{"method":"POST","url":"Procedure"}},{"fullUrl":"MedicationStatement/34a0dc08-1158-4e4e-bef1-7fc8b2230f66","resource":{"resourceType":"MedicationStatement","id":"34a0dc08-1158-4e4e-bef1-7fc8b2230f66","status":"completed","medicationCodeableConcept":{"coding":[{"system":"http://www.nlm.nih.gov/research/umls/rxnorm","code":"3640"}]},"subject":{"reference":"Patient/9996ef0a-c454-4485-afef-849cf58f1fb7"},"effectiveDateTime":"2022-02-27T00:00:00+00:00","dosage":[{"doseAndRate":[{"doseQuantity":{"value":1,"unit":"TAB","system":"http://terminology.hl7.org/CodeSystem/v3-orderableDrugForm","code":"TAB"}}]}]},"request":{"method":"POST","url":"MedicationStatement"}},{"fullUrl":"MedicationStatement/02266c68-f54c-4a58-b8b6-3aa2378a8618","resource":{"resourceType":"MedicationStatement","id":"02266c68-f54c-4a58-b8b6-3aa2378a8618","status":"completed","medicationCodeableConcept":{"coding":[{"system":"http://www.nlm.nih.gov/research/umls/rxnorm","code":"2193"}]},"subject":{"reference":"Patient/9996ef0a-c454-4485-afef-849cf58f1fb7"},"effectiveDateTime":"2022-06-03T00:00:00+00:00","dosage":[{"doseAndRate":[{"doseQuantity":{"value":1,"unit":"TAB","system":"http://terminology.hl7.org/CodeSystem/v3-orderableDrugForm","code":"TAB"}}]}]},"request":{"method":"POST","url":"MedicationStatement"}},{"fullUrl":"MedicationStatement/2e6379c3-4c10-469b-9c15-9005830d9837","resource":{"resourceType":"MedicationStatement","id":"2e6379c3-4c10-469b-9c15-9005830d9837","status":"completed","medicationCodeableConcept":{"coding":[{"system":"http://www.nlm.nih.gov/research/umls/rxnorm","code":"10395"}]},"subject":{"reference":"Patient/9996ef0a-c454-4485-afef-849cf58f1fb7"},"effectiveDateTime":"2022-05-26T00:00:00+00:00","dosage":[{"doseAndRate":[{"doseQuantity":{"value":3.1,"unit":"TAB","system":"http://terminology.hl7.org/CodeSystem/v3-orderableDrugForm","code":"TAB"}}]}]},"request":{"method":"POST","url":"MedicationStatement"}},{"fullUrl":"MedicationStatement/9ca0e563-e38f-4606-b657-0490d6c97d36","resource":{"resourceType":"MedicationStatement","id":"9ca0e563-e38f-4606-b657-0490d6c97d36","status":"completed","medicationCodeableConcept":{"coding":[{"system":"http://www.nlm.nih.gov/research/umls/rxnorm","code":"2193"}]},"subject":{"reference":"Patient/9996ef0a-c454-4485-afef-849cf58f1fb7"},"effectiveDateTime":"2022-05-21T00:00:00+00:00","dosage":[{"doseAndRate":[{"doseQuantity":{"value":5.4,"unit":"TAB","system":"http://terminology.hl7.org/CodeSystem/v3-orderableDrugForm","code":"TAB"}}]}]},"request":{"method":"POST","url":"MedicationStatement"}},{"fullUrl":"MedicationStatement/402b6939-0f10-4e3c-b74f-95357cc715f8","resource":{"resourceType":"MedicationStatement","id":"402b6939-0f10-4e3c-b74f-95357cc715f8","status":"completed","medicationCodeableConcept":{"coding":[{"system":"http://www.nlm.nih.gov/research/umls/rxnorm","code":"7984"}]},"subject":{"reference":"Patient/9996ef0a-c454-4485-afef-849cf58f1fb7"},"effectiveDateTime":"2022-06-07T00:00:00+00:00","dosage":[{"doseAndRate":[{"doseQuantity":{"value":5.9,"unit":"TAB","system":"http://terminology.hl7.org/CodeSystem/v3-orderableDrugForm","code":"TAB"}}]}]},"request":{"method":"POST","url":"MedicationStatement"}},{"fullUrl":"Encounter/d0865e41-e5f9-4ffd-a043-d26ed46c0c72","resource":{"resourceType":"Encounter","id":"d0865e41-e5f9-4ffd-a043-d26ed46c0c72","status":"finished","class":{"system":"http://terminology.hl7.org/CodeSystem/v3-ActCode","code":"IMP","display":"inpatient encounter"},"type":[{"coding":[{"system":"http://terminology.hl7.org/CodeSystem/encounter-type","code":"BD/BM-clin"}]}],"subject":{"reference":"Patient/9996ef0a-c454-4485-afef-849cf58f1fb7"},"period":{"start":"2022-11-07T00:00:00+00:00","end":"2022-11-11T00:00:00+00:00"}},"request":{"method":"POST","url":"Encounter"}},{"fullUrl":"Encounter/c080e1b1-3352-4d7f-bf41-8815d8f87d7a","resource":{"resourceType":"Encounter","id":"c080e1b1-3352-4d7f-bf41-8815d8f87d7a","status":"finished","class":{"system":"http://terminology.hl7.org/CodeSystem/v3-ActCode","code":"IMP","display":"inpatient encounter"},"type":[{"coding":[{"system":"http://terminology.hl7.org/CodeSystem/encounter-type","code":"OKI"}]}],"subject":{"reference":"Patient/9996ef0a-c454-4485-afef-849cf58f1fb7"},"period":{"start":"2022-07-06T00:00:00+00:00","end":"2022-07-06T00:00:00+00:00"}},"request":{"method":"POST","url":"Encounter"}},{"fullUrl":"Encounter/84917763-0f91-4d04-815a-d8d24b2e7473","resource":{"resourceType":"Encounter","id":"84917763-0f91-4d04-815a-d8d24b2e7473","status":"finished","class":{"system":"http://terminology.hl7.org/CodeSystem/v3-ActCode","code":"IMP","display":"inpatient encounter"},"type":[{"coding":[{"system":"http://terminology.hl7.org/CodeSystem/encounter-type","code":"BD/BM-clin"}]}],"subject":{"reference":"Patient/9996ef0a-c454-4485-afef-849cf58f1fb7"},"period":{"start":"2022-04-17T00:00:00+00:00","end":"2022-04-24T00:00:00+00:00"}},"request":{"method":"POST","url":"Encounter"}},{"fullUrl":"Encounter/c2d11954-6b1c-4e31-9344-f51893ae3ab8","resource":{"resourceType":"Encounter","id":"c2d11954-6b1c-4e31-9344-f51893ae3ab8","status":"finished","class":{"system":"http://terminology.hl7.org/CodeSystem/v3-ActCode","code":"OBSENC","display":"observation encounter"},"type":[{"coding":[{"system":"http://terminology.hl7.org/CodeSystem/encounter-type","code":"CCS60"}]}],"subject":{"reference":"Patient/9996ef0a-c454-4485-afef-849cf58f1fb7"},"period":{"start":"2022-08-24T00:00:00+00:00","end":"2022-08-25T00:00:00+00:00"}},"request":{"method":"POST","url":"Encounter"}},{"fullUrl":"Encounter/e2eb0a2f-a30e-4d7c-82a4-933a53bae85f","resource":{"resourceType":"Encounter","id":"e2eb0a2f-a30e-4d7c-82a4-933a53bae85f","status":"finished","class":{"system":"http://terminology.hl7.org/CodeSystem/v3-ActCode","code":"FLD","display":"field"},"type":[{"coding":[{"system":"http://terminology.hl7.org/CodeSystem/encounter-type","code":"OKI"}]}],"subject":{"reference":"Patient/9996ef0a-c454-4485-afef-849cf58f1fb7"},"period":{"start":"2022-06-06T00:00:00+00:00","end":"2022-06-11T00:00:00+00:00"}},"request":{"method":"POST","url":"Encounter"}},{"fullUrl":"Location/a72f70ce-4e54-4255-9cef-0257857b527e","resource":{"resourceType":"Location","id":"a72f70ce-4e54-4255-9cef-0257857b527e","status":"active","name":"Torres-Anderson","telecom":[{"system":"phone","value":"284.685.9073","use":"home"}],"address":{"use":"work","line":["50866 John Lock Suite 555"],"city":"Stephanieview","state":"DC","postalCode":"02122"}},"request":{"method":"POST","url":"Location"}},{"fullUrl":"Observation/8f8ac12f-d9b7-4988-8798-f6f1776dc743","resource":{"resourceType":"Observation","id":"8f8ac12f-d9b7-4988-8798-f6f1776dc743","status":"final","code":{"coding":[{"system":"http://loinc.org","code":"81956-5"}]},"subject":{"reference":"Patient/9996ef0a-c454-4485-afef-849cf58f1fb7"},"effectiveDateTime":"2022-06-12T00:00:00+00:00","valueDateTime":"2022-05-10T00:00:00+00:00"},"request":{"method":"POST","url":"Observation"}},{"fullUrl":"Patient/02f39ca9-4636-48f9-bccd-bbb38bb4e3ef","resource":{"resourceType":"Patient","id":"02f39ca9-4636-48f9-bccd-bbb38bb4e3ef","identifier":[{"type":{"coding":[{"system":"http://terminology.hl7.org/CodeSystem/v2-0203","code":"MR"}]},"system":"urn:fhirgen:mrn","value":"260-32-0693"},{"type":{"coding":[{"system":"http://terminology.hl7.org/CodeSystem/v2-0203","code":"SS"}]},"system":"http://hl7.org/fhir/sid/us-ssn","value":"658-73-9861"}],"name":[{"use":"official","family":"Ortega","given":["Ashley"]},{"use":"maiden","family":"Hernandez"}],"telecom":[{"system":"phone","value":"(606)144-5800","use":"mobile"},{"system":"email","value":"josephespinoza@gmail.com","use":"home"}],"gender":"female","birthDate":"1971-01-06","address":[{"use":"home","line":["490 Robert Union"],"city":"New Brett","state":"SD","postalCode":"75844"},{"use":"old","line":["950 Henry Shoals Suite 748"],"city":"West Teresaburgh","state":"NC","postalCode":"24213"}],"maritalStatus":{"coding":[{"system":"http://terminology.hl7.org/CodeSystem/v3-MaritalStatus","code":"D","display":"Divorced"}]}},"request":{"method":"POST","url":"Patient"}},{"fullUrl":"Observation/49b89941-17f0-4e3d-b328-7e6cf7122c01","resource":{"resourceType":"Observation","id":"49b89941-17f0-4e3d-b328-7e6cf7122c01","status":"final","code":{"coding":[{"system":"http://loinc.org","code":"22590-4"}]},"subject":{"reference":"Patient/02f39ca9-4636-48f9-bccd-bbb38bb4e3ef"},"effectiveDateTime":"2022-09-18T00:00:00+00:00","valueRatio":{"numerator":{"value":1},"denominator":{"value":4}}},"request":{"method":"POST","url":"Observation"}},{"fullUrl":"Observation/1fb6beaa-fbe9-4f27-bb49-a178781dcaa7","resource":{"resourceType":"Observation","id":"1fb6beaa-fbe9-4f27-bb49-a178781dcaa7","status":"final","code":{"coding":[{"system":"http://loinc.org","code":"87925-4"}]},"subject":{"reference":"Patient/02f39ca9-4636-48f9-bccd-bbb38bb4e3ef"},"effectiveDateTime":"2022-02-17T00:00:00+00:00","valueRatio":{"numerator":{"value":1},"denominator":{"value":64}}},"request":{"method":"POST","url":"Observation"}},{"fullUrl":"Observation/f9d38d86-4107-4a5a-9304-eae9b4e9986b","resource":{"resourceType":"Observation","id":"f9d38d86-4107-4a5a-9304-eae9b4e9986b","status":"final","code":{"coding":[{"system":"http://loinc.org","code":"34382-2"}]},"subject":{"reference":"Patient/02f39ca9-4636-48f9-bccd-bbb38bb4e3ef"},"effectiveDateTime":"2022-05-12T00:00:00+00:00","valueRatio":{"numerator":{"value":1},"denominator":{"value":4}}},"request":{"method":"POST","url":"Observation"}},{"fullUrl":"Condition/d24a71f3-48dc-4cd3-b919-0a942ad16635","resource":{"resourceType":"Condition","id":"d24a71f3-48dc-4cd3-b919-0a942ad16635","code":{"coding":[{"system":"http://snomed.info/sct","code":"56317004"}]},"subject":{"reference":"Patient/02f39ca9-4636-48f9-bccd-bbb38bb4e3ef"},"onsetDateTime":"2022-11-22T00:00:00+00:00"},"request":{"method":"POST","url":"Condition"}},{"fullUrl":"Condition/2ad710de-8648-4fb0-836d-ae75b46c55ac","resource":{"resourceType":"Condition","id":"2ad710de-8648-4fb0-836d-ae75b46c55ac","code":{"coding":[{"system":"http://snomed.info/sct","code":"271939006"}]},"subject":{"reference":"Patient/02f39ca9-4636-48f9-bccd-bbb38bb4e3ef"},"onsetDateTime":"2022-04-14T00:00:00+00:00"},"request":{"method":"POST","url":"Condition"}},{"fullUrl":"Condition/062c4a5b-517f-4a54-95d7-1053045b7a48","resource":{"resourceType":"Condition","id":"062c4a5b-517f-4a54-95d7-1053045b7a48","code":{"coding":[{"system":"http://snomed.info/sct","code":"56317004"}]},"subject":{"reference":"Patient/02f39ca9-4636-48f9-bccd-bbb38bb4e3ef"},"onsetDateTime":"2022-10-12T00:00:00+00:00"},"request":{"method":"POST","url":"Condition"}},{"fullUrl":"Condition/fb10d90c-7f8e-4e26-bea3-0b3cfad87d8e","resource":{"resourceType":"Condition","id":"fb10d90c-7f8e-4e26-bea3-0b3cfad87d8e","code":{"coding":[{"system":"http://snomed.info/sct","code":"271939006"}]},"subject":{"reference":"Patient/02f39ca9-4636-48f9-bccd-bbb38bb4e3ef"},"onsetDateTime":"2022-06-07T00:00:00+00:00"},"request":{"method":"POST","url":"Condition"}},{"fullUrl":"Condition/2eb68615-6ccd-4113-a0e7-8c56dfb86183","resource":{"resourceType":"Condition","id":"2eb68615-6ccd-4113-a0e7-8c56dfb86183","code":{"coding":[{"system":"http://snomed.info/sct","code":"18165001"}]},"subject":{"reference":"Patient/02f39ca9-4636-48f9-bccd-bbb38bb4e3ef"},"onsetDateTime":"2022-03-27T00:00:00+00:00"},"request":{"method":"POST","url":"Condition"}},{"fullUrl":"Observation/37637b47-d008-49b4-a143-d9d4d2609329","resource":{"resourceType":"Observation","id":"37637b47-d008-49b4-a143-d9d4d2609329","status":"final","code":{"coding":[{"system":"http://loinc.org","code":"26464-8"}]},"subject":{"reference":"Patient/02f39ca9-4636-48f9-bccd-bbb38bb4e3ef"},"effectiveDateTime":"2022-01-10T00:00:00+00:00","valueQuantity":{"value":7.9}},"request":{"method":"POST","url":"Observation"}},{"fullUrl":"Observation/d5e43209-ffab-411e-b04b-c37b53397876","resource":{"resourceType":"Observation","id":"d5e43209-ffab-411e-b04b-c37b53397876","status":"final","code":{"coding":[{"system":"http://loinc.org","code":"6690-2"}]},"subject":{"reference":"Patient/02f39ca9-4636-48f9-bccd-bbb38bb4e3ef"},"effectiveDateTime":"2022-12-04T00:00:00+00:00","valueQuantity":{"value":6.8}},"request":{"method":"POST","url":"Observation"}},{"fullUrl":"Observation/383a1319-c1aa-42de-baee-62a26c90daf9","resource":{"resourceType":"Observation","id":"383a1319-c1aa-42de-baee-62a26c90daf9","status":"final","code":{"coding":[{"system":"http://www.ama-assn.org/go/cpt","code":"85048"}]},"subject":{"reference":"Patient/02f39ca9-4636-48f9-bccd-bbb38bb4e3ef"},"effectiveDateTime":"2022-02-08T00:00:00+00:00","valueQuantity":{"value":8.9}},"request":{"method":"POST","url":"Observation"}},{"fullUrl":"Observation/d4285ec9-49a6-425a-8944-adf60b3c3e31","resource":{"resourceType":"Observation","id":"d4285ec9-49a6-425a-8944-adf60b3c3e31","status":"final","code":{"coding":[{"system":"http://loinc.org","code":"26464-8"}]},"subject":{"reference":"Patient/02f39ca9-4636-48f9-bccd-bbb38bb4e3ef"},"effectiveDateTime":"2022-12-28T00:00:00+00:00","valueCodeableConcept":{"coding":[{"system":"snomed","code":"123456","display":"fake snomed"}]}},"request":{"method":"POST","url":"Observation"}},{"fullUrl":"Observation/02edde0c-b1b0-4856-ad1f-e2af3dac031a","resource":{"resourceType":"Observation","id":"02edde0c-b1b0-4856-ad1f-e2af3dac031a","status":"final","code":{"coding":[{"system":"http://loinc.org","code":"49498-9"}]},"subject":{"reference":"Patient/02f39ca9-4636-48f9-bccd-bbb38bb4e3ef"},"effectiveDateTime":"2022-05-14T00:00:00+00:00","valueCodeableConcept":{"coding":[{"system":"snomed","code":"123456","display":"fake snomed"}]}},"request":{"method":"POST","url":"Observation"}},{"fullUrl":"Observation/e501cd33-e10d-441e-8fd6-907dcaa7277c","resource":{"resourceType":"Observation","id":"e501cd33-e10d-441e-8fd6-907dcaa7277c","status":"final","code":{"coding":[{"system":"http://loinc.org","code":"49498-9"}]},"subject":{"reference":"Patient/02f39ca9-4636-48f9-bccd-bbb38bb4e3ef"},"effectiveDateTime":"2022-09-10T00:00:00+00:00"},"request":{"method":"POST","url":"Observation"}},{"fullUrl":"Observation/2ebd5139-f1dd-4cd2-9fcc-9d7e11c3e897","resource":{"resourceType":"Observation","id":"2ebd5139-f1dd-4cd2-9fcc-9d7e11c3e897","status":"final","code":{"coding":[{"system":"http://loinc.org","code":"49498-9"}]},"subject":{"reference":"Patient/02f39ca9-4636-48f9-bccd-bbb38bb4e3ef"},"effectiveDateTime":"2022-12-15T00:00:00+00:00"},"request":{"method":"POST","url":"Observation"}},{"fullUrl":"Procedure/086c6641-ffb7-4d66-b498-8213a615456e","resource":{"resourceType":"Procedure","id":"086c6641-ffb7-4d66-b498-8213a615456e","status":"completed","code":{"coding":[{"system":"http://snomed.info/sct","code":"189009"}]},"subject":{"reference":"Patient/02f39ca9-4636-48f9-bccd-bbb38bb4e3ef"},"performedDateTime":"2022-11-20T00:00:00+00:00"},"request":{"method":"POST","url":"Procedure"}},{"fullUrl":"Procedure/baa020f6-7a81-453b-beaf-ca514336d1e8","resource":{"resourceType":"Procedure","id":"baa020f6-7a81-453b-beaf-ca514336d1e8","status":"completed","code":{"coding":[{"system":"http://snomed.info/sct","code":"647000"}]},"subject":{"reference":"Patient/02f39ca9-4636-48f9-bccd-bbb38bb4e3ef"},"performedDateTime":"2022-08-19T00:00:00+00:00"},"request":{"method":"POST","url":"Procedure"}},{"fullUrl":"Procedure/8c5b16d0-6a69-4ba8-a00d-8fb45671df0b","resource":{"resourceType":"Procedure","id":"8c5b16d0-6a69-4ba8-a00d-8fb45671df0b","status":"completed","code":{"coding":[{"system":"http://snomed.info/sct","code":"647000"}]},"subject":{"reference":"Patient/02f39ca9-4636-48f9-bccd-bbb38bb4e3ef"},"performedDateTime":"2022-04-16T00:00:00+00:00"},"request":{"method":"POST","url":"Procedure"}},{"fullUrl":"MedicationStatement/81a14e52-9e6a-4d6f-9848-61d1d8181ccb","resource":{"resourceType":"MedicationStatement","id":"81a14e52-9e6a-4d6f-9848-61d1d8181ccb","status":"completed","medicationCodeableConcept":{"coding":[{"system":"http://www.nlm.nih.gov/research/umls/rxnorm","code":"10395"}]},"subject":{"reference":"Patient/02f39ca9-4636-48f9-bccd-bbb38bb4e3ef"},"effectiveDateTime":"2022-10-19T00:00:00+00:00","dosage":[{"doseAndRate":[{"doseQuantity":{"value":1,"unit":"TAB","system":"http://terminology.hl7.org/CodeSystem/v3-orderableDrugForm","code":"TAB"}}]}]},"request":{"method":"POST","url":"MedicationStatement"}},{"fullUrl":"MedicationStatement/cf56f6ae-da99-4780-ac14-660d4cc395a1","resource":{"resourceType":"MedicationStatement","id":"cf56f6ae-da99-4780-ac14-660d4cc395a1","status":"completed","medicationCodeableConcept":{"coding":[{"system":"http://www.nlm.nih.gov/research/umls/rxnorm","code":"10395"}]},"subject":{"reference":"Patient/02f39ca9-4636-48f9-bccd-bbb38bb4e3ef"},"effectiveDateTime":"2022-11-05T00:00:00+00:00","dosage":[{"doseAndRate":[{"doseQuantity":{"value":2,"unit":"TAB","system":"http://terminology.hl7.org/CodeSystem/v3-orderableDrugForm","code":"TAB"}}]}]},"request":{"method":"POST","url":"MedicationStatement"}},{"fullUrl":"MedicationStatement/48e2e13d-748e-4989-93bb-003633b3fc8d","resource":{"resourceType":"MedicationStatement","id":"48e2e13d-748e-4989-93bb-003633b3fc8d","status":"completed","medicationCodeableConcept":{"coding":[{"system":"http://www.nlm.nih.gov/research/umls/rxnorm","code":"3640"}]},"subject":{"reference":"Patient/02f39ca9-4636-48f9-bccd-bbb38bb4e3ef"},"effectiveDateTime":"2022-03-09T00:00:00+00:00","dosage":[{"doseAndRate":[{"doseQuantity":{"value":2,"unit":"TAB","system":"http://terminology.hl7.org/CodeSystem/v3-orderableDrugForm","code":"TAB"}}]}]},"request":{"method":"POST","url":"MedicationStatement"}},{"fullUrl":"MedicationStatement/9f4fdda7-a4ac-4b64-870c-e7324dcc96c2","resource":{"resourceType":"MedicationStatement","id":"9f4fdda7-a4ac-4b64-870c-e7324dcc96c2","status":"completed","medicationCodeableConcept":{"coding":[{"system":"http://www.nlm.nih.gov/research/umls/rxnorm","code":"8698"}]},"subject":{"reference":"Patient/02f39ca9-4636-48f9-bccd-bbb38bb4e3ef"},"effectiveDateTime":"2022-07-24T00:00:00+00:00","dosage":[{"doseAndRate":[{"doseQuantity":{"value":2,"unit":"TAB","system":"http://terminology.hl7.org/CodeSystem/v3-orderableDrugForm","code":"TAB"}}]}]},"request":{"method":"POST","url":"MedicationStatement"}},{"fullUrl":"MedicationStatement/5e03e882-267d-4ebc-b885-104d17641c4c","resource":{"resourceType":"MedicationStatement","id":"5e03e882-267d-4ebc-b885-104d17641c4c","status":"completed","medicationCodeableConcept":{"coding":[{"system":"http://www.nlm.nih.gov/research/umls/rxnorm","code":"8698"}]},"subject":{"reference":"Patient/02f39ca9-4636-48f9-bccd-bbb38bb4e3ef"},"effectiveDateTime":"2022-06-04T00:00:00+00:00","dosage":[{"doseAndRate":[{"doseQuantity":{"value":1,"unit":"TAB","system":"http://terminology.hl7.org/CodeSystem/v3-orderableDrugForm","code":"TAB"}}]}]},"request":{"method":"POST","url":"MedicationStatement"}},{"fullUrl":"MedicationStatement/09f91b12-2dcb-4ca8-a257-d7086d248da2","resource":{"resourceType":"MedicationStatement","id":"09f91b12-2dcb-4ca8-a257-d7086d248da2","status":"completed","medicationCodeableConcept":{"coding":[{"system":"http://www.nlm.nih.gov/research/umls/rxnorm","code":"10395"}]},"subject":{"reference":"Patient/02f39ca9-4636-48f9-bccd-bbb38bb4e3ef"},"effectiveDateTime":"2022-08-31T00:00:00+00:00","dosage":[{"doseAndRate":[{"doseQuantity":{"value":2,"unit":"TAB","system":"http://terminology.hl7.org/CodeSystem/v3-orderableDrugForm","code":"TAB"}}]}]},"request":{"method":"POST","url":"MedicationStatement"}},{"fullUrl":"MedicationStatement/65f67afb-8a9e-4259-812d-3e17a23e27b8","resource":{"resourceType":"MedicationStatement","id":"65f67afb-8a9e-4259-812d-3e17a23e27b8","status":"completed","medicationCodeableConcept":{"coding":[{"system":"http://www.nlm.nih.gov/research/umls/rxnorm","code":"3640"}]},"subject":{"reference":"Patient/02f39ca9-4636-48f9-bccd-bbb38bb4e3ef"},"effectiveDateTime":"2022-12-12T00:00:00+00:00","dosage":[{"doseAndRate":[{"doseQuantity":{"value":1,"unit":"TAB","system":"http://terminology.hl7.org/CodeSystem/v3-orderableDrugForm","code":"TAB"}}]}]},"request":{"method":"POST","url":"MedicationStatement"}},{"fullUrl":"MedicationStatement/e58c47af-ceb2-4657-a904-88eb2f0753c2","resource":{"resourceType":"MedicationStatement","id":"e58c47af-ceb2-4657-a904-88eb2f0753c2","status":"completed","medicationCodeableConcept":{"coding":[{"system":"http://www.nlm.nih.gov/research/umls/rxnorm","code":"8698"}]},"subject":{"reference":"Patient/02f39ca9-4636-48f9-bccd-bbb38bb4e3ef"},"effectiveDateTime":"2022-03-02T00:00:00+00:00","dosage":[{"doseAndRate":[{"doseQuantity":{"value":1,"unit":"TAB","system":"http://terminology.hl7.org/CodeSystem/v3-orderableDrugForm","code":"TAB"}}]}]},"request":{"method":"POST","url":"MedicationStatement"}},{"fullUrl":"MedicationStatement/583bac43-c394-49fc-ade9-6a68078f8713","resource":{"resourceType":"MedicationStatement","id":"583bac43-c394-49fc-ade9-6a68078f8713","status":"completed","medicationCodeableConcept":{"coding":[{"system":"http://www.nlm.nih.gov/research/umls/rxnorm","code":"7980"}]},"subject":{"reference":"Patient/02f39ca9-4636-48f9-bccd-bbb38bb4e3ef"},"effectiveDateTime":"2022-09-01T00:00:00+00:00","dosage":[{"doseAndRate":[{"doseQuantity":{"value":4.7,"unit":"TAB","system":"http://terminology.hl7.org/CodeSystem/v3-orderableDrugForm","code":"TAB"}}]}]},"request":{"method":"POST","url":"MedicationStatement"}},{"fullUrl":"MedicationStatement/f978db7e-7bef-42b5-9f9e-75baf5922527","resource":{"resourceType":"MedicationStatement","id":"f978db7e-7bef-42b5-9f9e-75baf5922527","status":"completed","medicationCodeableConcept":{"coding":[{"system":"http://www.nlm.nih.gov/research/umls/rxnorm","code":"2193"}]},"subject":{"reference":"Patient/02f39ca9-4636-48f9-bccd-bbb38bb4e3ef"},"effectiveDateTime":"2022-06-30T00:00:00+00:00","dosage":[{"doseAndRate":[{"doseQuantity":{"value":4.3,"unit":"TAB","system":"http://terminology.hl7.org/CodeSystem/v3-orderableDrugForm","code":"TAB"}}]}]},"request":{"method":"POST","url":"MedicationStatement"}},{"fullUrl":"MedicationStatement/d47e475d-059b-4235-98e7-43e7931add7b","resource":{"resourceType":"MedicationStatement","id":"d47e475d-059b-4235-98e7-43e7931add7b","status":"completed","medicationCodeableConcept":{"coding":[{"system":"http://www.nlm.nih.gov/research/umls/rxnorm","code":"2193"}]},"subject":{"reference":"Patient/02f39ca9-4636-48f9-bccd-bbb38bb4e3ef"},"effectiveDateTime":"2022-08-19T00:00:00+00:00","dosage":[{"doseAndRate":[{"doseQuantity":{"value":4,"unit":"TAB","system":"http://terminology.hl7.org/CodeSystem/v3-orderableDrugForm","code":"TAB"}}]}]},"request":{"method":"POST","url":"MedicationStatement"}},{"fullUrl":"MedicationStatement/7588178d-de19-488a-acb8-abc611ff6560","resource":{"resourceType":"MedicationStatement","id":"7588178d-de19-488a-acb8-abc611ff6560","status":"completed","medicationCodeableConcept":{"coding":[{"system":"http://www.nlm.nih.gov/research/umls/rxnorm","code":"10395"}]},"subject":{"reference":"Patient/02f39ca9-4636-48f9-bccd-bbb38bb4e3ef"},"effectiveDateTime":"2022-06-24T00:00:00+00:00","dosage":[{"doseAndRate":[{"doseQuantity":{"value":6.7,"unit":"TAB","system":"http://terminology.hl7.org/CodeSystem/v3-orderableDrugForm","code":"TAB"}}]}]},"request":{"method":"POST","url":"MedicationStatement"}},{"fullUrl":"MedicationStatement/8ee76ec8-7221-41c7-9232-f9969d14b62c","resource":{"resourceType":"MedicationStatement","id":"8ee76ec8-7221-41c7-9232-f9969d14b62c","status":"completed","medicationCodeableConcept":{"coding":[{"system":"http://www.nlm.nih.gov/research/umls/rxnorm","code":"7980"}]},"subject":{"reference":"Patient/02f39ca9-4636-48f9-bccd-bbb38bb4e3ef"},"effectiveDateTime":"2022-07-01T00:00:00+00:00","dosage":[{"doseAndRate":[{"doseQuantity":{"value":4.1,"unit":"TAB","system":"http://terminology.hl7.org/CodeSystem/v3-orderableDrugForm","code":"TAB"}}]}]},"request":{"method":"POST","url":"MedicationStatement"}},{"fullUrl":"MedicationStatement/c4d2b834-bd4c-42b8-bfa5-456b6a426062","resource":{"resourceType":"MedicationStatement","id":"c4d2b834-bd4c-42b8-bfa5-456b6a426062","status":"completed","medicationCodeableConcept":{"coding":[{"system":"http://www.nlm.nih.gov/research/umls/rxnorm","code":"7980"}]},"subject":{"reference":"Patient/02f39ca9-4636-48f9-bccd-bbb38bb4e3ef"},"effectiveDateTime":"2022-03-29T00:00:00+00:00","dosage":[{"doseAndRate":[{"doseQuantity":{"value":5.9,"unit":"TAB","system":"http://terminology.hl7.org/CodeSystem/v3-orderableDrugForm","code":"TAB"}}]}]},"request":{"method":"POST","url":"MedicationStatement"}},{"fullUrl":"MedicationStatement/94d441a4-56ae-4abd-b756-534236e29645","resource":{"resourceType":"MedicationStatement","id":"94d441a4-56ae-4abd-b756-534236e29645","status":"completed","medicationCodeableConcept":{"coding":[{"system":"http://www.nlm.nih.gov/research/umls/rxnorm","code":"7980"}]},"subject":{"reference":"Patient/02f39ca9-4636-48f9-bccd-bbb38bb4e3ef"},"effectiveDateTime":"2022-08-08T00:00:00+00:00","dosage":[{"doseAndRate":[{"doseQuantity":{"value":4.2,"unit":"TAB","system":"http://terminology.hl7.org/CodeSystem/v3-orderableDrugForm","code":"TAB"}}]}]},"request":{"method":"POST","url":"MedicationStatement"}},{"fullUrl":"Encounter/3e38c0b5-86e1-425d-b057-a32db4b3702c","resource":{"resourceType":"Encounter","id":"3e38c0b5-86e1-425d-b057-a32db4b3702c","status":"finished","class":{"system":"http://terminology.hl7.org/CodeSystem/v3-ActCode","code":"IMP","display":"inpatient encounter"},"type":[{"coding":[{"system":"http://terminology.hl7.org/CodeSystem/encounter-type","code":"OKI"}]}],"subject":{"reference":"Patient/02f39ca9-4636-48f9-bccd-bbb38bb4e3ef"},"period":{"start":"2022-12-31T00:00:00+00:00","end":"2023-01-09T00:00:00+00:00"}},"request":{"method":"POST","url":"Encounter"}},{"fullUrl":"Encounter/8edb9a20-e049-4d7b-b7b8-be98ac899dd1","resource":{"resourceType":"Encounter","id":"8edb9a20-e049-4d7b-b7b8-be98ac899dd1","status":"finished","class":{"system":"http://terminology.hl7.org/CodeSystem/v3-ActCode","code":"IMP","display":"inpatient encounter"},"type":[{"coding":[{"system":"http://terminology.hl7.org/CodeSystem/encounter-type","code":"ADMS"}]}],"subject":{"reference":"Patient/02f39ca9-4636-48f9-bccd-bbb38bb4e3ef"},"period":{"start":"2022-12-19T00:00:00+00:00","end":"2022-12-20T00:00:00+00:00"}},"request":{"method":"POST","url":"Encounter"}},{"fullUrl":"Encounter/954ce99b-a058-4b9e-ac91-b01577723143","resource":{"resourceType":"Encounter","id":"954ce99b-a058-4b9e-ac91-b01577723143","status":"finished","class":{"system":"http://terminology.hl7.org/CodeSystem/v3-ActCode","code":"VR","display":"virtual"},"type":[{"coding":[{"system":"http://terminology.hl7.org/CodeSystem/encounter-type","code":"OKI"}]}],"subject":{"reference":"Patient/02f39ca9-4636-48f9-bccd-bbb38bb4e3ef"},"period":{"start":"2022-03-26T00:00:00+00:00","end":"2022-03-31T00:00:00+00:00"}},"request":{"method":"POST","url":"Encounter"}},{"fullUrl":"Encounter/3de21593-ab12-4450-a94d-c3b523258ac1","resource":{"resourceType":"Encounter","id":"3de21593-ab12-4450-a94d-c3b523258ac1","status":"finished","class":{"system":"http://terminology.hl7.org/CodeSystem/v3-ActCode","code":"NONAC","display":"inpatient non-acute"},"type":[{"coding":[{"system":"http://terminology.hl7.org/CodeSystem/encounter-type","code":"BD/BM-clin"}]}],"subject":{"reference":"Patient/02f39ca9-4636-48f9-bccd-bbb38bb4e3ef"},"period":{"start":"2022-06-16T00:00:00+00:00","end":"2022-06-19T00:00:00+00:00"}},"request":{"method":"POST","url":"Encounter"}},{"fullUrl":"Location/24e29d0e-8c68-4583-bf1b-b2c587885fd3","resource":{"resourceType":"Location","id":"24e29d0e-8c68-4583-bf1b-b2c587885fd3","status":"active","name":"Smith, Garner and Stewart","telecom":[{"system":"phone","value":"941-860-0403x6806","use":"home"}],"address":{"use":"work","line":["69489 Benjamin Row"],"city":"Anthonyview","state":"FL","postalCode":"38950"}},"request":{"method":"POST","url":"Location"}},{"fullUrl":"Observation/4a52b44d-5c87-4216-8515-ea84049c7ec4","resource":{"resourceType":"Observation","id":"4a52b44d-5c87-4216-8515-ea84049c7ec4","status":"final","code":{"coding":[{"system":"http://loinc.org","code":"81956-5"}]},"subject":{"reference":"Patient/02f39ca9-4636-48f9-bccd-bbb38bb4e3ef"},"effectiveDateTime":"2022-04-03T00:00:00+00:00","valueDateTime":"2022-01-22T00:00:00+00:00"},"request":{"method":"POST","url":"Observation"}},{"fullUrl":"Patient/36609ae0-6f34-4623-8177-0ca93d1b76f8","resource":{"resourceType":"Patient","id":"36609ae0-6f34-4623-8177-0ca93d1b76f8","identifier":[{"type":{"coding":[{"system":"http://terminology.hl7.org/CodeSystem/v2-0203","code":"MR"}]},"system":"urn:fhirgen:mrn","value":"323-35-8105"},{"type":{"coding":[{"system":"http://terminology.hl7.org/CodeSystem/v2-0203","code":"SS"}]},"system":"http://hl7.org/fhir/sid/us-ssn","value":"156-73-7570"}],"name":[{"use":"official","family":"Cooley","given":["Wanda"]},{"use":"maiden","family":"Church"}],"telecom":[{"system":"phone","value":"(891)682-6405","use":"home"},{"system":"email","value":"lindseykaren@gmail.com","use":"mobile"}],"gender":"female","birthDate":"1991-07-18","address":[{"use":"home","line":["5103 Jerry Plaza Apt. 939"],"city":"Lake Whitney","state":"ND","postalCode":"82924"},{"use":"old","line":["342 Porter Island"],"city":"Laurieberg","state":"SC","postalCode":"65349"}],"maritalStatus":{"coding":[{"system":"http://terminology.hl7.org/CodeSystem/v3-MaritalStatus","code":"W","display":"Widowed"}]}},"request":{"method":"POST","url":"Patient"}},{"fullUrl":"Observation/e3603a70-f62c-44f5-b567-a602c9d81f12","resource":{"resourceType":"Observation","id":"e3603a70-f62c-44f5-b567-a602c9d81f12","status":"final","code":{"coding":[{"system":"http://loinc.org","code":"11084-1"}]},"subject":{"reference":"Patient/36609ae0-6f34-4623-8177-0ca93d1b76f8"},"effectiveDateTime":"2022-07-21T00:00:00+00:00","valueRatio":{"numerator":{"value":1},"denominator":{"value":64}}},"request":{"method":"POST","url":"Observation"}},{"fullUrl":"Observation/2508d462-7cf8-4660-afaa-fc9032032075","resource":{"resourceType":"Observation","id":"2508d462-7cf8-4660-afaa-fc9032032075","status":"final","code":{"coding":[{"system":"http://loinc.org","code":"50695-6"}]},"subject":{"reference":"Patient/36609ae0-6f34-4623-8177-0ca93d1b76f8"},"effectiveDateTime":"2022-01-14T00:00:00+00:00","valueRatio":{"numerator":{"value":1},"denominator":{"value":32}}},"request":{"method":"POST","url":"Observation"}},{"fullUrl":"Condition/2990f487-19ba-4eb0-a4e3-c6762d1f2fba","resource":{"resourceType":"Condition","id":"2990f487-19ba-4eb0-a4e3-c6762d1f2fba","code":{"coding":[{"system":"http://snomed.info/sct","code":"91554004"}]},"subject":{"reference":"Patient/36609ae0-6f34-4623-8177-0ca93d1b76f8"},"onsetDateTime":"2022-10-01T00:00:00+00:00"},"request":{"method":"POST","url":"Condition"}},{"fullUrl":"Condition/108b8185-6a68-4e15-a187-64d021e4c9f3","resource":{"resourceType":"Condition","id":"108b8185-6a68-4e15-a187-64d021e4c9f3","code":{"coding":[{"system":"http://snomed.info/sct","code":"56317004"}]},"subject":{"reference":"Patient/36609ae0-6f34-4623-8177-0ca93d1b76f8"},"onsetDateTime":"2022-07-30T00:00:00+00:00"},"request":{"method":"POST","url":"Condition"}},{"fullUrl":"Condition/ecf6c617-abec-43c4-a545-5ae835a72307","resource":{"resourceType":"Condition","id":"ecf6c617-abec-43c4-a545-5ae835a72307","code":{"coding":[{"system":"http://snomed.info/sct","code":"31070006"}]},"subject":{"reference":"Patient/36609ae0-6f34-4623-8177-0ca93d1b76f8"},"onsetDateTime":"2022-07-25T00:00:00+00:00"},"request":{"method":"POST","url":"Condition"}},{"fullUrl":"Observation/1d09ae22-2ba2-4ba0-ad4f-b3e4ea2e4e89","resource":{"resourceType":"Observation","id":"1d09ae22-2ba2-4ba0-ad4f-b3e4ea2e4e89","status":"final","code":{"coding":[{"system":"http://loinc.org","code":"6690-2"}]},"subject":{"reference":"Patient/36609ae0-6f34-4623-8177-0ca93d1b76f8"},"effectiveDateTime":"2022-02-04T00:00:00+00:00","valueQuantity":{"value":5.6}},"request":{"method":"POST","url":"Observation"}},{"fullUrl":"Observation/ea3255db-4deb-4153-b437-16984cebb08c","resource":{"resourceType":"Observation","id":"ea3255db-4deb-4153-b437-16984cebb08c","status":"final","code":{"coding":[{"system":"http://www.ama-assn.org/go/cpt","code":"85048"}]},"subject":{"reference":"Patient/36609ae0-6f34-4623-8177-0ca93d1b76f8"},"effectiveDateTime":"2022-12-18T00:00:00+00:00","valueQuantity":{"value":7.5}},"request":{"method":"POST","url":"Observation"}},{"fullUrl":"Observation/52e13f9f-a487-4533-a1f0-5351b8519ba4","resource":{"resourceType":"Observation","id":"52e13f9f-a487-4533-a1f0-5351b8519ba4","status":"final","code":{"coding":[{"system":"http://loinc.org","code":"6690-2"}]},"subject":{"reference":"Patient/36609ae0-6f34-4623-8177-0ca93d1b76f8"},"effectiveDateTime":"2022-05-15T00:00:00+00:00","valueCodeableConcept":{"coding":[{"system":"snomed","code":"123456","display":"fake snomed"}]}},"request":{"method":"POST","url":"Observation"}},{"fullUrl":"Observation/c4206437-0f32-4ad0-ba8b-4afff5d22e15","resource":{"resourceType":"Observation","id":"c4206437-0f32-4ad0-ba8b-4afff5d22e15","status":"final","code":{"coding":[{"system":"http://loinc.org","code":"804-5"}]},"subject":{"reference":"Patient/36609ae0-6f34-4623-8177-0ca93d1b76f8"},"effectiveDateTime":"2022-07-31T00:00:00+00:00","valueCodeableConcept":{"coding":[{"system":"snomed","code":"123456","display":"fake snomed"}]}},"request":{"method":"POST","url":"Observation"}},{"fullUrl":"Observation/a8c87d63-604b-4398-8fe1-176fe0a48d88","resource":{"resourceType":"Observation","id":"a8c87d63-604b-4398-8fe1-176fe0a48d88","status":"final","code":{"coding":[{"system":"http://loinc.org","code":"6690-2"}]},"subject":{"reference":"Patient/36609ae0-6f34-4623-8177-0ca93d1b76f8"},"effectiveDateTime":"2022-02-23T00:00:00+00:00","valueCodeableConcept":{"coding":[{"system":"snomed","code":"123456","display":"fake snomed"}]}},"request":{"method":"POST","url":"Observation"}},{"fullUrl":"Observation/b1c07ec6-3b8c-468f-9419-3fa87eb30c48","resource":{"resourceType":"Observation","id":"b1c07ec6-3b8c-468f-9419-3fa87eb30c48","status":"final","code":{"coding":[{"system":"http://loinc.org","code":"49498-9"}]},"subject":{"reference":"Patient/36609ae0-6f34-4623-8177-0ca93d1b76f8"},"effectiveDateTime":"2022-04-11T00:00:00+00:00"},"request":{"method":"POST","url":"Observation"}},{"fullUrl":"Observation/9c36253e-828f-4103-8a92-dda8d7b2a895","resource":{"resourceType":"Observation","id":"9c36253e-828f-4103-8a92-dda8d7b2a895","status":"final","code":{"coding":[{"system":"http://loinc.org","code":"49498-9"}]},"subject":{"reference":"Patient/36609ae0-6f34-4623-8177-0ca93d1b76f8"},"effectiveDateTime":"2022-01-10T00:00:00+00:00"},"request":{"method":"POST","url":"Observation"}},{"fullUrl":"Observation/68841080-d6d4-47df-a79c-e52c9f3908cc","resource":{"resourceType":"Observation","id":"68841080-d6d4-47df-a79c-e52c9f3908cc","status":"final","code":{"coding":[{"system":"http://loinc.org","code":"49498-9"}]},"subject":{"reference":"Patient/36609ae0-6f34-4623-8177-0ca93d1b76f8"},"effectiveDateTime":"2022-04-04T00:00:00+00:00"},"request":{"method":"POST","url":"Observation"}},{"fullUrl":"Procedure/7ad12d43-488d-48ce-a532-993572b9b3c6","resource":{"resourceType":"Procedure","id":"7ad12d43-488d-48ce-a532-993572b9b3c6","status":"completed","code":{"coding":[{"system":"http://snomed.info/sct","code":"189009"}]},"subject":{"reference":"Patient/36609ae0-6f34-4623-8177-0ca93d1b76f8"},"performedDateTime":"2022-02-03T00:00:00+00:00"},"request":{"method":"POST","url":"Procedure"}},{"fullUrl":"Procedure/553c664e-ac33-4545-92ae-73d869c8f70c","resource":{"resourceType":"Procedure","id":"553c664e-ac33-4545-92ae-73d869c8f70c","status":"completed","code":{"coding":[{"system":"http://snomed.info/sct","code":"115006"}]},"subject":{"reference":"Patient/36609ae0-6f34-4623-8177-0ca93d1b76f8"},"performedDateTime":"2022-08-30T00:00:00+00:00"},"request":{"method":"POST","url":"Procedure"}},{"fullUrl":"Procedure/fffbc247-3e2c-490d-afc2-73ff03a0610e","resource":{"resourceType":"Procedure","id":"fffbc247-3e2c-490d-afc2-73ff03a0610e","status":"completed","code":{"coding":[{"system":"http://snomed.info/sct","code":"189009"}]},"subject":{"reference":"Patient/36609ae0-6f34-4623-8177-0ca93d1b76f8"},"performedDateTime":"2022-11-26T00:00:00+00:00"},"request":{"method":"POST","url":"Procedure"}},{"fullUrl":"MedicationStatement/420c6e6f-c7b0-4196-aa6c-9a6621630c78","resource":{"resourceType":"MedicationStatement","id":"420c6e6f-c7b0-4196-aa6c-9a6621630c78","status":"completed","medicationCodeableConcept":{"coding":[{"system":"http://www.nlm.nih.gov/research/umls/rxnorm","code":"10395"}]},"subject":{"reference":"Patient/36609ae0-6f34-4623-8177-0ca93d1b76f8"},"effectiveDateTime":"2022-12-26T00:00:00+00:00","dosage":[{"doseAndRate":[{"doseQuantity":{"value":1,"unit":"TAB","system":"http://terminology.hl7.org/CodeSystem/v3-orderableDrugForm","code":"TAB"}}]}]},"request":{"method":"POST","url":"MedicationStatement"}},{"fullUrl":"MedicationStatement/94c7f79d-6f2e-42fc-af27-b96c688c97a2","resource":{"resourceType":"MedicationStatement","id":"94c7f79d-6f2e-42fc-af27-b96c688c97a2","status":"completed","medicationCodeableConcept":{"coding":[{"system":"http://www.nlm.nih.gov/research/umls/rxnorm","code":"2193"}]},"subject":{"reference":"Patient/36609ae0-6f34-4623-8177-0ca93d1b76f8"},"effectiveDateTime":"2022-06-15T00:00:00+00:00","dosage":[{"doseAndRate":[{"doseQuantity":{"value":2,"unit":"TAB","system":"http://terminology.hl7.org/CodeSystem/v3-orderableDrugForm","code":"TAB"}}]}]},"request":{"method":"POST","url":"MedicationStatement"}},{"fullUrl":"MedicationStatement/393c8042-250a-4dd8-a923-b56bee6fcef5","resource":{"resourceType":"MedicationStatement","id":"393c8042-250a-4dd8-a923-b56bee6fcef5","status":"completed","medicationCodeableConcept":{"coding":[{"system":"http://www.nlm.nih.gov/research/umls/rxnorm","code":"3640"}]},"subject":{"reference":"Patient/36609ae0-6f34-4623-8177-0ca93d1b76f8"},"effectiveDateTime":"2022-12-21T00:00:00+00:00","dosage":[{"doseAndRate":[{"doseQuantity":{"value":2,"unit":"TAB","system":"http://terminology.hl7.org/CodeSystem/v3-orderableDrugForm","code":"TAB"}}]}]},"request":{"method":"POST","url":"MedicationStatement"}},{"fullUrl":"MedicationStatement/f5251baf-5231-4617-a975-bf1616ec0907","resource":{"resourceType":"MedicationStatement","id":"f5251baf-5231-4617-a975-bf1616ec0907","status":"completed","medicationCodeableConcept":{"coding":[{"system":"http://www.nlm.nih.gov/research/umls/rxnorm","code":"7984"}]},"subject":{"reference":"Patient/36609ae0-6f34-4623-8177-0ca93d1b76f8"},"effectiveDateTime":"2022-04-17T00:00:00+00:00","dosage":[{"doseAndRate":[{"doseQuantity":{"value":1,"unit":"TAB","system":"http://terminology.hl7.org/CodeSystem/v3-orderableDrugForm","code":"TAB"}}]}]},"request":{"method":"POST","url":"MedicationStatement"}},{"fullUrl":"MedicationStatement/b73ccd9e-99e9-4634-8b84-b24b1363617c","resource":{"resourceType":"MedicationStatement","id":"b73ccd9e-99e9-4634-8b84-b24b1363617c","status":"completed","medicationCodeableConcept":{"coding":[{"system":"http://www.nlm.nih.gov/research/umls/rxnorm","code":"2193"}]},"subject":{"reference":"Patient/36609ae0-6f34-4623-8177-0ca93d1b76f8"},"effectiveDateTime":"2022-12-14T00:00:00+00:00","dosage":[{"doseAndRate":[{"doseQuantity":{"value":5.5,"unit":"TAB","system":"http://terminology.hl7.org/CodeSystem/v3-orderableDrugForm","code":"TAB"}}]}]},"request":{"method":"POST","url":"MedicationStatement"}},{"fullUrl":"MedicationStatement/5fb8a28f-d2b3-4d7d-af58-d396325fa4ae","resource":{"resourceType":"MedicationStatement","id":"5fb8a28f-d2b3-4d7d-af58-d396325fa4ae","status":"completed","medicationCodeableConcept":{"coding":[{"system":"http://www.nlm.nih.gov/research/umls/rxnorm","code":"7984"}]},"subject":{"reference":"Patient/36609ae0-6f34-4623-8177-0ca93d1b76f8"},"effectiveDateTime":"2022-03-25T00:00:00+00:00","dosage":[{"doseAndRate":[{"doseQuantity":{"value":6.1,"unit":"TAB","system":"http://terminology.hl7.org/CodeSystem/v3-orderableDrugForm","code":"TAB"}}]}]},"request":{"method":"POST","url":"MedicationStatement"}},{"fullUrl":"MedicationStatement/f0d76cab-7406-4db4-954d-816961fc486b","resource":{"resourceType":"MedicationStatement","id":"f0d76cab-7406-4db4-954d-816961fc486b","status":"completed","medicationCodeableConcept":{"coding":[{"system":"http://www.nlm.nih.gov/research/umls/rxnorm","code":"7980"}]},"subject":{"reference":"Patient/36609ae0-6f34-4623-8177-0ca93d1b76f8"},"effectiveDateTime":"2022-11-02T00:00:00+00:00","dosage":[{"doseAndRate":[{"doseQuantity":{"value":6.7,"unit":"TAB","system":"http://terminology.hl7.org/CodeSystem/v3-orderableDrugForm","code":"TAB"}}]}]},"request":{"method":"POST","url":"MedicationStatement"}},{"fullUrl":"MedicationStatement/deba8a88-9069-4c04-867a-5b2e0183131d","resource":{"resourceType":"MedicationStatement","id":"deba8a88-9069-4c04-867a-5b2e0183131d","status":"completed","medicationCodeableConcept":{"coding":[{"system":"http://www.nlm.nih.gov/research/umls/rxnorm","code":"3640"}]},"subject":{"reference":"Patient/36609ae0-6f34-4623-8177-0ca93d1b76f8"},"effectiveDateTime":"2022-09-23T00:00:00+00:00","dosage":[{"doseAndRate":[{"doseQuantity":{"value":5.9,"unit":"TAB","system":"http://terminology.hl7.org/CodeSystem/v3-orderableDrugForm","code":"TAB"}}]}]},"request":{"method":"POST","url":"MedicationStatement"}},{"fullUrl":"MedicationStatement/23f8bf39-ce86-4f1d-bc8d-b3c3b88cde50","resource":{"resourceType":"MedicationStatement","id":"23f8bf39-ce86-4f1d-bc8d-b3c3b88cde50","status":"completed","medicationCodeableConcept":{"coding":[{"system":"http://www.nlm.nih.gov/research/umls/rxnorm","code":"7980"}]},"subject":{"reference":"Patient/36609ae0-6f34-4623-8177-0ca93d1b76f8"},"effectiveDateTime":"2022-11-22T00:00:00+00:00","dosage":[{"doseAndRate":[{"doseQuantity":{"value":6.5,"unit":"TAB","system":"http://terminology.hl7.org/CodeSystem/v3-orderableDrugForm","code":"TAB"}}]}]},"request":{"method":"POST","url":"MedicationStatement"}},{"fullUrl":"MedicationStatement/f93f24e5-61db-45d5-8879-3f4a661a4a5d","resource":{"resourceType":"MedicationStatement","id":"f93f24e5-61db-45d5-8879-3f4a661a4a5d","status":"completed","medicationCodeableConcept":{"coding":[{"system":"http://www.nlm.nih.gov/research/umls/rxnorm","code":"7980"}]},"subject":{"reference":"Patient/36609ae0-6f34-4623-8177-0ca93d1b76f8"},"effectiveDateTime":"2022-11-10T00:00:00+00:00","dosage":[{"doseAndRate":[{"doseQuantity":{"value":5.8,"unit":"TAB","system":"http://terminology.hl7.org/CodeSystem/v3-orderableDrugForm","code":"TAB"}}]}]},"request":{"method":"POST","url":"MedicationStatement"}},{"fullUrl":"MedicationStatement/8c40d832-1edd-4f03-a006-f70b0cd717ee","resource":{"resourceType":"MedicationStatement","id":"8c40d832-1edd-4f03-a006-f70b0cd717ee","status":"completed","medicationCodeableConcept":{"coding":[{"system":"http://www.nlm.nih.gov/research/umls/rxnorm","code":"7980"}]},"subject":{"reference":"Patient/36609ae0-6f34-4623-8177-0ca93d1b76f8"},"effectiveDateTime":"2022-12-24T00:00:00+00:00","dosage":[{"doseAndRate":[{"doseQuantity":{"value":6.4,"unit":"TAB","system":"http://terminology.hl7.org/CodeSystem/v3-orderableDrugForm","code":"TAB"}}]}]},"request":{"method":"POST","url":"MedicationStatement"}},{"fullUrl":"Encounter/5e054bf2-1249-4080-b059-275a1055a435","resource":{"resourceType":"Encounter","id":"5e054bf2-1249-4080-b059-275a1055a435","status":"finished","class":{"system":"http://terminology.hl7.org/CodeSystem/v3-ActCode","code":"IMP","display":"inpatient encounter"},"type":[{"coding":[{"system":"http://terminology.hl7.org/CodeSystem/encounter-type","code":"ADMS"}]}],"subject":{"reference":"Patient/36609ae0-6f34-4623-8177-0ca93d1b76f8"},"period":{"start":"2022-12-23T00:00:00+00:00","end":"2022-12-23T00:00:00+00:00"}},"request":{"method":"POST","url":"Encounter"}},{"fullUrl":"Encounter/123977ac-8277-4248-953f-f04482058f8d","resource":{"resourceType":"Encounter","id":"123977ac-8277-4248-953f-f04482058f8d","status":"finished","class":{"system":"http://terminology.hl7.org/CodeSystem/v3-ActCode","code":"IMP","display":"inpatient encounter"},"type":[{"coding":[{"system":"http://terminology.hl7.org/CodeSystem/encounter-type","code":"ADMS"}]}],"subject":{"reference":"Patient/36609ae0-6f34-4623-8177-0ca93d1b76f8"},"period":{"start":"2022-02-21T00:00:00+00:00","end":"2022-02-25T00:00:00+00:00"}},"request":{"method":"POST","url":"Encounter"}},{"fullUrl":"Encounter/3df1da3d-5e6f-42a3-95e8-b343765a5017","resource":{"resourceType":"Encounter","id":"3df1da3d-5e6f-42a3-95e8-b343765a5017","status":"finished","class":{"system":"http://terminology.hl7.org/CodeSystem/v3-ActCode","code":"IMP","display":"inpatient encounter"},"type":[{"coding":[{"system":"http://terminology.hl7.org/CodeSystem/encounter-type","code":"OKI"}]}],"subject":{"reference":"Patient/36609ae0-6f34-4623-8177-0ca93d1b76f8"},"period":{"start":"2022-02-05T00:00:00+00:00","end":"2022-02-14T00:00:00+00:00"}},"request":{"method":"POST","url":"Encounter"}},{"fullUrl":"Encounter/4b8709d4-969c-421f-9a23-d7605d0ce281","resource":{"resourceType":"Encounter","id":"4b8709d4-969c-421f-9a23-d7605d0ce281","status":"finished","class":{"system":"http://terminology.hl7.org/CodeSystem/v3-ActCode","code":"FLD","display":"field"},"type":[{"coding":[{"system":"http://terminology.hl7.org/CodeSystem/encounter-type","code":"BD/BM-clin"}]}],"subject":{"reference":"Patient/36609ae0-6f34-4623-8177-0ca93d1b76f8"},"period":{"start":"2022-06-13T00:00:00+00:00","end":"2022-06-16T00:00:00+00:00"}},"request":{"method":"POST","url":"Encounter"}},{"fullUrl":"Encounter/dfceb556-4878-4288-b348-fabe33a8bb11","resource":{"resourceType":"Encounter","id":"dfceb556-4878-4288-b348-fabe33a8bb11","status":"finished","class":{"system":"http://terminology.hl7.org/CodeSystem/v3-ActCode","code":"EMER","display":"emergency"},"type":[{"coding":[{"system":"http://terminology.hl7.org/CodeSystem/encounter-type","code":"CCS60"}]}],"subject":{"reference":"Patient/36609ae0-6f34-4623-8177-0ca93d1b76f8"},"period":{"start":"2022-03-17T00:00:00+00:00","end":"2022-03-24T00:00:00+00:00"}},"request":{"method":"POST","url":"Encounter"}},{"fullUrl":"Location/01eb0c52-1301-45e7-b1f2-e1b2a2f61669","resource":{"resourceType":"Location","id":"01eb0c52-1301-45e7-b1f2-e1b2a2f61669","status":"active","name":"Schroeder-Hunter","telecom":[{"system":"phone","value":"373-731-5386x84986","use":"mobile"}],"address":{"use":"work","line":["090 Evelyn Shores Apt. 231"],"city":"Racheltown","state":"NE","postalCode":"46783"}},"request":{"method":"POST","url":"Location"}},{"fullUrl":"Observation/26b451c4-b02f-40eb-b649-f6ac6fdcb65b","resource":{"resourceType":"Observation","id":"26b451c4-b02f-40eb-b649-f6ac6fdcb65b","status":"final","code":{"coding":[{"system":"http://loinc.org","code":"81956-5"}]},"subject":{"reference":"Patient/36609ae0-6f34-4623-8177-0ca93d1b76f8"},"effectiveDateTime":"2022-09-13T00:00:00+00:00","valueDateTime":"2022-08-10T00:00:00+00:00"},"request":{"method":"POST","url":"Observation"}},{"fullUrl":"Patient/9d9786cd-869b-49ed-a092-51adfa2fc519","resource":{"resourceType":"Patient","id":"9d9786cd-869b-49ed-a092-51adfa2fc519","identifier":[{"type":{"coding":[{"system":"http://terminology.hl7.org/CodeSystem/v2-0203","code":"MR"}]},"system":"urn:fhirgen:mrn","value":"204-61-4456"},{"type":{"coding":[{"system":"http://terminology.hl7.org/CodeSystem/v2-0203","code":"SS"}]},"system":"http://hl7.org/fhir/sid/us-ssn","value":"763-86-2212"}],"name":[{"use":"official","family":"Rowe","given":["Russell"]},{"use":"maiden","family":"Sawyer"}],"telecom":[{"system":"phone","value":"308-071-0163x327","use":"work"},{"system":"email","value":"josegonzalez@gmail.com","use":"work"}],"gender":"other","birthDate":"2002-04-15","address":[{"use":"home","line":["4614 Davis Haven"],"city":"West Brianshire","state":"VT","postalCode":"94598"},{"use":"old","line":["88517 Tiffany Unions Apt. 756"],"city":"Arielmouth","state":"NH","postalCode":"70855"}],"maritalStatus":{"coding":[{"system":"http://terminology.hl7.org/CodeSystem/v3-MaritalStatus","code":"M","display":"Married"}]}},"request":{"method":"POST","url":"Patient"}},{"fullUrl":"Observation/cd3f3a79-587d-46d4-82bd-68f5896bc6ef","resource":{"resourceType":"Observation","id":"cd3f3a79-587d-46d4-82bd-68f5896bc6ef","status":"final","code":{"coding":[{"system":"http://loinc.org","code":"26009-1"}]},"subject":{"reference":"Patient/9d9786cd-869b-49ed-a092-51adfa2fc519"},"effectiveDateTime":"2022-12-28T00:00:00+00:00","valueRatio":{"numerator":{"value":1},"denominator":{"value":64}}},"request":{"method":"POST","url":"Observation"}},{"fullUrl":"Observation/573f376d-9373-4b3f-b295-711791751292","resource":{"resourceType":"Observation","id":"573f376d-9373-4b3f-b295-711791751292","status":"final","code":{"coding":[{"system":"http://loinc.org","code":"47235-7"}]},"subject":{"reference":"Patient/9d9786cd-869b-49ed-a092-51adfa2fc519"},"effectiveDateTime":"2022-11-02T00:00:00+00:00","valueRatio":{"numerator":{"value":1},"denominator":{"value":32}}},"request":{"method":"POST","url":"Observation"}},{"fullUrl":"Condition/f929ea8f-70c8-4fca-89bb-d5c39b2902cd","resource":{"resourceType":"Condition","id":"f929ea8f-70c8-4fca-89bb-d5c39b2902cd","code":{"coding":[{"system":"http://snomed.info/sct","code":"44882003"}]},"subject":{"reference":"Patient/9d9786cd-869b-49ed-a092-51adfa2fc519"},"onsetDateTime":"2022-04-10T00:00:00+00:00"},"request":{"method":"POST","url":"Condition"}},{"fullUrl":"Condition/0c69b978-9752-40ca-82df-8cefd4ea9313","resource":{"resourceType":"Condition","id":"0c69b978-9752-40ca-82df-8cefd4ea9313","code":{"coding":[{"system":"http://snomed.info/sct","code":"56317004"}]},"subject":{"reference":"Patient/9d9786cd-869b-49ed-a092-51adfa2fc519"},"onsetDateTime":"2022-05-13T00:00:00+00:00"},"request":{"method":"POST","url":"Condition"}},{"fullUrl":"Condition/6f3411f0-73b7-4b18-b52a-ce2b75b2ee83","resource":{"resourceType":"Condition","id":"6f3411f0-73b7-4b18-b52a-ce2b75b2ee83","code":{"coding":[{"system":"http://snomed.info/sct","code":"79342006"}]},"subject":{"reference":"Patient/9d9786cd-869b-49ed-a092-51adfa2fc519"},"onsetDateTime":"2022-09-26T00:00:00+00:00"},"request":{"method":"POST","url":"Condition"}},{"fullUrl":"Observation/3a3cbba4-69f2-4a45-b782-a2fc0608a48e","resource":{"resourceType":"Observation","id":"3a3cbba4-69f2-4a45-b782-a2fc0608a48e","status":"final","code":{"coding":[{"system":"http://www.ama-assn.org/go/cpt","code":"85048"}]},"subject":{"reference":"Patient/9d9786cd-869b-49ed-a092-51adfa2fc519"},"effectiveDateTime":"2022-03-24T00:00:00+00:00","valueQuantity":{"value":5.2}},"request":{"method":"POST","url":"Observation"}},{"fullUrl":"Observation/20a60d60-6c5e-4853-8c3d-bde1700d53d9","resource":{"resourceType":"Observation","id":"20a60d60-6c5e-4853-8c3d-bde1700d53d9","status":"final","code":{"coding":[{"system":"http://loinc.org","code":"6690-2"}]},"subject":{"reference":"Patient/9d9786cd-869b-49ed-a092-51adfa2fc519"},"effectiveDateTime":"2022-10-14T00:00:00+00:00","valueQuantity":{"value":5.5}},"request":{"method":"POST","url":"Observation"}},{"fullUrl":"Observation/813d080c-a5da-4a59-b538-10c242865945","resource":{"resourceType":"Observation","id":"813d080c-a5da-4a59-b538-10c242865945","status":"final","code":{"coding":[{"system":"http://loinc.org","code":"49498-9"}]},"subject":{"reference":"Patient/9d9786cd-869b-49ed-a092-51adfa2fc519"},"effectiveDateTime":"2022-09-18T00:00:00+00:00","valueQuantity":{"value":5}},"request":{"method":"POST","url":"Observation"}},{"fullUrl":"Observation/b6fe91ee-c86e-47f5-a822-f9191b3fe076","resource":{"resourceType":"Observation","id":"b6fe91ee-c86e-47f5-a822-f9191b3fe076","status":"final","code":{"coding":[{"system":"http://loinc.org","code":"26464-8"}]},"subject":{"reference":"Patient/9d9786cd-869b-49ed-a092-51adfa2fc519"},"effectiveDateTime":"2022-07-13T00:00:00+00:00","valueCodeableConcept":{"coding":[{"system":"snomed","code":"123456","display":"fake snomed"}]}},"request":{"method":"POST","url":"Observation"}},{"fullUrl":"Observation/7366e7b0-a99d-400e-8504-31620bc5fc47","resource":{"resourceType":"Observation","id":"7366e7b0-a99d-400e-8504-31620bc5fc47","status":"final","code":{"coding":[{"system":"http://loinc.org","code":"26464-8"}]},"subject":{"reference":"Patient/9d9786cd-869b-49ed-a092-51adfa2fc519"},"effectiveDateTime":"2022-10-19T00:00:00+00:00","valueCodeableConcept":{"coding":[{"system":"snomed","code":"123456","display":"fake snomed"}]}},"request":{"method":"POST","url":"Observation"}},{"fullUrl":"Observation/18bce660-204b-4d10-aded-1202bd21fee1","resource":{"resourceType":"Observation","id":"18bce660-204b-4d10-aded-1202bd21fee1","status":"final","code":{"coding":[{"system":"http://loinc.org","code":"49498-9"}]},"subject":{"reference":"Patient/9d9786cd-869b-49ed-a092-51adfa2fc519"},"effectiveDateTime":"2022-05-19T00:00:00+00:00"},"request":{"method":"POST","url":"Observation"}},{"fullUrl":"Observation/030e7320-0daf-4681-8f77-e333a81a2a27","resource":{"resourceType":"Observation","id":"030e7320-0daf-4681-8f77-e333a81a2a27","status":"final","code":{"coding":[{"system":"http://loinc.org","code":"49498-9"}]},"subject":{"reference":"Patient/9d9786cd-869b-49ed-a092-51adfa2fc519"},"effectiveDateTime":"2022-02-27T00:00:00+00:00"},"request":{"method":"POST","url":"Observation"}},{"fullUrl":"Observation/28383192-5357-43f7-8cd6-8ca50a2c9b6f","resource":{"resourceType":"Observation","id":"28383192-5357-43f7-8cd6-8ca50a2c9b6f","status":"final","code":{"coding":[{"system":"http://loinc.org","code":"49498-9"}]},"subject":{"reference":"Patient/9d9786cd-869b-49ed-a092-51adfa2fc519"},"effectiveDateTime":"2022-07-26T00:00:00+00:00"},"request":{"method":"POST","url":"Observation"}},{"fullUrl":"Procedure/00c84dea-d824-4bca-92ec-c6b7648fa07f","resource":{"resourceType":"Procedure","id":"00c84dea-d824-4bca-92ec-c6b7648fa07f","status":"completed","code":{"coding":[{"system":"http://snomed.info/sct","code":"647000"}]},"subject":{"reference":"Patient/9d9786cd-869b-49ed-a092-51adfa2fc519"},"performedDateTime":"2022-02-06T00:00:00+00:00"},"request":{"method":"POST","url":"Procedure"}},{"fullUrl":"Procedure/942e17e3-e590-4096-95bd-fc64533b92e1","resource":{"resourceType":"Procedure","id":"942e17e3-e590-4096-95bd-fc64533b92e1","status":"completed","code":{"coding":[{"system":"http://snomed.info/sct","code":"146005"}]},"subject":{"reference":"Patient/9d9786cd-869b-49ed-a092-51adfa2fc519"},"performedDateTime":"2022-03-05T00:00:00+00:00"},"request":{"method":"POST","url":"Procedure"}},{"fullUrl":"Procedure/ebbb69b7-602c-4c4b-ac01-84704af955ff","resource":{"resourceType":"Procedure","id":"ebbb69b7-602c-4c4b-ac01-84704af955ff","status":"completed","code":{"coding":[{"system":"http://snomed.info/sct","code":"115006"}]},"subject":{"reference":"Patient/9d9786cd-869b-49ed-a092-51adfa2fc519"},"performedDateTime":"2022-09-06T00:00:00+00:00"},"request":{"method":"POST","url":"Procedure"}},{"fullUrl":"MedicationStatement/03396512-6310-46d5-ae41-007b348ffc12","resource":{"resourceType":"MedicationStatement","id":"03396512-6310-46d5-ae41-007b348ffc12","status":"completed","medicationCodeableConcept":{"coding":[{"system":"http://www.nlm.nih.gov/research/umls/rxnorm","code":"8698"}]},"subject":{"reference":"Patient/9d9786cd-869b-49ed-a092-51adfa2fc519"},"effectiveDateTime":"2022-12-26T00:00:00+00:00","dosage":[{"doseAndRate":[{"doseQuantity":{"value":2,"unit":"TAB","system":"http://terminology.hl7.org/CodeSystem/v3-orderableDrugForm","code":"TAB"}}]}]},"request":{"method":"POST","url":"MedicationStatement"}},{"fullUrl":"MedicationStatement/b880cc69-b142-48f9-a58b-4c47c435846c","resource":{"resourceType":"MedicationStatement","id":"b880cc69-b142-48f9-a58b-4c47c435846c","status":"completed","medicationCodeableConcept":{"coding":[{"system":"http://www.nlm.nih.gov/research/umls/rxnorm","code":"7984"}]},"subject":{"reference":"Patient/9d9786cd-869b-49ed-a092-51adfa2fc519"},"effectiveDateTime":"2022-04-30T00:00:00+00:00","dosage":[{"doseAndRate":[{"doseQuantity":{"value":1,"unit":"TAB","system":"http://terminology.hl7.org/CodeSystem/v3-orderableDrugForm","code":"TAB"}}]}]},"request":{"method":"POST","url":"MedicationStatement"}},{"fullUrl":"MedicationStatement/460893a3-6070-4086-b6a1-4da3ee7a3556","resource":{"resourceType":"MedicationStatement","id":"460893a3-6070-4086-b6a1-4da3ee7a3556","status":"completed","medicationCodeableConcept":{"coding":[{"system":"http://www.nlm.nih.gov/research/umls/rxnorm","code":"2193"}]},"subject":{"reference":"Patient/9d9786cd-869b-49ed-a092-51adfa2fc519"},"effectiveDateTime":"2022-12-26T00:00:00+00:00","dosage":[{"doseAndRate":[{"doseQuantity":{"value":2,"unit":"TAB","system":"http://terminology.hl7.org/CodeSystem/v3-orderableDrugForm","code":"TAB"}}]}]},"request":{"method":"POST","url":"MedicationStatement"}},{"fullUrl":"MedicationStatement/1d176470-f1ed-41f8-9910-591f7f3a6c85","resource":{"resourceType":"MedicationStatement","id":"1d176470-f1ed-41f8-9910-591f7f3a6c85","status":"completed","medicationCodeableConcept":{"coding":[{"system":"http://www.nlm.nih.gov/research/umls/rxnorm","code":"18631"}]},"subject":{"reference":"Patient/9d9786cd-869b-49ed-a092-51adfa2fc519"},"effectiveDateTime":"2022-10-20T00:00:00+00:00","dosage":[{"doseAndRate":[{"doseQuantity":{"value":5,"unit":"TAB","system":"http://terminology.hl7.org/CodeSystem/v3-orderableDrugForm","code":"TAB"}}]}]},"request":{"method":"POST","url":"MedicationStatement"}},{"fullUrl":"MedicationStatement/c8cb6d09-f417-465d-9fc8-68d0007702a0","resource":{"resourceType":"MedicationStatement","id":"c8cb6d09-f417-465d-9fc8-68d0007702a0","status":"completed","medicationCodeableConcept":{"coding":[{"system":"http://www.nlm.nih.gov/research/umls/rxnorm","code":"18631"}]},"subject":{"reference":"Patient/9d9786cd-869b-49ed-a092-51adfa2fc519"},"effectiveDateTime":"2022-03-06T00:00:00+00:00","dosage":[{"doseAndRate":[{"doseQuantity":{"value":5.6,"unit":"TAB","system":"http://terminology.hl7.org/CodeSystem/v3-orderableDrugForm","code":"TAB"}}]}]},"request":{"method":"POST","url":"MedicationStatement"}},{"fullUrl":"MedicationStatement/b33aa828-29a6-48b6-860c-62a24daee4be","resource":{"resourceType":"MedicationStatement","id":"b33aa828-29a6-48b6-860c-62a24daee4be","status":"completed","medicationCodeableConcept":{"coding":[{"system":"http://www.nlm.nih.gov/research/umls/rxnorm","code":"7980"}]},"subject":{"reference":"Patient/9d9786cd-869b-49ed-a092-51adfa2fc519"},"effectiveDateTime":"2022-05-20T00:00:00+00:00","dosage":[{"doseAndRate":[{"doseQuantity":{"value":5.4,"unit":"TAB","system":"http://terminology.hl7.org/CodeSystem/v3-orderableDrugForm","code":"TAB"}}]}]},"request":{"method":"POST","url":"MedicationStatement"}},{"fullUrl":"MedicationStatement/722ee7ae-6726-49c3-b159-b020ccf5e2f7","resource":{"resourceType":"MedicationStatement","id":"722ee7ae-6726-49c3-b159-b020ccf5e2f7","status":"completed","medicationCodeableConcept":{"coding":[{"system":"http://www.nlm.nih.gov/research/umls/rxnorm","code":"3640"}]},"subject":{"reference":"Patient/9d9786cd-869b-49ed-a092-51adfa2fc519"},"effectiveDateTime":"2022-02-13T00:00:00+00:00","dosage":[{"doseAndRate":[{"doseQuantity":{"value":4.2,"unit":"TAB","system":"http://terminology.hl7.org/CodeSystem/v3-orderableDrugForm","code":"TAB"}}]}]},"request":{"method":"POST","url":"MedicationStatement"}},{"fullUrl":"MedicationStatement/1dfb39f5-f721-491e-beb4-bb9f520e85d2","resource":{"resourceType":"MedicationStatement","id":"1dfb39f5-f721-491e-beb4-bb9f520e85d2","status":"completed","medicationCodeableConcept":{"coding":[{"system":"http://www.nlm.nih.gov/research/umls/rxnorm","code":"18631"}]},"subject":{"reference":"Patient/9d9786cd-869b-49ed-a092-51adfa2fc519"},"effectiveDateTime":"2022-12-17T00:00:00+00:00","dosage":[{"doseAndRate":[{"doseQuantity":{"value":5.9,"unit":"TAB","system":"http://terminology.hl7.org/CodeSystem/v3-orderableDrugForm","code":"TAB"}}]}]},"request":{"method":"POST","url":"MedicationStatement"}},{"fullUrl":"Encounter/2a10e012-e707-484f-8a98-e322ddd285bf","resource":{"resourceType":"Encounter","id":"2a10e012-e707-484f-8a98-e322ddd285bf","status":"finished","class":{"system":"http://terminology.hl7.org/CodeSystem/v3-ActCode","code":"IMP","display":"inpatient encounter"},"type":[{"coding":[{"system":"http://terminology.hl7.org/CodeSystem/encounter-type","code":"BD/BM-clin"}]}],"subject":{"reference":"Patient/9d9786cd-869b-49ed-a092-51adfa2fc519"},"period":{"start":"2022-12-29T00:00:00+00:00","end":"2022-12-29T00:00:00+00:00"}},"request":{"method":"POST","url":"Encounter"}},{"fullUrl":"Encounter/69f1e912-cad7-4102-b2fc-dd85088ddbfb","resource":{"resourceType":"Encounter","id":"69f1e912-cad7-4102-b2fc-dd85088ddbfb","status":"finished","class":{"system":"http://terminology.hl7.org/CodeSystem/v3-ActCode","code":"IMP","display":"inpatient encounter"},"type":[{"coding":[{"system":"http://terminology.hl7.org/CodeSystem/encounter-type","code":"OKI"}]}],"subject":{"reference":"Patient/9d9786cd-869b-49ed-a092-51adfa2fc519"},"period":{"start":"2022-02-08T00:00:00+00:00","end":"2022-02-15T00:00:00+00:00"}},"request":{"method":"POST","url":"Encounter"}},{"fullUrl":"Encounter/e5144a34-86a7-4f4d-9556-3987e9f8addb","resource":{"resourceType":"Encounter","id":"e5144a34-86a7-4f4d-9556-3987e9f8addb","status":"finished","class":{"system":"http://terminology.hl7.org/CodeSystem/v3-ActCode","code":"ACUTE","display":"inpatient acute"},"type":[{"coding":[{"system":"http://terminology.hl7.org/CodeSystem/encounter-type","code":"BD/BM-clin"}]}],"subject":{"reference":"Patient/9d9786cd-869b-49ed-a092-51adfa2fc519"},"period":{"start":"2022-06-12T00:00:00+00:00","end":"2022-06-20T00:00:00+00:00"}},"request":{"method":"POST","url":"Encounter"}},{"fullUrl":"Encounter/f0938c94-e7f9-419d-84db-936515655d48","resource":{"resourceType":"Encounter","id":"f0938c94-e7f9-419d-84db-936515655d48","status":"finished","class":{"system":"http://terminology.hl7.org/CodeSystem/v3-ActCode","code":"SS","display":"short-stay"},"type":[{"coding":[{"system":"http://terminology.hl7.org/CodeSystem/encounter-type","code":"OKI"}]}],"subject":{"reference":"Patient/9d9786cd-869b-49ed-a092-51adfa2fc519"},"period":{"start":"2022-03-22T00:00:00+00:00","end":"2022-03-28T00:00:00+00:00"}},"request":{"method":"POST","url":"Encounter"}},{"fullUrl":"Location/de3356cf-bb90-4ce9-8148-e531fd91e96a","resource":{"resourceType":"Location","id":"de3356cf-bb90-4ce9-8148-e531fd91e96a","status":"active","name":"Parsons, Johnson and Thompson","telecom":[{"system":"phone","value":"738-439-2164x040","use":"work"}],"address":{"use":"work","line":["5857 Alan Square Apt. 643"],"city":"Thomasland","state":"FL","postalCode":"80648"}},"request":{"method":"POST","url":"Location"}},{"fullUrl":"Observation/84ea2be7-0344-4c54-a492-87c5b6dd089a","resource":{"resourceType":"Observation","id":"84ea2be7-0344-4c54-a492-87c5b6dd089a","status":"final","code":{"coding":[{"system":"http://loinc.org","code":"81956-5"}]},"subject":{"reference":"Patient/9d9786cd-869b-49ed-a092-51adfa2fc519"},"effectiveDateTime":"2022-01-24T00:00:00+00:00","valueDateTime":"2021-11-05T00:00:00+00:00"},"request":{"method":"POST","url":"Observation"}}]}