{"resourceType":"Bundle","id":"b2205f1e-c726-47ad-94f6-d393d359be14","type":"transaction","entry":[{"fullUrl":"Patient/64cade4f-9e83-4a0f-91cc-930cca77c485","resource":{"resourceType":"Patient","id":"64cade4f-9e83-4a0f-91cc-930cca77c485","meta":{"profile":["http://hl7.org/fhir/us/core/StructureDefinition/us-core-patient"]},"extension":[{"extension":[{"url":"ombCategory","valueCoding":{"system":"urn:oid:2.16.840.1.113883.6.238","code":"2076-8","display":"Native Hawaiian or Other Pacific Islander"}},{"url":"text","valueString":"Native Hawaiian or Other Pacific Islander"}],"url":"http://hl7.org/fhir/us/core/StructureDefinition/us-core-race"},{"extension":[{"url":"ombCategory","valueCoding":{"system":"urn:oid:2.16.840.1.113883.6.238","code":"2135-2","display":"Hispanic or Latino"}},{"url":"text","valueString":"Hispanic or Latino"}],"url":"http://hl7.org/fhir/us/core/StructureDefinition/us-core-ethnicity"}],"identifier":[{"type":{"coding":[{"system":"http://terminology.hl7.org/CodeSystem/v2-0203","code":"MR"}]},"system":"urn:fhirgen:mrn","value":"783-84-2481"}],"name":[{"family":"Ferrell","given":["Joshua"]}],"telecom":[{"system":"phone","value":"328-866-5642x1429","use":"home"}],"gender":"male","birthDate":"1975-03-19","address":[{"line":["6123 Kimberly Brook"],"city":"New Tyler","state":"RI","postalCode":"87364"}]},"request":{"method":"POST","url":"Patient"}},{"fullUrl":"Observation/91610a93-ecb3-4e08-aa92-e7070d522ef8","resource":{"resourceType":"Observation","id":"91610a93-ecb3-4e08-aa92-e7070d522ef8","meta":{"profile":["http://hl7.org/fhir/us/core/StructureDefinition/us-core-observation-lab"]},"status":"final","category":[{"coding":[{"system":"http://terminology.hl7.org/CodeSystem/observation-category","code":"laboratory","display":"Laboratory"}]}],"code":{"coding":[{"system":"http://loinc.org","code":"51475-2"}]},"subject":{"reference":"Patient/64cade4f-9e83-4a0f-91cc-930cca77c485"},"effectiveDateTime":"2022-02-08T00:00:00+00:00","valueRatio":{"numerator":{"value":1},"denominator":{"value":4}}},"request":{"method":"POST","url":"Observation"}},{"fullUrl":"Observation/bd079c13-4215-405b-ac2b-8af3680c3e4b","resource":{"resourceType":"Observation","id":"bd079c13-4215-405b-ac2b-8af3680c3e4b","meta":{"profile":["http://hl7.org/fhir/us/core/StructureDefinition/us-core-observation-lab"]},"status":"final","category":[{"coding":[{"system":"http://terminology.hl7.org/CodeSystem/observation-category","code":"laboratory","display":"Laboratory"}]}],"code":{"coding":[{"system":"http://loinc.org","code":"31147-2"}]},"subject":{"reference":"Patient/64cade4f-9e83-4a0f-91cc-930cca77c485"},"effectiveDateTime":"2022-07-24T00:00:00+00:00","valueRatio":{"numerator":{"value":1},"denominator":{"value":32}}},"request":{"method":"POST","url":"Observation"}},{"fullUrl":"Condition/e7c6bac9-0b79-4933-9fae-60707d430624","resource":{"resourceType":"Condition","id":"e7c6bac9-0b79-4933-9fae-60707d430624","meta":{"profile":["http://hl7.org/fhir/us/core/StructureDefinition/us-core-condition"]},"clinicalStatus":{"coding":[{"system":"http://terminology.hl7.org/CodeSystem/condition-clinical","code":"active","display":"Active"}]},"category":[{"coding":[{"system":"http://terminology.hl7.org/CodeSystem/condition-category","code":"problem-list-item"}]}],"code":{"coding":[{"system":"http://snomed.info/sct","code":"91554004"}]},"subject":{"reference":"Patient/64cade4f-9e83-4a0f-91cc-930cca77c485"},"onsetDateTime":"2022-03-15T00:00:00+00:00"},"request":{"method":"POST","url":"Condition"}},{"fullUrl":"Condition/7009b000-c61a-4097-82fc-372f3c429210","resource":{"resourceType":"Condition","id":"7009b000-c61a-4097-82fc-372f3c429210","meta":{"profile":["http://hl7.org/fhir/us/core/StructureDefinition/us-core-condition"]},"clinicalStatus":{"coding":[{"system":"http://terminology.hl7.org/CodeSystem/condition-clinical","code":"active","display":"Active"}]},"category":[{"coding":[{"system":"http://terminology.hl7.org/CodeSystem/condition-category","code":"problem-list-item"}]}],"code":{"coding":[{"system":"http://snomed.info/sct","code":"418290006"}]},"subject":{"reference":"Patient/64cade4f-9e83-4a0f-91cc-930cca77c485"},"onsetDateTime":"2022-03-30T00:00:00+00:00"},"request":{"method":"POST","url":"Condition"}},{"fullUrl":"Condition/5e796f74-a68c-4e54-84bd-d5e59f77c274","resource":{"resourceType":"Condition","id":"5e796f74-a68c-4e54-84bd-d5e59f77c274","meta":{"profile":["http://hl7.org/fhir/us/core/StructureDefinition/us-core-condition"]},"clinicalStatus":{"coding":[{"system":"http://terminology.hl7.org/CodeSystem/condition-clinical","code":"active","display":"Active"}]},"category":[{"coding":[{"system":"http://terminology.hl7.org/CodeSystem/condition-category","code":"problem-list-item"}]}],"code":{"coding":[{"system":"http://snomed.info/sct","code":"709977002"}]},"subject":{"reference":"Patient/64cade4f-9e83-4a0f-91cc-930cca77c485"},"onsetDateTime":"2022-08-17T00:00:00+00:00"},"request":{"method":"POST","url":"Condition"}},{"fullUrl":"Condition/83ff2c19-e0f1-407f-92f4-e15af1c152bd","resource":{"resourceType":"Condition","id":"83ff2c19-e0f1-407f-92f4-e15af1c152bd","meta":{"profile":["http://hl7.org/fhir/us/core/StructureDefinition/us-core-condition"]},"clinicalStatus":{"coding":[{"system":"http://terminology.hl7.org/CodeSystem/condition-clinical","code":"active","display":"Active"}]},"category":[{"coding":[{"system":"http://terminology.hl7.org/CodeSystem/condition-category","code":"problem-list-item"}]}],"code":{"coding":[{"system":"http://snomed.info/sct","code":"709977002"}]},"subject":{"reference":"Patient/64cade4f-9e83-4a0f-91cc-930cca77c485"},"onsetDateTime":"2022-02-19T00:00:00+00:00"},"request":{"method":"POST","url":"Condition"}},{"fullUrl":"Condition/1b9de279-8fbc-4f23-bf4f-a4fcbad8733d","resource":{"resourceType":"Condition","id":"1b9de279-8fbc-4f23-bf4f-a4fcbad8733d","meta":{"profile":["http://hl7.org/fhir/us/core/StructureDefinition/us-core-condition"]},"clinicalStatus":{"coding":[{"system":"http://terminology.hl7.org/CodeSystem/condition-clinical","code":"active","display":"Active"}]},"category":[{"coding":[{"system":"http://terminology.hl7.org/CodeSystem/condition-category","code":"problem-list-item"}]}],"code":{"coding":[{"system":"http://snomed.info/sct","code":"91554004"}]},"subject":{"reference":"Patient/64cade4f-9e83-4a0f-91cc-930cca77c485"},"onsetDateTime":"2022-03-11T00:00:00+00:00"},"request":{"method":"POST","url":"Condition"}},{"fullUrl":"Observation/4dbc2c49-1076-4a17-841d-5e8bf1a1b5cb","resource":{"resourceType":"Observation","id":"4dbc2c49-1076-4a17-841d-5e8bf1a1b5cb","meta":{"profile":["http://hl7.org/fhir/us/core/StructureDefinition/us-core-observation-lab"]},"status":"final","category":[{"coding":[{"system":"http://terminology.hl7.org/CodeSystem/observation-category","code":"laboratory","display":"Laboratory"}]}],"code":{"coding":[{"system":"http://loinc.org","code":"6690-2"}]},"subject":{"reference":"Patient/64cade4f-9e83-4a0f-91cc-930cca77c485"},"effectiveDateTime":"2022-03-15T00:00:00+00:00","valueQuantity":{"value":10.9}},"request":{"method":"POST","url":"Observation"}},{"fullUrl":"Observation/c1f3e7c7-be2a-4b07-943a-8bebcf5f48af","resource":{"resourceType":"Observation","id":"c1f3e7c7-be2a-4b07-943a-8bebcf5f48af","meta":{"profile":["http://hl7.org/fhir/us/core/StructureDefinition/us-core-observation-lab"]},"status":"final","category":[{"coding":[{"system":"http://terminology.hl7.org/CodeSystem/observation-category","code":"laboratory","display":"Laboratory"}]}],"code":{"coding":[{"system":"http://loinc.org","code":"26464-8"}]},"subject":{"reference":"Patient/64cade4f-9e83-4a0f-91cc-930cca77c485"},"effectiveDateTime":"2022-11-05T00:00:00+00:00","valueQuantity":{"value":4.9}},"request":{"method":"POST","url":"Observation"}},{"fullUrl":"Observation/b4117acd-12a6-42ef-9de4-7224b087c669","resource":{"resourceType":"Observation","id":"b4117acd-12a6-42ef-9de4-7224b087c669","meta":{"profile":["http://hl7.org/fhir/us/core/StructureDefinition/us-core-observation-lab"]},"status":"final","category":[{"coding":[{"system":"http://terminology.hl7.org/CodeSystem/observation-category","code":"laboratory","display":"Laboratory"}]}],"code":{"coding":[{"system":"http://loinc.org","code":"26464-8"}]},"subject":{"reference":"Patient/64cade4f-9e83-4a0f-91cc-930cca77c485"},"effectiveDateTime":"2022-10-04T00:00:00+00:00","valueQuantity":{"value":4.6}},"request":{"method":"POST","url":"Observation"}},{"fullUrl":"Observation/eb145b15-35f3-4cbd-9599-ef8b52d63832","resource":{"resourceType":"Observation","id":"eb145b15-35f3-4cbd-9599-ef8b52d63832","meta":{"profile":["http://hl7.org/fhir/us/core/StructureDefinition/us-core-bmi"]},"status":"final","category":[{"coding":[{"system":"http://terminology.hl7.org/CodeSystem/observation-category","code":"vital-signs","display":"Vital Signs"}]}],"code":{"coding":[{"system":"http://loinc.org","code":"39156-5"}]},"subject":{"reference":"Patient/64cade4f-9e83-4a0f-91cc-930cca77c485"},"effectiveDateTime":"2022-01-15T00:00:00+00:00","valueQuantity":{"value":27.49,"unit":"kg/m2","system":"http://unitsofmeasure.org","code":"kg/m2"}},"request":{"method":"POST","url":"Observation"}},{"fullUrl":"Observation/5e4ef48a-8814-4a6a-b154-5dc5eb884753","resource":{"resourceType":"Observation","id":"5e4ef48a-8814-4a6a-b154-5dc5eb884753","meta":{"profile":["http://hl7.org/fhir/us/core/StructureDefinition/us-core-head-circumference"]},"status":"final","category":[{"coding":[{"system":"http://terminology.hl7.org/CodeSystem/observation-category","code":"vital-signs","display":"Vital Signs"}]}],"code":{"coding":[{"system":"http://loinc.org","code":"9843-4"}]},"subject":{"reference":"Patient/64cade4f-9e83-4a0f-91cc-930cca77c485"},"effectiveDateTime":"2022-05-21T00:00:00+00:00","valueQuantity":{"value":4.9,"unit":"Inch","system":"http://unitsofmeasure.org","code":"[in_i]"}},"request":{"method":"POST","url":"Observation"}},{"fullUrl":"Observation/0c6fa8b5-25b7-490f-9769-44b78272d23c","resource":{"resourceType":"Observation","id":"0c6fa8b5-25b7-490f-9769-44b78272d23c","meta":{"profile":["http://hl7.org/fhir/us/core/StructureDefinition/us-core-body-height"]},"status":"final","category":[{"coding":[{"system":"http://terminology.hl7.org/CodeSystem/observation-category","code":"vital-signs","display":"Vital Signs"}]}],"code":{"coding":[{"system":"http://loinc.org","code":"8302-2"}]},"subject":{"reference":"Patient/64cade4f-9e83-4a0f-91cc-930cca77c485"},"effectiveDateTime":"2022-12-08T00:00:00+00:00","valueQuantity":{"value":75.1,"unit":"Inch","system":"http://unitsofmeasure.org","code":"[in_i]"}},"request":{"method":"POST","url":"Observation"}},{"fullUrl":"Observation/a233c4fa-9a37-4f11-97f2-1942780f36bc","resource":{"resourceType":"Observation","id":"a233c4fa-9a37-4f11-97f2-1942780f36bc","meta":{"profile":["http://hl7.org/fhir/us/core/StructureDefinition/us-core-body-weight"]},"status":"final","category":[{"coding":[{"system":"http://terminology.hl7.org/CodeSystem/observation-category","code":"vital-signs","display":"Vital Signs"}]}],"code":{"coding":[{"system":"http://loinc.org","code":"29463-7"}]},"subject":{"reference":"Patient/64cade4f-9e83-4a0f-91cc-930cca77c485"},"effectiveDateTime":"2022-12-13T00:00:00+00:00","valueQuantity":{"value":73.88,"unit":"kilogram","system":"http://unitsofmeasure.org","code":"kg"}},"request":{"method":"POST","url":"Observation"}},{"fullUrl":"Observation/3661ecec-6a78-4a22-92d2-dc4dc1bb626e","resource":{"resourceType":"Observation","id":"3661ecec-6a78-4a22-92d2-dc4dc1bb626e","meta":{"profile":["http://hl7.org/fhir/us/core/StructureDefinition/us-core-body-temperature"]},"status":"final","category":[{"coding":[{"system":"http://terminology.hl7.org/CodeSystem/observation-category","code":"vital-signs","display":"Vital Signs"}]}],"code":{"coding":[{"system":"http://loinc.org","code":"8310-5"}]},"subject":{"reference":"Patient/64cade4f-9e83-4a0f-91cc-930cca77c485"},"effectiveDateTime":"2022-12-15T00:00:00+00:00","valueQuantity":{"value":137.17,"unit":"Degrees Fahrenheit","system":"http://unitsofmeasure.org","code":"[degF]"}},"request":{"method":"POST","url":"Observation"}},{"fullUrl":"Observation/7514ac00-1b9f-4cef-8045-c2be5aa84259","resource":{"resourceType":"Observation","id":"7514ac00-1b9f-4cef-8045-c2be5aa84259","meta":{"profile":["http://hl7.org/fhir/us/core/StructureDefinition/us-core-body-temperature"]},"status":"final","category":[{"coding":[{"system":"http://terminology.hl7.org/CodeSystem/observation-category","code":"vital-signs","display":"Vital Signs"}]}],"code":{"coding":[{"system":"http://loinc.org","code":"8310-5"}]},"subject":{"reference":"Patient/64cade4f-9e83-4a0f-91cc-930cca77c485"},"effectiveDateTime":"2022-09-15T00:00:00+00:00","valueQuantity":{"value":64.41,"unit":"Degrees Fahrenheit","system":"http://unitsofmeasure.org","code":"[degF]"}},"request":{"method":"POST","url":"Observation"}},{"fullUrl":"Observation/8a234b69-7cb6-46d4-86c4-33f335e371c3","resource":{"resourceType":"Observation","id":"8a234b69-7cb6-46d4-86c4-33f335e371c3","meta":{"profile":["http://hl7.org/fhir/us/core/StructureDefinition/us-core-heart-rate"]},"status":"final","category":[{"coding":[{"system":"http://terminology.hl7.org/CodeSystem/observation-category","code":"vital-signs","display":"Vital Signs"}]}],"code":{"coding":[{"system":"http://loinc.org","code":"8867-4"}]},"subject":{"reference":"Patient/64cade4f-9e83-4a0f-91cc-930cca77c485"},"effectiveDateTime":"2022-03-24T00:00:00+00:00","valueQuantity":{"value":95.1,"unit":"Per Minute","system":"http://unitsofmeasure.org","code":"/min"}},"request":{"method":"POST","url":"Observation"}},{"fullUrl":"Patient/c57b2961-3d2f-4c59-9831-acd332fd1295","resource":{"resourceType":"Patient","id":"c57b2961-3d2f-4c59-9831-acd332fd1295","meta":{"profile":["http://hl7.org/fhir/us/core/StructureDefinition/us-core-patient"]},"extension":[{"extension":[{"url":"ombCategory","valueCoding":{"system":"http://terminology.hl7.org/CodeSystem/v3-NullFlavor","code":"UNK","display":"unknown"}},{"url":"text","valueString":"unknown"}],"url":"http://hl7.org/fhir/us/core/StructureDefinition/us-core-race"},{"extension":[{"url":"ombCategory","valueCoding":{"system":"urn:oid:2.16.840.1.113883.6.238","code":"2186-5","display":"Non Hispanic or Latino"}},{"url":"text","valueString":"Non Hispanic or Latino"}],"url":"http://hl7.org/fhir/us/core/StructureDefinition/us-core-ethnicity"}],"identifier":[{"type":{"coding":[{"system":"http://terminology.hl7.org/CodeSystem/v2-0203","code":"MR"}]},"system":"urn:fhirgen:mrn","value":"322-97-1442"}],"name":[{"family":"Davis","given":["Ryan"]}],"telecom":[{"system":"phone","value":"(089)200-8397","use":"home"}],"gender":"male","birthDate":"1955-07-27","address":[{"line":["704 Justin Shoals"],"city":"New Monicabury","state":"LA","postalCode":"46140"}]},"request":{"method":"POST","url":"Patient"}},{"fullUrl":"Observation/95542ad4-73cb-4ff2-9b7d-6d6cff5b6cbf","resource":{"resourceType":"Observation","id":"95542ad4-73cb-4ff2-9b7d-6d6cff5b6cbf","meta":{"profile":["http://hl7.org/fhir/us/core/StructureDefinition/us-core-observation-lab"]},"status":"final","category":[{"coding":[{"system":"http://terminology.hl7.org/CodeSystem/observation-category","code":"laboratory","display":"Laboratory"}]}],"code":{"coding":[{"system":"http://loinc.org","code":"51475-2"}]},"subject":{"reference":"Patient/c57b2961-3d2f-4c59-9831-acd332fd1295"},"effectiveDateTime":"2022-09-29T00:00:00+00:00","valueRatio":{"numerator":{"value":1},"denominator":{"value":64}}},"request":{"method":"POST","url":"Observation"}},{"fullUrl":"Observation/7e8b659f-9e77-4e3c-b2ff-a62442be8243","resource":{"resourceType":"Observation","id":"7e8b659f-9e77-4e3c-b2ff-a62442be8243","meta":{"profile":["http://hl7.org/fhir/us/core/StructureDefinition/us-core-observation-lab"]},"status":"final","category":[{"coding":[{"system":"http://terminology.hl7.org/CodeSystem/observation-category","code":"laboratory","display":"Laboratory"}]}],"code":{"coding":[{"system":"http://loinc.org","code":"51475-2"}]},"subject":{"reference":"Patient/c57b2961-3d2f-4c59-9831-acd332fd1295"},"effectiveDateTime":"2022-06-27T00:00:00+00:00","valueRatio":{"numerator":{"value":1},"denominator":{"value":4}}},"request":{"method":"POST","url":"Observation"}},{"fullUrl":"Condition/265ad9f3-ba5b-42c6-98ac-bf89a9dbd550","resource":{"resourceType":"Condition","id":"265ad9f3-ba5b-42c6-98ac-bf89a9dbd550","meta":{"profile":["http://hl7.org/fhir/us/core/StructureDefinition/us-core-condition"]},"clinicalStatus":{"coding":[{"system":"http://terminology.hl7.org/CodeSystem/condition-clinical","code":"active","display":"Active"}]},"category":[{"coding":[{"system":"http://terminology.hl7.org/CodeSystem/condition-category","code":"problem-list-item"}]}],"code":{"coding":[{"system":"http://snomed.info/sct","code":"736686006"}]},"subject":{"reference":"Patient/c57b2961-3d2f-4c59-9831-acd332fd1295"},"onsetDateTime":"2022-09-10T00:00:00+00:00"},"request":{"method":"POST","url":"Condition"}},{"fullUrl":"Condition/f19852c0-2238-4e70-b840-e3b395816d5e","resource":{"resourceType":"Condition","id":"f19852c0-2238-4e70-b840-e3b395816d5e","meta":{"profile":["http://hl7.org/fhir/us/core/StructureDefinition/us-core-condition"]},"clinicalStatus":{"coding":[{"system":"http://terminology.hl7.org/CodeSystem/condition-clinical","code":"active","display":"Active"}]},"category":[{"coding":[{"system":"http://terminology.hl7.org/CodeSystem/condition-category","code":"problem-list-item"}]}],"code":{"coding":[{"system":"http://snomed.info/sct","code":"91554004"}]},"subject":{"reference":"Patient/c57b2961-3d2f-4c59-9831-acd332fd1295"},"onsetDateTime":"2022-10-25T00:00:00+00:00"},"request":{"method":"POST","url":"Condition"}},{"fullUrl":"Condition/08d71038-6361-4a7e-98ae-d1d71558c857","resource":{"resourceType":"Condition","id":"08d71038-6361-4a7e-98ae-d1d71558c857","meta":{"profile":["http://hl7.org/fhir/us/core/StructureDefinition/us-core-condition"]},"clinicalStatus":{"coding":[{"system":"http://terminology.hl7.org/CodeSystem/condition-clinical","code":"active","display":"Active"}]},"category":[{"coding":[{"system":"http://terminology.hl7.org/CodeSystem/condition-category","code":"problem-list-item"}]}],"code":{"coding":[{"system":"http://snomed.info/sct","code":"91554004"}]},"subject":{"reference":"Patient/c57b2961-3d2f-4c59-9831-acd332fd1295"},"onsetDateTime":"2022-03-17T00:00:00+00:00"},"request":{"method":"POST","url":"Condition"}},{"fullUrl":"Condition/08516021-cc97-43f2-b8de-056cf8f5c9ad","resource":{"resourceType":"Condition","id":"08516021-cc97-43f2-b8de-056cf8f5c9ad","meta":{"profile":["http://hl7.org/fhir/us/core/StructureDefinition/us-core-condition"]},"clinicalStatus":{"coding":[{"system":"http://terminology.hl7.org/CodeSystem/condition-clinical","code":"active","display":"Active"}]},"category":[{"coding":[{"system":"http://terminology.hl7.org/CodeSystem/condition-category","code":"problem-list-item"}]}],"code":{"coding":[{"system":"http://snomed.info/sct","code":"44882003"}]},"subject":{"reference":"Patient/c57b2961-3d2f-4c59-9831-acd332fd1295"},"onsetDateTime":"2022-07-06T00:00:00+00:00"},"request":{"method":"POST","url":"Condition"}},{"fullUrl":"Observation/e3b310c8-aaf3-459c-b43b-4493a58f079a","resource":{"resourceType":"Observation","id":"e3b310c8-aaf3-459c-b43b-4493a58f079a","meta":{"profile":["http://hl7.org/fhir/us/core/StructureDefinition/us-core-observation-lab"]},"status":"final","category":[{"coding":[{"system":"http://terminology.hl7.org/CodeSystem/observation-category","code":"laboratory","display":"Laboratory"}]}],"code":{"coding":[{"system":"http://loinc.org","code":"6690-2"}]},"subject":{"reference":"Patient/c57b2961-3d2f-4c59-9831-acd332fd1295"},"effectiveDateTime":"2022-11-12T00:00:00+00:00","valueQuantity":{"value":6.2}},"request":{"method":"POST","url":"Observation"}},{"fullUrl":"Observation/e46015ad-5be9-4663-a464-b55d713a484d","resource":{"resourceType":"Observation","id":"e46015ad-5be9-4663-a464-b55d713a484d","meta":{"profile":["http://hl7.org/fhir/us/core/StructureDefinition/us-core-observation-lab"]},"status":"final","category":[{"coding":[{"system":"http://terminology.hl7.org/CodeSystem/observation-category","code":"laboratory","display":"Laboratory"}]}],"code":{"coding":[{"system":"http://loinc.org","code":"49498-9"}]},"subject":{"reference":"Patient/c57b2961-3d2f-4c59-9831-acd332fd1295"},"effectiveDateTime":"2022-07-30T00:00:00+00:00","valueQuantity":{"value":6.2}},"request":{"method":"POST","url":"Observation"}},{"fullUrl":"Observation/743b72d7-9fe2-4885-88f3-15102ecef415","resource":{"resourceType":"Observation","id":"743b72d7-9fe2-4885-88f3-15102ecef415","meta":{"profile":["http://hl7.org/fhir/us/core/StructureDefinition/us-core-observation-lab"]},"status":"final","category":[{"coding":[{"system":"http://terminology.hl7.org/CodeSystem/observation-category","code":"laboratory","display":"Laboratory"}]}],"code":{"coding":[{"system":"http://loinc.org","code":"49498-9"}]},"subject":{"reference":"Patient/c57b2961-3d2f-4c59-9831-acd332fd1295"},"effectiveDateTime":"2022-12-12T00:00:00+00:00","valueQuantity":{"value":6.3}},"request":{"method":"POST","url":"Observation"}},{"fullUrl":"Observation/1cae65a7-e9fb-41a6-92ba-dc294474c2db","resource":{"resourceType":"Observation","id":"1cae65a7-e9fb-41a6-92ba-dc294474c2db","meta":{"profile":["http://hl7.org/fhir/us/core/StructureDefinition/us-core-bmi"]},"status":"final","category":[{"coding":[{"system":"http://terminology.hl7.org/CodeSystem/observation-category","code":"vital-signs","display":"Vital Signs"}]}],"code":{"coding":[{"system":"http://loinc.org","code":"39156-5"}]},"subject":{"reference":"Patient/c57b2961-3d2f-4c59-9831-acd332fd1295"},"effectiveDateTime":"2022-09-25T00:00:00+00:00","valueQuantity":{"value":27.1,"unit":"kg/m2","system":"http://unitsofmeasure.org","code":"kg/m2"}},"request":{"method":"POST","url":"Observation"}},{"fullUrl":"Observation/07e1c45f-7be2-4473-abf7-f17433017c6b","resource":{"resourceType":"Observation","id":"07e1c45f-7be2-4473-abf7-f17433017c6b","meta":{"profile":["http://hl7.org/fhir/us/core/StructureDefinition/us-core-bmi"]},"status":"final","category":[{"coding":[{"system":"http://terminology.hl7.org/CodeSystem/observation-category","code":"vital-signs","display":"Vital Signs"}]}],"code":{"coding":[{"system":"http://loinc.org","code":"39156-5"}]},"subject":{"reference":"Patient/c57b2961-3d2f-4c59-9831-acd332fd1295"},"effectiveDateTime":"2022-06-03T00:00:00+00:00","valueQuantity":{"value":15.68,"unit":"kg/m2","system":"http://unitsofmeasure.org","code":"kg/m2"}},"request":{"method":"POST","url":"Observation"}},{"fullUrl":"Observation/f13f2c70-03fd-436e-ad26-fc20cbcd477a","resource":{"resourceType":"Observation","id":"f13f2c70-03fd-436e-ad26-fc20cbcd477a","meta":{"profile":["http://hl7.org/fhir/us/core/StructureDefinition/us-core-head-circumference"]},"status":"final","category":[{"coding":[{"system":"http://terminology.hl7.org/CodeSystem/observation-category","code":"vital-signs","display":"Vital Signs"}]}],"code":{"coding":[{"system":"http://loinc.org","code":"9843-4"}]},"subject":{"reference":"Patient/c57b2961-3d2f-4c59-9831-acd332fd1295"},"effectiveDateTime":"2022-08-24T00:00:00+00:00","valueQuantity":{"value":3.6,"unit":"Inch","system":"http://unitsofmeasure.org","code":"[in_i]"}},"request":{"method":"POST","url":"Observation"}},{"fullUrl":"Observation/2a464dab-5f8b-4bbf-bc38-0eb63a601497","resource":{"resourceType":"Observation","id":"2a464dab-5f8b-4bbf-bc38-0eb63a601497","meta":{"profile":["http://hl7.org/fhir/us/core/StructureDefinition/us-core-head-circumference"]},"status":"final","category":[{"coding":[{"system":"http://terminology.hl7.org/CodeSystem/observation-category","code":"vital-signs","display":"Vital Signs"}]}],"code":{"coding":[{"system":"http://loinc.org","code":"9843-4"}]},"subject":{"reference":"Patient/c57b2961-3d2f-4c59-9831-acd332fd1295"},"effectiveDateTime":"2022-05-18T00:00:00+00:00","valueQuantity":{"value":1.7,"unit":"Inch","system":"http://unitsofmeasure.org","code":"[in_i]"}},"request":{"method":"POST","url":"Observation"}},{"fullUrl":"Observation/39402bb6-52c5-40b0-bd38-64aa54b733cc","resource":{"resourceType":"Observation","id":"39402bb6-52c5-40b0-bd38-64aa54b733cc","meta":{"profile":["http://hl7.org/fhir/us/core/StructureDefinition/us-core-body-height"]},"status":"final","category":[{"coding":[{"system":"http://terminology.hl7.org/CodeSystem/observation-category","code":"vital-signs","display":"Vital Signs"}]}],"code":{"coding":[{"system":"http://loinc.org","code":"8302-2"}]},"subject":{"reference":"Patient/c57b2961-3d2f-4c59-9831-acd332fd1295"},"effectiveDateTime":"2022-05-23T00:00:00+00:00","valueQuantity":{"value":73.4,"unit":"Inch","system":"http://unitsofmeasure.org","code":"[in_i]"}},"request":{"method":"POST","url":"Observation"}},{"fullUrl":"Observation/693633dd-e2de-4e88-ba33-17c4819f186c","resource":{"resourceType":"Observation","id":"693633dd-e2de-4e88-ba33-17c4819f186c","meta":{"profile":["http://hl7.org/fhir/us/core/StructureDefinition/us-core-body-height"]},"status":"final","category":[{"coding":[{"system":"http://terminology.hl7.org/CodeSystem/observation-category","code":"vital-signs","display":"Vital Signs"}]}],"code":{"coding":[{"system":"http://loinc.org","code":"8302-2"}]},"subject":{"reference":"Patient/c57b2961-3d2f-4c59-9831-acd332fd1295"},"effectiveDateTime":"2022-07-29T00:00:00+00:00","valueQuantity":{"value":80,"unit":"Inch","system":"http://unitsofmeasure.org","code":"[in_i]"}},"request":{"method":"POST","url":"Observation"}},{"fullUrl":"Observation/9e3b7149-2f93-440f-97b2-78878666f656","resource":{"resourceType":"Observation","id":"9e3b7149-2f93-440f-97b2-78878666f656","meta":{"profile":["http://hl7.org/fhir/us/core/StructureDefinition/us-core-body-weight"]},"status":"final","category":[{"coding":[{"system":"http://terminology.hl7.org/CodeSystem/observation-category","code":"vital-signs","display":"Vital Signs"}]}],"code":{"coding":[{"system":"http://loinc.org","code":"29463-7"}]},"subject":{"reference":"Patient/c57b2961-3d2f-4c59-9831-acd332fd1295"},"effectiveDateTime":"2022-03-21T00:00:00+00:00","valueQuantity":{"value":85.78,"unit":"kilogram","system":"http://unitsofmeasure.org","code":"kg"}},"request":{"method":"POST","url":"Observation"}},{"fullUrl":"Observation/c03f6ac4-433e-46cf-9100-78f141ae04d8","resource":{"resourceType":"Observation","id":"c03f6ac4-433e-46cf-9100-78f141ae04d8","meta":{"profile":["http://hl7.org/fhir/us/core/StructureDefinition/us-core-body-weight"]},"status":"final","category":[{"coding":[{"system":"http://terminology.hl7.org/CodeSystem/observation-category","code":"vital-signs","display":"Vital Signs"}]}],"code":{"coding":[{"system":"http://loinc.org","code":"29463-7"}]},"subject":{"reference":"Patient/c57b2961-3d2f-4c59-9831-acd332fd1295"},"effectiveDateTime":"2022-02-14T00:00:00+00:00","valueQuantity":{"value":37.04,"unit":"kilogram","system":"http://unitsofmeasure.org","code":"kg"}},"request":{"method":"POST","url":"Observation"}},{"fullUrl":"Observation/1b54a366-e9f8-4e7f-9220-3dfae0a9091c","resource":{"resourceType":"Observation","id":"1b54a366-e9f8-4e7f-9220-3dfae0a9091c","meta":{"profile":["http://hl7.org/fhir/us/core/StructureDefinition/us-core-body-temperature"]},"status":"final","category":[{"coding":[{"system":"http://terminology.hl7.org/CodeSystem/observation-category","code":"vital-signs","display":"Vital Signs"}]}],"code":{"coding":[{"system":"http://loinc.org","code":"8310-5"}]},"subject":{"reference":"Patient/c57b2961-3d2f-4c59-9831-acd332fd1295"},"effectiveDateTime":"2022-07-23T00:00:00+00:00","valueQuantity":{"value":57.38,"unit":"Degrees Fahrenheit","system":"http://unitsofmeasure.org","code":"[degF]"}},"request":{"method":"POST","url":"Observation"}},{"fullUrl":"Observation/c6f82090-9c62-4cf2-aa92-77725d337652","resource":{"resourceType":"Observation","id":"c6f82090-9c62-4cf2-aa92-77725d337652","meta":{"profile":["http://hl7.org/fhir/us/core/StructureDefinition/us-core-heart-rate"]},"status":"final","category":[{"coding":[{"system":"http://terminology.hl7.org/CodeSystem/observation-category","code":"vital-signs","display":"Vital Signs"}]}],"code":{"coding":[{"system":"http://loinc.org","code":"8867-4"}]},"subject":{"reference":"Patient/c57b2961-3d2f-4c59-9831-acd332fd1295"},"effectiveDateTime":"2022-05-16T00:00:00+00:00","valueQuantity":{"value":99.4,"unit":"Per Minute","system":"http://unitsofmeasure.org","code":"/min"}},"request":{"method":"POST","url":"Observation"}},{"fullUrl":"Patient/7a18bb15-df5e-49d9-abcc-2dde428059c6","resource":{"resourceType":"Patient","id":"7a18bb15-df5e-49d9-abcc-2dde428059c6","meta":{"profile":["http://hl7.org/fhir/us/core/StructureDefinition/us-core-patient"]},"extension":[{"extension":[{"url":"ombCategory","valueCoding":{"system":"urn:oid:2.16.840.1.113883.6.238","code":"2106-3","display":"White"}},{"url":"text","valueString":"White"}],"url":"http://hl7.org/fhir/us/core/StructureDefinition/us-core-race"},{"extension":[{"url":"ombCategory","valueCoding":{"system":"urn:oid:2.16.840.1.113883.6.238","code":"2135-2","display":"Hispanic or Latino"}},{"url":"text","valueString":"Hispanic or Latino"}],"url":"http://hl7.org/fhir/us/core/StructureDefinition/us-core-ethnicity"}],"identifier":[{"type":{"coding":[{"system":"http://terminology.hl7.org/CodeSystem/v2-0203","code":"MR"}]},"system":"urn:fhirgen:mrn","value":"797-16-9829"}],"name":[{"family":"Harrison","given":["Samantha"]}],"telecom":[{"system":"phone","value":"001-261-082-2705x432","use":"home"}],"gender":"female","birthDate":"1970-01-11","address":[{"line":["1268 Lauren Wall Apt. 543"],"city":"Ashleyborough","state":"WY","postalCode":"80885"}]},"request":{"method":"POST","url":"Patient"}},{"fullUrl":"Observation/9ddb54d5-1dd2-4b6a-9ce2-2c6e787e2e43","resource":{"resourceType":"Observation","id":"9ddb54d5-1dd2-4b6a-9ce2-2c6e787e2e43","meta":{"profile":["http://hl7.org/fhir/us/core/StructureDefinition/us-core-observation-lab"]},"status":"final","category":[{"coding":[{"system":"http://terminology.hl7.org/CodeSystem/observation-category","code":"laboratory","display":"Laboratory"}]}],"code":{"coding":[{"system":"http://loinc.org","code":"5394-2"}]},"subject":{"reference":"Patient/7a18bb15-df5e-49d9-abcc-2dde428059c6"},"effectiveDateTime":"2022-03-02T00:00:00+00:00","valueRatio":{"numerator":{"value":1},"denominator":{"value":4}}},"request":{"method":"POST","url":"Observation"}},{"fullUrl":"Observation/7d0498b3-5224-4165-85c5-c7c7dd16fa36","resource":{"resourceType":"Observation","id":"7d0498b3-5224-4165-85c5-c7c7dd16fa36","meta":{"profile":["http://hl7.org/fhir/us/core/StructureDefinition/us-core-observation-lab"]},"status":"final","category":[{"coding":[{"system":"http://terminology.hl7.org/CodeSystem/observation-category","code":"laboratory","display":"Laboratory"}]}],"code":{"coding":[{"system":"http://loinc.org","code":"22590-4"}]},"subject":{"reference":"Patient/7a18bb15-df5e-49d9-abcc-2dde428059c6"},"effectiveDateTime":"2022-12-12T00:00:00+00:00","valueRatio":{"numerator":{"value":1},"denominator":{"value":64}}},"request":{"method":"POST","url":"Observation"}},{"fullUrl":"Observation/7912f013-a16b-40e2-9d46-4a0635d8c8e3","resource":{"resourceType":"Observation","id":"7912f013-a16b-40e2-9d46-4a0635d8c8e3","meta":{"profile":["http://hl7.org/fhir/us/core/StructureDefinition/us-core-observation-lab"]},"status":"final","category":[{"coding":[{"system":"http://terminology.hl7.org/CodeSystem/observation-category","code":"laboratory","display":"Laboratory"}]}],"code":{"coding":[{"system":"http://loinc.org","code":"50695-6"}]},"subject":{"reference":"Patient/7a18bb15-df5e-49d9-abcc-2dde428059c6"},"effectiveDateTime":"2022-02-25T00:00:00+00:00","valueRatio":{"numerator":{"value":1},"denominator":{"value":32}}},"request":{"method":"POST","url":"Observation"}},{"fullUrl":"Condition/33d17dc8-8cd5-46c1-9ec4-520543f0722f","resource":{"resourceType":"Condition","id":"33d17dc8-8cd5-46c1-9ec4-520543f0722f","meta":{"profile":["http://hl7.org/fhir/us/core/StructureDefinition/us-core-condition"]},"clinicalStatus":{"coding":[{"system":"http://terminology.hl7.org/CodeSystem/condition-clinical","code":"active","display":"Active"}]},"category":[{"coding":[{"system":"http://terminology.hl7.org/CodeSystem/condition-category","code":"problem-list-item"}]}],"code":{"coding":[{"system":"http://snomed.info/sct","code":"709977002"}]},"subject":{"reference":"Patient/7a18bb15-df5e-49d9-abcc-2dde428059c6"},"onsetDateTime":"2022-02-25T00:00:00+00:00"},"request":{"method":"POST","url":"Condition"}},{"fullUrl":"Condition/09aecea7-e42b-434b-80ba-fd1683cac061","resource":{"resourceType":"Condition","id":"09aecea7-e42b-434b-80ba-fd1683cac061","meta":{"profile":["http://hl7.org/fhir/us/core/StructureDefinition/us-core-condition"]},"clinicalStatus":{"coding":[{"system":"http://terminology.hl7.org/CodeSystem/condition-clinical","code":"active","display":"Active"}]},"category":[{"coding":[{"system":"http://terminology.hl7.org/CodeSystem/condition-category","code":"problem-list-item"}]}],"code":{"coding":[{"system":"http://snomed.info/sct","code":"91554004"}]},"subject":{"reference":"Patient/7a18bb15-df5e-49d9-abcc-2dde428059c6"},"onsetDateTime":"2022-11-18T00:00:00+00:00"},"request":{"method":"POST","url":"Condition"}},{"fullUrl":"Condition/3edaa7c0-7c73-4399-a3e1-9b0ffa62128c","resource":{"resourceType":"Condition","id":"3edaa7c0-7c73-4399-a3e1-9b0ffa62128c","meta":{"profile":["http://hl7.org/fhir/us/core/StructureDefinition/us-core-condition"]},"clinicalStatus":{"coding":[{"system":"http://terminology.hl7.org/CodeSystem/condition-clinical","code":"active","display":"Active"}]},"category":[{"coding":[{"system":"http://terminology.hl7.org/CodeSystem/condition-category","code":"problem-list-item"}]}],"code":{"coding":[{"system":"http://snomed.info/sct","code":"709977002"}]},"subject":{"reference":"Patient/7a18bb15-df5e-49d9-abcc-2dde428059c6"},"onsetDateTime":"2022-02-15T00:00:00+00:00"},"request":{"method":"POST","url":"Condition"}},{"fullUrl":"Condition/5d77445d-c1b8-419d-932e-fc140f387d1c","resource":{"resourceType":"Condition","id":"5d77445d-c1b8-419d-932e-fc140f387d1c","meta":{"profile":["http://hl7.org/fhir/us/core/StructureDefinition/us-core-condition"]},"clinicalStatus":{"coding":[{"system":"http://terminology.hl7.org/CodeSystem/condition-clinical","code":"active","display":"Active"}]},"category":[{"coding":[{"system":"http://terminology.hl7.org/CodeSystem/condition-category","code":"problem-list-item"}]}],"code":{"coding":[{"system":"http://snomed.info/sct","code":"709977002"}]},"subject":{"reference":"Patient/7a18bb15-df5e-49d9-abcc-2dde428059c6"},"onsetDateTime":"2022-02-12T00:00:00+00:00"},"request":{"method":"POST","url":"Condition"}},{"fullUrl":"Observation/4014b8d9-ac8e-4388-8cc9-6976c826a8f5","resource":{"resourceType":"Observation","id":"4014b8d9-ac8e-4388-8cc9-6976c826a8f5","meta":{"profile":["http://hl7.org/fhir/us/core/StructureDefinition/us-core-observation-lab"]},"status":"final","category":[{"coding":[{"system":"http://terminology.hl7.org/CodeSystem/observation-category","code":"laboratory","display":"Laboratory"}]}],"code":{"coding":[{"system":"http://loinc.org","code":"26464-8"}]},"subject":{"reference":"Patient/7a18bb15-df5e-49d9-abcc-2dde428059c6"},"effectiveDateTime":"2022-09-18T00:00:00+00:00","valueQuantity":{"value":7.2}},"request":{"method":"POST","url":"Observation"}},{"fullUrl":"Observation/c2007620-d00a-46b7-9737-292164095b82","resource":{"resourceType":"Observation","id":"c2007620-d00a-46b7-9737-292164095b82","meta":{"profile":["http://hl7.org/fhir/us/core/StructureDefinition/us-core-observation-lab"]},"status":"final","category":[{"coding":[{"system":"http://terminology.hl7.org/CodeSystem/observation-category","code":"laboratory","display":"Laboratory"}]}],"code":{"coding":[{"system":"http://loinc.org","code":"6690-2"}]},"subject":{"reference":"Patient/7a18bb15-df5e-49d9-abcc-2dde428059c6"},"effectiveDateTime":"2022-08-16T00:00:00+00:00","valueQuantity":{"value":10.6}},"request":{"method":"POST","url":"Observation"}},{"fullUrl":"Observation/b8ddd387-2c5a-436f-bf0c-e5109df7db75","resource":{"resourceType":"Observation","id":"b8ddd387-2c5a-436f-bf0c-e5109df7db75","meta":{"profile":["http://hl7.org/fhir/us/core/StructureDefinition/us-core-bmi"]},"status":"final","category":[{"coding":[{"system":"http://terminology.hl7.org/CodeSystem/observation-category","code":"vital-signs","display":"Vital Signs"}]}],"code":{"coding":[{"system":"http://loinc.org","code":"39156-5"}]},"subject":{"reference":"Patient/7a18bb15-df5e-49d9-abcc-2dde428059c6"},"effectiveDateTime":"2022-01-24T00:00:00+00:00","valueQuantity":{"value":21.07,"unit":"kg/m2","system":"http://unitsofmeasure.org","code":"kg/m2"}},"request":{"method":"POST","url":"Observation"}},{"fullUrl":"Observation/6e2dc3ad-c0de-43a4-84fc-6565298d3c04","resource":{"resourceType":"Observation","id":"6e2dc3ad-c0de-43a4-84fc-6565298d3c04","meta":{"profile":["http://hl7.org/fhir/us/core/StructureDefinition/us-core-bmi"]},"status":"final","category":[{"coding":[{"system":"http://terminology.hl7.org/CodeSystem/observation-category","code":"vital-signs","display":"Vital Signs"}]}],"code":{"coding":[{"system":"http://loinc.org","code":"39156-5"}]},"subject":{"reference":"Patient/7a18bb15-df5e-49d9-abcc-2dde428059c6"},"effectiveDateTime":"2022-12-02T00:00:00+00:00","valueQuantity":{"value":19.44,"unit":"kg/m2","system":"http://unitsofmeasure.org","code":"kg/m2"}},"request":{"method":"POST","url":"Observation"}},{"fullUrl":"Observation/5e0c0134-471e-4652-b7e4-fce47fd01865","resource":{"resourceType":"Observation","id":"5e0c0134-471e-4652-b7e4-fce47fd01865","meta":{"profile":["http://hl7.org/fhir/us/core/StructureDefinition/us-core-head-circumference"]},"status":"final","category":[{"coding":[{"system":"http://terminology.hl7.org/CodeSystem/observation-category","code":"vital-signs","display":"Vital Signs"}]}],"code":{"coding":[{"system":"http://loinc.org","code":"9843-4"}]},"subject":{"reference":"Patient/7a18bb15-df5e-49d9-abcc-2dde428059c6"},"effectiveDateTime":"2022-08-20T00:00:00+00:00","valueQuantity":{"value":6.2,"unit":"Inch","system":"http://unitsofmeasure.org","code":"[in_i]"}},"request":{"method":"POST","url":"Observation"}},{"fullUrl":"Observation/a21a6cfc-1a8e-4327-9b69-8b7ab7271422","resource":{"resourceType":"Observation","id":"a21a6cfc-1a8e-4327-9b69-8b7ab7271422","meta":{"profile":["http://hl7.org/fhir/us/core/StructureDefinition/us-core-head-circumference"]},"status":"final","category":[{"coding":[{"system":"http://terminology.hl7.org/CodeSystem/observation-category","code":"vital-signs","display":"Vital Signs"}]}],"code":{"coding":[{"system":"http://loinc.org","code":"9843-4"}]},"subject":{"reference":"Patient/7a18bb15-df5e-49d9-abcc-2dde428059c6"},"effectiveDateTime":"2022-06-12T00:00:00+00:00","valueQuantity":{"value":7.2,"unit":"Inch","system":"http://unitsofmeasure.org","code":"[in_i]"}},"request":{"method":"POST","url":"Observation"}},{"fullUrl":"Observation/9f7dfa2d-2fd4-42cf-a6ac-3e77ec113294","resource":{"resourceType":"Observation","id":"9f7dfa2d-2fd4-42cf-a6ac-3e77ec113294","meta":{"profile":["http://hl7.org/fhir/us/core/StructureDefinition/us-core-body-height"]},"status":"final","category":[{"coding":[{"system":"http://terminology.hl7.org/CodeSystem/observation-category","code":"vital-signs","display":"Vital Signs"}]}],"code":{"coding":[{"system":"http://loinc.org","code":"8302-2"}]},"subject":{"reference":"Patient/7a18bb15-df5e-49d9-abcc-2dde428059c6"},"effectiveDateTime":"2022-06-30T00:00:00+00:00","valueQuantity":{"value":83,"unit":"Inch","system":"http://unitsofmeasure.org","code":"[in_i]"}},"request":{"method":"POST","url":"Observation"}},{"fullUrl":"Observation/cef8dab8-4bbc-4734-b3ab-7dfc0366b525","resource":{"resourceType":"Observation","id":"cef8dab8-4bbc-4734-b3ab-7dfc0366b525","meta":{"profile":["http://hl7.org/fhir/us/core/StructureDefinition/us-core-body-weight"]},"status":"final","category":[{"coding":[{"system":"http://terminology.hl7.org/CodeSystem/observation-category","code":"vital-signs","display":"Vital Signs"}]}],"code":{"coding":[{"system":"http://loinc.org","code":"29463-7"}]},"subject":{"reference":"Patient/7a18bb15-df5e-49d9-abcc-2dde428059c6"},"effectiveDateTime":"2022-12-10T00:00:00+00:00","valueQuantity":{"value":107.42,"unit":"kilogram","system":"http://unitsofmeasure.org","code":"kg"}},"request":{"method":"POST","url":"Observation"}},{"fullUrl":"Observation/8eed8a3b-cdad-4778-bc48-0901ed85abcc","resource":{"resourceType":"Observation","id":"8eed8a3b-cdad-4778-bc48-0901ed85abcc","meta":{"profile":["http://hl7.org/fhir/us/core/StructureDefinition/us-core-body-temperature"]},"status":"final","category":[{"coding":[{"system":"http://terminology.hl7.org/CodeSystem/observation-category","code":"vital-signs","display":"Vital Signs"}]}],"code":{"coding":[{"system":"http://loinc.org","code":"8310-5"}]},"subject":{"reference":"Patient/7a18bb15-df5e-49d9-abcc-2dde428059c6"},"effectiveDateTime":"2022-10-08T00:00:00+00:00","valueQuantity":{"value":36.49,"unit":"Degrees Fahrenheit","system":"http://unitsofmeasure.org","code":"[degF]"}},"request":{"method":"POST","url":"Observation"}},{"fullUrl":"Observation/a8b3d54d-1a7f-4c1e-ae62-d6a3e0665fee","resource":{"resourceType":"Observation","id":"a8b3d54d-1a7f-4c1e-ae62-d6a3e0665fee","meta":{"profile":["http://hl7.org/fhir/us/core/StructureDefinition/us-core-body-temperature"]},"status":"final","category":[{"coding":[{"system":"http://terminology.hl7.org/CodeSystem/observation-category","code":"vital-signs","display":"Vital Signs"}]}],"code":{"coding":[{"system":"http://loinc.org","code":"8310-5"}]},"subject":{"reference":"Patient/7a18bb15-df5e-49d9-abcc-2dde428059c6"},"effectiveDateTime":"2022-04-16T00:00:00+00:00","valueQuantity":{"value":58.75,"unit":"Degrees Fahrenheit","system":"http://unitsofmeasure.org","code":"[degF]"}},"request":{"method":"POST","url":"Observation"}},{"fullUrl":"Observation/1410a677-d2d8-4826-af2b-2b59adaa7e66","resource":{"resourceType":"Observation","id":"1410a677-d2d8-4826-af2b-2b59adaa7e66","meta":{"profile":["http://hl7.org/fhir/us/core/StructureDefinition/us-core-heart-rate"]},"status":"final","category":[{"coding":[{"system":"http://terminology.hl7.org/CodeSystem/observation-category","code":"vital-signs","display":"Vital Signs"}]}],"code":{"coding":[{"system":"http://loinc.org","code":"8867-4"}]},"subject":{"reference":"Patient/7a18bb15-df5e-49d9-abcc-2dde428059c6"},"effectiveDateTime":"2022-01-08T00:00:00+00:00","valueQuantity":{"value":98.2,"unit":"Per Minute","system":"http://unitsofmeasure.org","code":"/min"}},"request":{"method":"POST","url":"Observation"}},{"fullUrl":"Observation/70398c48-b9ed-4946-b3ba-ebf9bb5a53a7","resource":{"resourceType":"Observation","id":"70398c48-b9ed-4946-b3ba-ebf9bb5a53a7","meta":{"profile":["http://hl7.org/fhir/us/core/StructureDefinition/us-core-heart-rate"]},"status":"final","category":[{"coding":[{"system":"http://terminology.hl7.org/CodeSystem/observation-category","code":"vital-signs","display":"Vital Signs"}]}],"code":{"coding":[{"system":"http://loinc.org","code":"8867-4"}]},"subject":{"reference":"Patient/7a18bb15-df5e-49d9-abcc-2dde428059c6"},"effectiveDateTime":"2022-02-16T00:00:00+00:00","valueQuantity":{"value":98.1,"unit":"Per Minute","system":"http://unitsofmeasure.org","code":"/min"}},"request":{"method":"POST","url":"Observation"}},{"fullUrl":"Patient/cff36098-f12f-4528-8638-00de0c859f3d","resource":{"resourceType":"Patient","id":"cff36098-f12f-4528-8638-00de0c859f3d","meta":{"profile":["http://hl7.org/fhir/us/core/StructureDefinition/us-core-patient"]},"extension":[{"extension":[{"url":"ombCategory","valueCoding":{"system":"urn:oid:2.16.840.1.113883.6.238","code":"2076-8","display":"Native Hawaiian or Other Pacific Islander"}},{"url":"text","valueString":"Native Hawaiian or Other Pacific Islander"}],"url":"http://hl7.org/fhir/us/core/StructureDefinition/us-core-race"},{"extension":[{"url":"ombCategory","valueCoding":{"system":"urn:oid:2.16.840.1.113883.6.238","code":"2135-2","display":"Hispanic or Latino"}},{"url":"text","valueString":"Hispanic or Latino"}],"url":"http://hl7.org/fhir/us/core/StructureDefinition/us-core-ethnicity"}],"identifier":[{"type":{"coding":[{"system":"http://terminology.hl7.org/CodeSystem/v2-0203","code":"MR"}]},"system":"urn:fhirgen:mrn","value":"728-29-4622"}],"name":[{"family":"Richardson","given":["Kimberly"]}],"telecom":[{"system":"phone","value":"+1-487-333-3544x594","use":"home"}],"gender":"female","birthDate":"1989-07-12","address":[{"line":["534 Gomez Center Suite 264"],"city":"Robintown","state":"PA","postalCode":"81392"}]},"request":{"method":"POST","url":"Patient"}},{"fullUrl":"Observation/244f386f-975a-4583-bb90-29f69712f277","resource":{"resourceType":"Observation","id":"244f386f-975a-4583-bb90-29f69712f277","meta":{"profile":["http://hl7.org/fhir/us/core/StructureDefinition/us-core-observation-lab"]},"status":"final","category":[{"coding":[{"system":"http://terminology.hl7.org/CodeSystem/observation-category","code":"laboratory","display":"Laboratory"}]}],"code":{"coding":[{"system":"http://loinc.org","code":"47235-7"}]},"subject":{"reference":"Patient/cff36098-f12f-4528-8638-00de0c859f3d"},"effectiveDateTime":"2022-09-13T00:00:00+00:00","valueRatio":{"numerator":{"value":1},"denominator":{"value":32}}},"request":{"method":"POST","url":"Observation"}},{"fullUrl":"Observation/64809706-d620-4012-9466-a37ac5de4073","resource":{"resourceType":"Observation","id":"64809706-d620-4012-9466-a37ac5de4073","meta":{"profile":["http://hl7.org/fhir/us/core/StructureDefinition/us-core-observation-lab"]},"status":"final","category":[{"coding":[{"system":"http://terminology.hl7.org/CodeSystem/observation-category","code":"laboratory","display":"Laboratory"}]}],"code":{"coding":[{"system":"http://loinc.org","code":"5394-2"}]},"subject":{"reference":"Patient/cff36098-f12f-4528-8638-00de0c859f3d"},"effectiveDateTime":"2022-02-01T00:00:00+00:00","valueRatio":{"numerator":{"value":1},"denominator":{"value":64}}},"request":{"method":"POST","url":"Observation"}},{"fullUrl":"Observation/beddf8ec-39d8-4de5-8d54-d673b296fd6d","resource":{"resourceType":"Observation","id":"beddf8ec-39d8-4de5-8d54-d673b296fd6d","meta":{"profile":["http://hl7.org/fhir/us/core/StructureDefinition/us-core-observation-lab"]},"status":"final","category":[{"coding":[{"system":"http://terminology.hl7.org/CodeSystem/observation-category","code":"laboratory","display":"Laboratory"}]}],"code":{"coding":[{"system":"http://loinc.org","code":"71793-4"}]},"subject":{"reference":"Patient/cff36098-f12f-4528-8638-00de0c859f3d"},"effectiveDateTime":"2022-05-09T00:00:00+00:00","valueRatio":{"numerator":{"value":1},"denominator":{"value":32}}},"request":{"method":"POST","url":"Observation"}},{"fullUrl":"Condition/52655d6b-d6d2-4b8b-a14d-a568f4f1c94b","resource":{"resourceType":"Condition","id":"52655d6b-d6d2-4b8b-a14d-a568f4f1c94b","meta":{"profile":["http://hl7.org/fhir/us/core/StructureDefinition/us-core-condition"]},"clinicalStatus":{"coding":[{"system":"http://terminology.hl7.org/CodeSystem/condition-clinical","code":"active","display":"Active"}]},"category":[{"coding":[{"system":"http://terminology.hl7.org/CodeSystem/condition-category","code":"problem-list-item"}]}],"code":{"coding":[{"system":"http://snomed.info/sct","code":"709977002"}]},"subject":{"reference":"Patient/cff36098-f12f-4528-8638-00de0c859f3d"},"onsetDateTime":"2022-02-17T00:00:00+00:00"},"request":{"method":"POST","url":"Condition"}},{"fullUrl":"Condition/22f7ce5f-6da2-4d12-9a25-2ac54ea3ddfa","resource":{"resourceType":"Condition","id":"22f7ce5f-6da2-4d12-9a25-2ac54ea3ddfa","meta":{"profile":["http://hl7.org/fhir/us/core/StructureDefinition/us-core-condition"]},"clinicalStatus":{"coding":[{"system":"http://terminology.hl7.org/CodeSystem/condition-clinical","code":"active","display":"Active"}]},"category":[{"coding":[{"system":"http://terminology.hl7.org/CodeSystem/condition-category","code":"problem-list-item"}]}],"code":{"coding":[{"system":"http://snomed.info/sct","code":"418290006"}]},"subject":{"reference":"Patient/cff36098-f12f-4528-8638-00de0c859f3d"},"onsetDateTime":"2022-05-11T00:00:00+00:00"},"request":{"method":"POST","url":"Condition"}},{"fullUrl":"Condition/7e02b886-fba3-4169-8556-11af90c51bf8","resource":{"resourceType":"Condition","id":"7e02b886-fba3-4169-8556-11af90c51bf8","meta":{"profile":["http://hl7.org/fhir/us/core/StructureDefinition/us-core-condition"]},"clinicalStatus":{"coding":[{"system":"http://terminology.hl7.org/CodeSystem/condition-clinical","code":"active","display":"Active"}]},"category":[{"coding":[{"system":"http://terminology.hl7.org/CodeSystem/condition-category","code":"problem-list-item"}]}],"code":{"coding":[{"system":"http://snomed.info/sct","code":"736686006"}]},"subject":{"reference":"Patient/cff36098-f12f-4528-8638-00de0c859f3d"},"onsetDateTime":"2022-03-17T00:00:00+00:00"},"request":{"method":"POST","url":"Condition"}},{"fullUrl":"Condition/840eff79-bcc7-4203-bd19-a30d05827df1","resource":{"resourceType":"Condition","id":"840eff79-bcc7-4203-bd19-a30d05827df1","meta":{"profile":["http://hl7.org/fhir/us/core/StructureDefinition/us-core-condition"]},"clinicalStatus":{"coding":[{"system":"http://terminology.hl7.org/CodeSystem/condition-clinical","code":"active","display":"Active"}]},"category":[{"coding":[{"system":"http://terminology.hl7.org/CodeSystem/condition-category","code":"problem-list-item"}]}],"code":{"coding":[{"system":"http://snomed.info/sct","code":"418290006"}]},"subject":{"reference":"Patient/cff36098-f12f-4528-8638-00de0c859f3d"},"onsetDateTime":"2022-05-29T00:00:00+00:00"},"request":{"method":"POST","url":"Condition"}},{"fullUrl":"Observation/3fe02bad-ec11-4f38-b68c-b267d0095737","resource":{"resourceType":"Observation","id":"3fe02bad-ec11-4f38-b68c-b267d0095737","meta":{"profile":["http://hl7.org/fhir/us/core/StructureDefinition/us-core-observation-lab"]},"status":"final","category":[{"coding":[{"system":"http://terminology.hl7.org/CodeSystem/observation-category","code":"laboratory","display":"Laboratory"}]}],"code":{"coding":[{"system":"http://loinc.org","code":"804-5"}]},"subject":{"reference":"Patient/cff36098-f12f-4528-8638-00de0c859f3d"},"effectiveDateTime":"2022-06-02T00:00:00+00:00","valueQuantity":{"value":7.6}},"request":{"method":"POST","url":"Observation"}},{"fullUrl":"Observation/3f72f823-0a7a-4c4e-8acc-9f8a382ecbba","resource":{"resourceType":"Observation","id":"3f72f823-0a7a-4c4e-8acc-9f8a382ecbba","meta":{"profile":["http://hl7.org/fhir/us/core/StructureDefinition/us-core-observation-lab"]},"status":"final","category":[{"coding":[{"system":"http://terminology.hl7.org/CodeSystem/observation-category","code":"laboratory","display":"Laboratory"}]}],"code":{"coding":[{"system":"http://loinc.org","code":"804-5"}]},"subject":{"reference":"Patient/cff36098-f12f-4528-8638-00de0c859f3d"},"effectiveDateTime":"2022-05-31T00:00:00+00:00","valueQuantity":{"value":5.2}},"request":{"method":"POST","url":"Observation"}},{"fullUrl":"Observation/15cf81a0-53c3-45ee-a870-b943c83e0ecf","resource":{"resourceType":"Observation","id":"15cf81a0-53c3-45ee-a870-b943c83e0ecf","meta":{"profile":["http://hl7.org/fhir/us/core/StructureDefinition/us-core-observation-lab"]},"status":"final","category":[{"coding":[{"system":"http://terminology.hl7.org/CodeSystem/observation-category","code":"laboratory","display":"Laboratory"}]}],"code":{"coding":[{"system":"http://loinc.org","code":"26464-8"}]},"subject":{"reference":"Patient/cff36098-f12f-4528-8638-00de0c859f3d"},"effectiveDateTime":"2022-10-11T00:00:00+00:00","valueQuantity":{"value":6.7}},"request":{"method":"POST","url":"Observation"}},{"fullUrl":"Observation/c91f6062-2dd8-4222-a075-076b74340155","resource":{"resourceType":"Observation","id":"c91f6062-2dd8-4222-a075-076b74340155","meta":{"profile":["http://hl7.org/fhir/us/core/StructureDefinition/us-core-bmi"]},"status":"final","category":[{"coding":[{"system":"http://terminology.hl7.org/CodeSystem/observation-category","code":"vital-signs","display":"Vital Signs"}]}],"code":{"coding":[{"system":"http://loinc.org","code":"39156-5"}]},"subject":{"reference":"Patient/cff36098-f12f-4528-8638-00de0c859f3d"},"effectiveDateTime":"2022-08-17T00:00:00+00:00","valueQuantity":{"value":22.62,"unit":"kg/m2","system":"http://unitsofmeasure.org","code":"kg/m2"}},"request":{"method":"POST","url":"Observation"}},{"fullUrl":"Observation/e860e288-15d5-4859-ab26-f4c685fda6f8","resource":{"resourceType":"Observation","id":"e860e288-15d5-4859-ab26-f4c685fda6f8","meta":{"profile":["http://hl7.org/fhir/us/core/StructureDefinition/us-core-bmi"]},"status":"final","category":[{"coding":[{"system":"http://terminology.hl7.org/CodeSystem/observation-category","code":"vital-signs","display":"Vital Signs"}]}],"code":{"coding":[{"system":"http://loinc.org","code":"39156-5"}]},"subject":{"reference":"Patient/cff36098-f12f-4528-8638-00de0c859f3d"},"effectiveDateTime":"2022-06-25T00:00:00+00:00","valueQuantity":{"value":13.51,"unit":"kg/m2","system":"http://unitsofmeasure.org","code":"kg/m2"}},"request":{"method":"POST","url":"Observation"}},{"fullUrl":"Observation/a2fc2647-b643-4983-b9fc-bede92ba0aa0","resource":{"resourceType":"Observation","id":"a2fc2647-b643-4983-b9fc-bede92ba0aa0","meta":{"profile":["http://hl7.org/fhir/us/core/StructureDefinition/us-core-head-circumference"]},"status":"final","category":[{"coding":[{"system":"http://terminology.hl7.org/CodeSystem/observation-category","code":"vital-signs","display":"Vital Signs"}]}],"code":{"coding":[{"system":"http://loinc.org","code":"9843-4"}]},"subject":{"reference":"Patient/cff36098-f12f-4528-8638-00de0c859f3d"},"effectiveDateTime":"2022-04-04T00:00:00+00:00","valueQuantity":{"value":8.5,"unit":"Inch","system":"http://unitsofmeasure.org","code":"[in_i]"}},"request":{"method":"POST","url":"Observation"}},{"fullUrl":"Observation/53d2eebf-169c-4ce6-bc55-e8d96b72cf5e","resource":{"resourceType":"Observation","id":"53d2eebf-169c-4ce6-bc55-e8d96b72cf5e","meta":{"profile":["http://hl7.org/fhir/us/core/StructureDefinition/us-core-head-circumference"]},"status":"final","category":[{"coding":[{"system":"http://terminology.hl7.org/CodeSystem/observation-category","code":"vital-signs","display":"Vital Signs"}]}],"code":{"coding":[{"system":"http://loinc.org","code":"9843-4"}]},"subject":{"reference":"Patient/cff36098-f12f-4528-8638-00de0c859f3d"},"effectiveDateTime":"2022-05-30T00:00:00+00:00","valueQuantity":{"value":7.8,"unit":"Inch","system":"http://unitsofmeasure.org","code":"[in_i]"}},"request":{"method":"POST","url":"Observation"}},{"fullUrl":"Observation/957d7a3c-ab41-441f-a9a2-a2f43a525b1b","resource":{"resourceType":"Observation","id":"957d7a3c-ab41-441f-a9a2-a2f43a525b1b","meta":{"profile":["http://hl7.org/fhir/us/core/StructureDefinition/us-core-body-height"]},"status":"final","category":[{"coding":[{"system":"http://terminology.hl7.org/CodeSystem/observation-category","code":"vital-signs","display":"Vital Signs"}]}],"code":{"coding":[{"system":"http://loinc.org","code":"8302-2"}]},"subject":{"reference":"Patient/cff36098-f12f-4528-8638-00de0c859f3d"},"effectiveDateTime":"2022-11-09T00:00:00+00:00","valueQuantity":{"value":78.7,"unit":"Inch","system":"http://unitsofmeasure.org","code":"[in_i]"}},"request":{"method":"POST","url":"Observation"}},{"fullUrl":"Observation/57f72149-706e-4a3e-ac93-1a5b541c4fd5","resource":{"resourceType":"Observation","id":"57f72149-706e-4a3e-ac93-1a5b541c4fd5","meta":{"profile":["http://hl7.org/fhir/us/core/StructureDefinition/us-core-body-weight"]},"status":"final","category":[{"coding":[{"system":"http://terminology.hl7.org/CodeSystem/observation-category","code":"vital-signs","display":"Vital Signs"}]}],"code":{"coding":[{"system":"http://loinc.org","code":"29463-7"}]},"subject":{"reference":"Patient/cff36098-f12f-4528-8638-00de0c859f3d"},"effectiveDateTime":"2022-12-14T00:00:00+00:00","valueQuantity":{"value":44.55,"unit":"kilogram","system":"http://unitsofmeasure.org","code":"kg"}},"request":{"method":"POST","url":"Observation"}},{"fullUrl":"Observation/a848743a-b781-4ae2-9209-b289abe6b514","resource":{"resourceType":"Observation","id":"a848743a-b781-4ae2-9209-b289abe6b514","meta":{"profile":["http://hl7.org/fhir/us/core/StructureDefinition/us-core-body-temperature"]},"status":"final","category":[{"coding":[{"system":"http://terminology.hl7.org/CodeSystem/observation-category","code":"vital-signs","display":"Vital Signs"}]}],"code":{"coding":[{"system":"http://loinc.org","code":"8310-5"}]},"subject":{"reference":"Patient/cff36098-f12f-4528-8638-00de0c859f3d"},"effectiveDateTime":"2022-12-24T00:00:00+00:00","valueQuantity":{"value":100.59,"unit":"Degrees Fahrenheit","system":"http://unitsofmeasure.org","code":"[degF]"}},"request":{"method":"POST","url":"Observation"}},{"fullUrl":"Observation/f33414a4-22d8-4791-b3f3-c6a07eb12964","resource":{"resourceType":"Observation","id":"f33414a4-22d8-4791-b3f3-c6a07eb12964","meta":{"profile":["http://hl7.org/fhir/us/core/StructureDefinition/us-core-body-temperature"]},"status":"final","category":[{"coding":[{"system":"http://terminology.hl7.org/CodeSystem/observation-category","code":"vital-signs","display":"Vital Signs"}]}],"code":{"coding":[{"system":"http://loinc.org","code":"8310-5"}]},"subject":{"reference":"Patient/cff36098-f12f-4528-8638-00de0c859f3d"},"effectiveDateTime":"2022-05-30T00:00:00+00:00","valueQuantity":{"value":60.86,"unit":"Degrees Fahrenheit","system":"http://unitsofmeasure.org","code":"[degF]"}},"request":{"method":"POST","url":"Observation"}},{"fullUrl":"Observation/e192df3f-fd66-4be0-a738-4e7de82ed9d2","resource":{"resourceType":"Observation","id":"e192df3f-fd66-4be0-a738-4e7de82ed9d2","meta":{"profile":["http://hl7.org/fhir/us/core/StructureDefinition/us-core-heart-rate"]},"status":"final","category":[{"coding":[{"system":"http://terminology.hl7.org/CodeSystem/observation-category","code":"vital-signs","display":"Vital Signs"}]}],"code":{"coding":[{"system":"http://loinc.org","code":"8867-4"}]},"subject":{"reference":"Patient/cff36098-f12f-4528-8638-00de0c859f3d"},"effectiveDateTime":"2022-11-10T00:00:00+00:00","valueQuantity":{"value":101.9,"unit":"Per Minute","system":"http://unitsofmeasure.org","code":"/min"}},"request":{"method":"POST","url":"Observation"}},{"fullUrl":"Patient/6c2c07f5-5217-4df3-80ff-a15338a3c2dd","resource":{"resourceType":"Patient","id":"6c2c07f5-5217-4df3-80ff-a15338a3c2dd","meta":{"profile":["http://hl7.org/fhir/us/core/StructureDefinition/us-core-patient"]},"extension":[{"extension":[{"url":"ombCategory","valueCoding":{"system":"urn:oid:2.16.840.1.113883.6.238","code":"2028-9","display":"Asian"}},{"url":"text","valueString":"Asian"}],"url":"http://hl7.org/fhir/us/core/StructureDefinition/us-core-race"},{"extension":[{"url":"ombCategory","valueCoding":{"system":"urn:oid:2.16.840.1.113883.6.238","code":"2135-2","display":"Hispanic or Latino"}},{"url":"text","valueString":"Hispanic or Latino"}],"url":"http://hl7.org/fhir/us/core/StructureDefinition/us-core-ethnicity"}],"identifier":[{"type":{"coding":[{"system":"http://terminology.hl7.org/CodeSystem/v2-0203","code":"MR"}]},"system":"urn:fhirgen:mrn","value":"746-61-9902"}],"name":[{"family":"Burton","given":["Juan"]}],"telecom":[{"system":"phone","value":"274.919.5996","use":"home"}],"gender":"other","birthDate":"1998-03-08","address":[{"line":["606 Justin Locks"],"city":"Sydneyborough","state":"MI","postalCode":"40743"}]},"request":{"method":"POST","url":"Patient"}},{"fullUrl":"Observation/250ba4c4-6261-4b22-bbf2-dc72a2fabc3f","resource":{"resourceType":"Observation","id":"250ba4c4-6261-4b22-bbf2-dc72a2fabc3f","meta":{"profile":["http://hl7.org/fhir/us/core/StructureDefinition/us-core-observation-lab"]},"status":"final","category":[{"coding":[{"system":"http://terminology.hl7.org/CodeSystem/observation-category","code":"laboratory","display":"Laboratory"}]}],"code":{"coding":[{"system":"http://loinc.org","code":"46203-6"}]},"subject":{"reference":"Patient/6c2c07f5-5217-4df3-80ff-a15338a3c2dd"},"effectiveDateTime":"2022-01-04T00:00:00+00:00","valueRatio":{"numerator":{"value":1},"denominator":{"value":4}}},"request":{"method":"POST","url":"Observation"}},{"fullUrl":"Observation/79f0afbf-1b24-4af6-aa5d-96385bd65529","resource":{"resourceType":"Observation","id":"79f0afbf-1b24-4af6-aa5d-96385bd65529","meta":{"profile":["http://hl7.org/fhir/us/core/StructureDefinition/us-core-observation-lab"]},"status":"final","category":[{"coding":[{"system":"http://terminology.hl7.org/CodeSystem/observation-category","code":"laboratory","display":"Laboratory"}]}],"code":{"coding":[{"system":"http://loinc.org","code":"71793-4"}]},"subject":{"reference":"Patient/6c2c07f5-5217-4df3-80ff-a15338a3c2dd"},"effectiveDateTime":"2022-10-04T00:00:00+00:00","valueRatio":{"numerator":{"value":1},"denominator":{"value":64}}},"request":{"method":"POST","url":"Observation"}},{"fullUrl":"Condition/9e8f8ed1-0937-4830-84e5-047989688994","resource":{"resourceType":"Condition","id":"9e8f8ed1-0937-4830-84e5-047989688994","meta":{"profile":["http://hl7.org/fhir/us/core/StructureDefinition/us-core-condition"]},"clinicalStatus":{"coding":[{"system":"http://terminology.hl7.org/CodeSystem/condition-clinical","code":"active","display":"Active"}]},"category":[{"coding":[{"system":"http://terminology.hl7.org/CodeSystem/condition-category","code":"problem-list-item"}]}],"code":{"coding":[{"system":"http://snomed.info/sct","code":"44882003"}]},"subject":{"reference":"Patient/6c2c07f5-5217-4df3-80ff-a15338a3c2dd"},"onsetDateTime":"2022-03-29T00:00:00+00:00"},"request":{"method":"POST","url":"Condition"}},{"fullUrl":"Condition/447f42e0-0359-4b69-938e-f470d4be8729","resource":{"resourceType":"Condition","id":"447f42e0-0359-4b69-938e-f470d4be8729","meta":{"profile":["http://hl7.org/fhir/us/core/StructureDefinition/us-core-condition"]},"clinicalStatus":{"coding":[{"system":"http://terminology.hl7.org/CodeSystem/condition-clinical","code":"active","display":"Active"}]},"category":[{"coding":[{"system":"http://terminology.hl7.org/CodeSystem/condition-category","code":"problem-list-item"}]}],"code":{"coding":[{"system":"http://snomed.info/sct","code":"709977002"}]},"subject":{"reference":"Patient/6c2c07f5-5217-4df3-80ff-a15338a3c2dd"},"onsetDateTime":"2022-11-26T00:00:00+00:00"},"request":{"method":"POST","url":"Condition"}},{"fullUrl":"Condition/5ef6504e-d474-4699-aefd-e2403c131445","resource":{"resourceType":"Condition","id":"5ef6504e-d474-4699-aefd-e2403c131445","meta":{"profile":["http://hl7.org/fhir/us/core/StructureDefinition/us-core-condition"]},"clinicalStatus":{"coding":[{"system":"http://terminology.hl7.org/CodeSystem/condition-clinical","code":"active","display":"Active"}]},"category":[{"coding":[{"system":"http://terminology.hl7.org/CodeSystem/condition-category","code":"problem-list-item"}]}],"code":{"coding":[{"system":"http://snomed.info/sct","code":"91554004"}]},"subject":{"reference":"Patient/6c2c07f5-5217-4df3-80ff-a15338a3c2dd"},"onsetDateTime":"2022-02-07T00:00:00+00:00"},"request":{"method":"POST","url":"Condition"}},{"fullUrl":"Observation/c0898cc4-64a4-4b0d-b4d9-15438b7c8582","resource":{"resourceType":"Observation","id":"c0898cc4-64a4-4b0d-b4d9-15438b7c8582","meta":{"profile":["http://hl7.org/fhir/us/core/StructureDefinition/us-core-observation-lab"]},"status":"final","category":[{"coding":[{"system":"http://terminology.hl7.org/CodeSystem/observation-category","code":"laboratory","display":"Laboratory"}]}],"code":{"coding":[{"system":"http://loinc.org","code":"26464-8"}]},"subject":{"reference":"Patient/6c2c07f5-5217-4df3-80ff-a15338a3c2dd"},"effectiveDateTime":"2022-11-05T00:00:00+00:00","valueQuantity":{"value":10.8}},"request":{"method":"POST","url":"Observation"}},{"fullUrl":"Observation/c8f0458d-7d91-438f-8a19-e88f194fcb06","resource":{"resourceType":"Observation","id":"c8f0458d-7d91-438f-8a19-e88f194fcb06","meta":{"profile":["http://hl7.org/fhir/us/core/StructureDefinition/us-core-observation-lab"]},"status":"final","category":[{"coding":[{"system":"http://terminology.hl7.org/CodeSystem/observation-category","code":"laboratory","display":"Laboratory"}]}],"code":{"coding":[{"system":"http://loinc.org","code":"804-5"}]},"subject":{"reference":"Patient/6c2c07f5-5217-4df3-80ff-a15338a3c2dd"},"effectiveDateTime":"2022-08-30T00:00:00+00:00","valueQuantity":{"value":10.6}},"request":{"method":"POST","url":"Observation"}},{"fullUrl":"Observation/6f49522c-cd53-4d17-b576-d5224d8e6105","resource":{"resourceType":"Observation","id":"6f49522c-cd53-4d17-b576-d5224d8e6105","meta":{"profile":["http://hl7.org/fhir/us/core/StructureDefinition/us-core-bmi"]},"status":"final","category":[{"coding":[{"system":"http://terminology.hl7.org/CodeSystem/observation-category","code":"vital-signs","display":"Vital Signs"}]}],"code":{"coding":[{"system":"http://loinc.org","code":"39156-5"}]},"subject":{"reference":"Patient/6c2c07f5-5217-4df3-80ff-a15338a3c2dd"},"effectiveDateTime":"2022-01-23T00:00:00+00:00","valueQuantity":{"value":28.33,"unit":"kg/m2","system":"http://unitsofmeasure.org","code":"kg/m2"}},"request":{"method":"POST","url":"Observation"}},{"fullUrl":"Observation/6d2be353-ece8-4624-960c-d64d3cedc3e3","resource":{"resourceType":"Observation","id":"6d2be353-ece8-4624-960c-d64d3cedc3e3","meta":{"profile":["http://hl7.org/fhir/us/core/StructureDefinition/us-core-bmi"]},"status":"final","category":[{"coding":[{"system":"http://terminology.hl7.org/CodeSystem/observation-category","code":"vital-signs","display":"Vital Signs"}]}],"code":{"coding":[{"system":"http://loinc.org","code":"39156-5"}]},"subject":{"reference":"Patient/6c2c07f5-5217-4df3-80ff-a15338a3c2dd"},"effectiveDateTime":"2022-05-10T00:00:00+00:00","valueQuantity":{"value":21.77,"unit":"kg/m2","system":"http://unitsofmeasure.org","code":"kg/m2"}},"request":{"method":"POST","url":"Observation"}},{"fullUrl":"Observation/4178bca6-329d-445d-8eb8-79bfb423f9e2","resource":{"resourceType":"Observation","id":"4178bca6-329d-445d-8eb8-79bfb423f9e2","meta":{"profile":["http://hl7.org/fhir/us/core/StructureDefinition/us-core-head-circumference"]},"status":"final","category":[{"coding":[{"system":"http://terminology.hl7.org/CodeSystem/observation-category","code":"vital-signs","display":"Vital Signs"}]}],"code":{"coding":[{"system":"http://loinc.org","code":"9843-4"}]},"subject":{"reference":"Patient/6c2c07f5-5217-4df3-80ff-a15338a3c2dd"},"effectiveDateTime":"2022-08-22T00:00:00+00:00","valueQuantity":{"value":5.9,"unit":"Inch","system":"http://unitsofmeasure.org","code":"[in_i]"}},"request":{"method":"POST","url":"Observation"}},{"fullUrl":"Observation/80df8af3-391c-49b6-ad52-729149fd63bb","resource":{"resourceType":"Observation","id":"80df8af3-391c-49b6-ad52-729149fd63bb","meta":{"profile":["http://hl7.org/fhir/us/core/StructureDefinition/us-core-body-height"]},"status":"final","category":[{"coding":[{"system":"http://terminology.hl7.org/CodeSystem/observation-category","code":"vital-signs","display":"Vital Signs"}]}],"code":{"coding":[{"system":"http://loinc.org","code":"8302-2"}]},"subject":{"reference":"Patient/6c2c07f5-5217-4df3-80ff-a15338a3c2dd"},"effectiveDateTime":"2022-07-16T00:00:00+00:00","valueQuantity":{"value":62.3,"unit":"Inch","system":"http://unitsofmeasure.org","code":"[in_i]"}},"request":{"method":"POST","url":"Observation"}},{"fullUrl":"Observation/4fae069a-d558-42d4-9e48-380518424f10","resource":{"resourceType":"Observation","id":"4fae069a-d558-42d4-9e48-380518424f10","meta":{"profile":["http://hl7.org/fhir/us/core/StructureDefinition/us-core-body-weight"]},"status":"final","category":[{"coding":[{"system":"http://terminology.hl7.org/CodeSystem/observation-category","code":"vital-signs","display":"Vital Signs"}]}],"code":{"coding":[{"system":"http://loinc.org","code":"29463-7"}]},"subject":{"reference":"Patient/6c2c07f5-5217-4df3-80ff-a15338a3c2dd"},"effectiveDateTime":"2022-11-11T00:00:00+00:00","valueQuantity":{"value":93.23,"unit":"kilogram","system":"http://unitsofmeasure.org","code":"kg"}},"request":{"method":"POST","url":"Observation"}},{"fullUrl":"Observation/a398b10c-07dc-41af-86b1-a5be3ff05373","resource":{"resourceType":"Observation","id":"a398b10c-07dc-41af-86b1-a5be3ff05373","meta":{"profile":["http://hl7.org/fhir/us/core/StructureDefinition/us-core-body-temperature"]},"status":"final","category":[{"coding":[{"system":"http://terminology.hl7.org/CodeSystem/observation-category","code":"vital-signs","display":"Vital Signs"}]}],"code":{"coding":[{"system":"http://loinc.org","code":"8310-5"}]},"subject":{"reference":"Patient/6c2c07f5-5217-4df3-80ff-a15338a3c2dd"},"effectiveDateTime":"2022-10-24T00:00:00+00:00","valueQuantity":{"value":91.95,"unit":"Degrees Fahrenheit","system":"http://unitsofmeasure.org","code":"[degF]"}},"request":{"method":"POST","url":"Observation"}},{"fullUrl":"Observation/035c0450-2b8b-4236-8646-c43e28d2cd9d","resource":{"resourceType":"Observation","id":"035c0450-2b8b-4236-8646-c43e28d2cd9d","meta":{"profile":["http://hl7.org/fhir/us/core/StructureDefinition/us-core-heart-rate"]},"status":"final","category":[{"coding":[{"system":"http://terminology.hl7.org/CodeSystem/observation-category","code":"vital-signs","display":"Vital Signs"}]}],"code":{"coding":[{"system":"http://loinc.org","code":"8867-4"}]},"subject":{"reference":"Patient/6c2c07f5-5217-4df3-80ff-a15338a3c2dd"},"effectiveDateTime":"2022-08-23T00:00:00+00:00","valueQuantity":{"value":97,"unit":"Per Minute","system":"http://unitsofmeasure.org","code":"/min"}},"request":{"method":"POST","url":"Observation"}},{"fullUrl":"Observation/d2852c43-d04a-4365-912f-a0a84fcd2d66","resource":{"resourceType":"Observation","id":"d2852c43-d04a-4365-912f-a0a84fcd2d66","meta":{"profile":["http://hl7.org/fhir/us/core/StructureDefinition/us-core-heart-rate"]},"status":"final","category":[{"coding":[{"system":"http://terminology.hl7.org/CodeSystem/observation-category","code":"vital-signs","display":"Vital Signs"}]}],"code":{"coding":[{"system":"http://loinc.org","code":"8867-4"}]},"subject":{"reference":"Patient/6c2c07f5-5217-4df3-80ff-a15338a3c2dd"},"effectiveDateTime":"2022-04-21T00:00:00+00:00","valueQuantity":{"value":97,"unit":"Per Minute","system":"http://unitsofmeasure.org","code":"/min"}},"request":{"method":"POST","url":"Observation"}}]}