{"resourceType":"Bundle","id":"aaab0b45-7403-4341-90ae-1d5fa37e4706","type":"transaction","entry":[{"fullUrl":"Patient/63091038-167d-4dd0-b18a-e93d5a1ed9c7","resource":{"resourceType":"Patient","id":"63091038-167d-4dd0-b18a-e93d5a1ed9c7","meta":{"profile":["http://hl7.org/fhir/us/core/StructureDefinition/us-core-patient"]},"extension":[{"extension":[{"url":"ombCategory","valueCoding":{"system":"urn:oid:2.16.840.1.113883.6.238","code":"2106-3","display":"White"}},{"url":"text","valueString":"White"}],"url":"http://hl7.org/fhir/us/core/StructureDefinition/us-core-race"},{"extension":[{"url":"ombCategory","valueCoding":{"system":"urn:oid:2.16.840.1.113883.6.238","code":"2135-2","display":"Hispanic or Latino"}},{"url":"text","valueString":"Hispanic or Latino"}],"url":"http://hl7.org/fhir/us/core/StructureDefinition/us-core-ethnicity"}],"identifier":[{"type":{"coding":[{"system":"http://terminology.hl7.org/CodeSystem/v2-0203","code":"MR"}]},"system":"urn:fhirgen:mrn","value":"438-67-1928"},{"system":"http://hl7.org/fhir/sid/us-ssn","value":"709-89-9025"}],"name":[{"use":"official","family":"King","given":["Jeffrey"]},{"use":"maiden","family":"Adams"}],"telecom":[{"system":"phone","value":"+1-520-089-3088","use":"work"},{"system":"email","value":"briangarcia@hotmail.com","use":"home"}],"gender":"male","birthDate":"1991-09-01","address":[{"use":"home","line":["5009 Smith Gardens Suite 255"],"city":"Michaelville","state":"CT","postalCode":"62433"},{"use":"old","line":["834 Christopher Ridges"],"city":"East Lisa","state":"DE","postalCode":"97105"}],"maritalStatus":{"coding":[{"system":"http://terminology.hl7.org/CodeSystem/v3-MaritalStatus","code":"M","display":"Married"}]}},"request":{"method":"POST","url":"Patient"}},{"fullUrl":"Observation/a58feb26-a11a-4d2c-9574-cf8d4e356b45","resource":{"resourceType":"Observation","id":"a58feb26-a11a-4d2c-9574-cf8d4e356b45","meta":{"profile":["http://hl7.org/fhir/us/core/StructureDefinition/us-core-observation-lab"]},"status":"final","category":[{"coding":[{"system":"http://terminology.hl7.org/CodeSystem/observation-category","code":"laboratory","display":"Laboratory"}]}],"code":{"coding":[{"system":"http://loinc.org","code":"22590-4"}]},"subject":{"reference":"Patient/63091038-167d-4dd0-b18a-e93d5a1ed9c7"},"effectiveDateTime":"2022-06-05T00:00:00+00:00","valueRatio":{"numerator":{"value":1},"denominator":{"value":32}}},"request":{"method":"POST","url":"Observation"}},{"fullUrl":"Observation/d3a7fa80-47c3-4f4b-8da2-e7491081294f","resource":{"resourceType":"Observation","id":"d3a7fa80-47c3-4f4b-8da2-e7491081294f","meta":{"profile":["http://hl7.org/fhir/us/core/StructureDefinition/us-core-observation-lab"]},"status":"final","category":[{"coding":[{"system":"http://terminology.hl7.org/CodeSystem/observation-category","code":"laboratory","display":"Laboratory"}]}],"code":{"coding":[{"system":"http://loinc.org","code":"26009-1"}]},"subject":{"reference":"Patient/63091038-167d-4dd0-b18a-e93d5a1ed9c7"},"effectiveDateTime":"2022-02-05T00:00:00+00:00","valueRatio":{"numerator":{"value":1},"denominator":{"value":4}}},"request":{"method":"POST","url":"Observation"}},{"fullUrl":"Observation/c38d9622-23da-4bf7-b43d-4dc6268ee056","resource":{"resourceType":"Observation","id":"c38d9622-23da-4bf7-b43d-4dc6268ee056","meta":{"profile":["http://hl7.org/fhir/us/core/StructureDefinition/us-core-observation-lab"]},"status":"final","category":[{"coding":[{"system":"http://terminology.hl7.org/CodeSystem/observation-category","code":"laboratory","display":"Laboratory"}]}],"code":{"coding":[{"system":"http://loinc.org","code":"47476-7"}]},"subject":{"reference":"Patient/63091038-167d-4dd0-b18a-e93d5a1ed9c7"},"effectiveDateTime":"2022-06-01T00:00:00+00:00","valueRatio":{"numerator":{"value":1},"denominator":{"value":64}}},"request":{"method":"POST","url":"Observation"}},{"fullUrl":"Condition/cc90f04f-8062-4fa5-811b-7877ed348c63","resource":{"resourceType":"Condition","id":"cc90f04f-8062-4fa5-811b-7877ed348c63","meta":{"profile":["http://hl7.org/fhir/us/core/StructureDefinition/us-core-condition"]},"clinicalStatus":{"coding":[{"system":"http://terminology.hl7.org/CodeSystem/condition-clinical","code":"active","display":"Active"}]},"category":[{"coding":[{"system":"http://terminology.hl7.org/CodeSystem/condition-category","code":"problem-list-item"}]}],"code":{"coding":[{"system":"http://snomed.info/sct","code":"91554004"}]},"subject":{"reference":"Patient/63091038-167d-4dd0-b18a-e93d5a1ed9c7"},"onsetDateTime":"2022-08-20T00:00:00+00:00"},"request":{"method":"POST","url":"Condition"}},{"fullUrl":"Condition/270e9475-3a73-4822-a7a2-966da6829f56","resource":{"resourceType":"Condition","id":"270e9475-3a73-4822-a7a2-966da6829f56","meta":{"profile":["http://hl7.org/fhir/us/core/StructureDefinition/us-core-condition"]},"clinicalStatus":{"coding":[{"system":"http://terminology.hl7.org/CodeSystem/condition-clinical","code":"active","display":"Active"}]},"category":[{"coding":[{"system":"http://terminology.hl7.org/CodeSystem/condition-category","code":"problem-list-item"}]}],"code":{"coding":[{"system":"http://snomed.info/sct","code":"736686006"}]},"subject":{"reference":"Patient/63091038-167d-4dd0-b18a-e93d5a1ed9c7"},"onsetDateTime":"2022-03-13T00:00:00+00:00"},"request":{"method":"POST","url":"Condition"}},{"fullUrl":"Condition/f139925d-3f80-4f00-8b88-b3f90d50d136","resource":{"resourceType":"Condition","id":"f139925d-3f80-4f00-8b88-b3f90d50d136","meta":{"profile":["http://hl7.org/fhir/us/core/StructureDefinition/us-core-condition"]},"clinicalStatus":{"coding":[{"system":"http://terminology.hl7.org/CodeSystem/condition-clinical","code":"active","display":"Active"}]},"category":[{"coding":[{"system":"http://terminology.hl7.org/CodeSystem/condition-category","code":"problem-list-item"}]}],"code":{"coding":[{"system":"http://snomed.info/sct","code":"418290006"}]},"subject":{"reference":"Patient/63091038-167d-4dd0-b18a-e93d5a1ed9c7"},"onsetDateTime":"2022-02-21T00:00:00+00:00"},"request":{"method":"POST","url":"Condition"}},{"fullUrl":"Condition/217376f8-4d67-425d-b842-e45afcc83e67","resource":{"resourceType":"Condition","id":"217376f8-4d67-425d-b842-e45afcc83e67","meta":{"profile":["http://hl7.org/fhir/us/core/StructureDefinition/us-core-condition"]},"clinicalStatus":{"coding":[{"system":"http://terminology.hl7.org/CodeSystem/condition-clinical","code":"active","display":"Active"}]},"category":[{"coding":[{"system":"http://terminology.hl7.org/CodeSystem/condition-category","code":"problem-list-item"}]}],"code":{"coding":[{"system":"http://snomed.info/sct","code":"418290006"}]},"subject":{"reference":"Patient/63091038-167d-4dd0-b18a-e93d5a1ed9c7"},"onsetDateTime":"2022-09-20T00:00:00+00:00"},"request":{"method":"POST","url":"Condition"}},{"fullUrl":"Condition/ae667f04-e451-4301-918a-a73f3f4580d7","resource":{"resourceType":"Condition","id":"ae667f04-e451-4301-918a-a73f3f4580d7","meta":{"profile":["http://hl7.org/fhir/us/core/StructureDefinition/us-core-condition"]},"clinicalStatus":{"coding":[{"system":"http://terminology.hl7.org/CodeSystem/condition-clinical","code":"active","display":"Active"}]},"category":[{"coding":[{"system":"http://terminology.hl7.org/CodeSystem/condition-category","code":"problem-list-item"}]}],"code":{"coding":[{"system":"http://snomed.info/sct","code":"44882003"}]},"subject":{"reference":"Patient/63091038-167d-4dd0-b18a-e93d5a1ed9c7"},"onsetDateTime":"2022-08-31T00:00:00+00:00"},"request":{"method":"POST","url":"Condition"}},{"fullUrl":"Condition/53dfb43e-ad0d-4965-91ff-87e788825bf4","resource":{"resourceType":"Condition","id":"53dfb43e-ad0d-4965-91ff-87e788825bf4","meta":{"profile":["http://hl7.org/fhir/us/core/StructureDefinition/us-core-condition"]},"clinicalStatus":{"coding":[{"system":"http://terminology.hl7.org/CodeSystem/condition-clinical","code":"active","display":"Active"}]},"category":[{"coding":[{"system":"http://terminology.hl7.org/CodeSystem/condition-category","code":"problem-list-item"}]}],"code":{"coding":[{"system":"http://snomed.info/sct","code":"418290006"}]},"subject":{"reference":"Patient/63091038-167d-4dd0-b18a-e93d5a1ed9c7"},"onsetDateTime":"2022-09-08T00:00:00+00:00"},"request":{"method":"POST","url":"Condition"}},{"fullUrl":"Condition/35d6442c-5686-417e-89c1-9311f4b66ff0","resource":{"resourceType":"Condition","id":"35d6442c-5686-417e-89c1-9311f4b66ff0","meta":{"profile":["http://hl7.org/fhir/us/core/StructureDefinition/us-core-condition"]},"clinicalStatus":{"coding":[{"system":"http://terminology.hl7.org/CodeSystem/condition-clinical","code":"active","display":"Active"}]},"category":[{"coding":[{"system":"http://terminology.hl7.org/CodeSystem/condition-category","code":"problem-list-item"}]}],"code":{"coding":[{"system":"http://snomed.info/sct","code":"91554004"}]},"subject":{"reference":"Patient/63091038-167d-4dd0-b18a-e93d5a1ed9c7"},"onsetDateTime":"2022-03-10T00:00:00+00:00"},"request":{"method":"POST","url":"Condition"}},{"fullUrl":"Observation/b5b1e142-1259-49d6-ba49-e39cad7b6dec","resource":{"resourceType":"Observation","id":"b5b1e142-1259-49d6-ba49-e39cad7b6dec","meta":{"profile":["http://hl7.org/fhir/us/core/StructureDefinition/us-core-observation-lab"]},"status":"final","category":[{"coding":[{"system":"http://terminology.hl7.org/CodeSystem/observation-category","code":"laboratory","display":"Laboratory"}]}],"code":{"coding":[{"system":"http://loinc.org","code":"26464-8"}]},"subject":{"reference":"Patient/63091038-167d-4dd0-b18a-e93d5a1ed9c7"},"effectiveDateTime":"2022-12-24T00:00:00+00:00","valueQuantity":{"value":10.6}},"request":{"method":"POST","url":"Observation"}},{"fullUrl":"Observation/fb9f519e-53ea-48b7-84a0-d9d65c9827cd","resource":{"resourceType":"Observation","id":"fb9f519e-53ea-48b7-84a0-d9d65c9827cd","meta":{"profile":["http://hl7.org/fhir/us/core/StructureDefinition/us-core-observation-lab"]},"status":"final","category":[{"coding":[{"system":"http://terminology.hl7.org/CodeSystem/observation-category","code":"laboratory","display":"Laboratory"}]}],"code":{"coding":[{"system":"http://loinc.org","code":"6690-2"}]},"subject":{"reference":"Patient/63091038-167d-4dd0-b18a-e93d5a1ed9c7"},"effectiveDateTime":"2022-01-19T00:00:00+00:00","valueQuantity":{"value":5}},"request":{"method":"POST","url":"Observation"}},{"fullUrl":"Observation/ce27163d-7941-4c74-a765-5b40cb80e4bb","resource":{"resourceType":"Observation","id":"ce27163d-7941-4c74-a765-5b40cb80e4bb","meta":{"profile":["http://hl7.org/fhir/us/core/StructureDefinition/us-core-observation-lab"]},"status":"final","category":[{"coding":[{"system":"http://terminology.hl7.org/CodeSystem/observation-category","code":"laboratory","display":"Laboratory"}]}],"code":{"coding":[{"system":"http://loinc.org","code":"49498-9"}]},"subject":{"reference":"Patient/63091038-167d-4dd0-b18a-e93d5a1ed9c7"},"effectiveDateTime":"2022-08-10T00:00:00+00:00","valueQuantity":{"value":5.4}},"request":{"method":"POST","url":"Observation"}},{"fullUrl":"Observation/a3993688-703a-4e91-a2de-fd500d460124","resource":{"resourceType":"Observation","id":"a3993688-703a-4e91-a2de-fd500d460124","meta":{"profile":["http://hl7.org/fhir/us/core/StructureDefinition/us-core-bmi"]},"status":"final","category":[{"coding":[{"system":"http://terminology.hl7.org/CodeSystem/observation-category","code":"vital-signs","display":"Vital Signs"}]}],"code":{"coding":[{"system":"http://loinc.org","code":"39156-5"}]},"subject":{"reference":"Patient/63091038-167d-4dd0-b18a-e93d5a1ed9c7"},"effectiveDateTime":"2022-09-23T00:00:00+00:00","valueQuantity":{"value":15.65,"unit":"kg/m2","system":"http://unitsofmeasure.org","code":"kg/m2"}},"request":{"method":"POST","url":"Observation"}},{"fullUrl":"Observation/42e9746f-4f03-48fa-a041-1313b57d2c3c","resource":{"resourceType":"Observation","id":"42e9746f-4f03-48fa-a041-1313b57d2c3c","meta":{"profile":["http://hl7.org/fhir/us/core/StructureDefinition/us-core-bmi"]},"status":"final","category":[{"coding":[{"system":"http://terminology.hl7.org/CodeSystem/observation-category","code":"vital-signs","display":"Vital Signs"}]}],"code":{"coding":[{"system":"http://loinc.org","code":"39156-5"}]},"subject":{"reference":"Patient/63091038-167d-4dd0-b18a-e93d5a1ed9c7"},"effectiveDateTime":"2022-06-22T00:00:00+00:00","valueQuantity":{"value":19.64,"unit":"kg/m2","system":"http://unitsofmeasure.org","code":"kg/m2"}},"request":{"method":"POST","url":"Observation"}},{"fullUrl":"Observation/ad877d6a-16f0-4743-8053-f9abf5246ce5","resource":{"resourceType":"Observation","id":"ad877d6a-16f0-4743-8053-f9abf5246ce5","meta":{"profile":["http://hl7.org/fhir/us/core/StructureDefinition/us-core-head-circumference"]},"status":"final","category":[{"coding":[{"system":"http://terminology.hl7.org/CodeSystem/observation-category","code":"vital-signs","display":"Vital Signs"}]}],"code":{"coding":[{"system":"http://loinc.org","code":"9843-4"}]},"subject":{"reference":"Patient/63091038-167d-4dd0-b18a-e93d5a1ed9c7"},"effectiveDateTime":"2022-04-25T00:00:00+00:00","valueQuantity":{"value":8,"unit":"Inch","system":"http://unitsofmeasure.org","code":"[in_i]"}},"request":{"method":"POST","url":"Observation"}},{"fullUrl":"Observation/d6e188f3-b553-4443-8406-a7f4adc3531d","resource":{"resourceType":"Observation","id":"d6e188f3-b553-4443-8406-a7f4adc3531d","meta":{"profile":["http://hl7.org/fhir/us/core/StructureDefinition/us-core-body-height"]},"status":"final","category":[{"coding":[{"system":"http://terminology.hl7.org/CodeSystem/observation-category","code":"vital-signs","display":"Vital Signs"}]}],"code":{"coding":[{"system":"http://loinc.org","code":"8302-2"}]},"subject":{"reference":"Patient/63091038-167d-4dd0-b18a-e93d5a1ed9c7"},"effectiveDateTime":"2022-12-21T00:00:00+00:00","valueQuantity":{"value":76.3,"unit":"Inch","system":"http://unitsofmeasure.org","code":"[in_i]"}},"request":{"method":"POST","url":"Observation"}},{"fullUrl":"Observation/da979079-77c8-4dcb-89cf-fa4b73ac0a4e","resource":{"resourceType":"Observation","id":"da979079-77c8-4dcb-89cf-fa4b73ac0a4e","meta":{"profile":["http://hl7.org/fhir/us/core/StructureDefinition/us-core-body-weight"]},"status":"final","category":[{"coding":[{"system":"http://terminology.hl7.org/CodeSystem/observation-category","code":"vital-signs","display":"Vital Signs"}]}],"code":{"coding":[{"system":"http://loinc.org","code":"29463-7"}]},"subject":{"reference":"Patient/63091038-167d-4dd0-b18a-e93d5a1ed9c7"},"effectiveDateTime":"2022-11-25T00:00:00+00:00","valueQuantity":{"value":45.01,"unit":"kilogram","system":"http://unitsofmeasure.org","code":"kg"}},"request":{"method":"POST","url":"Observation"}},{"fullUrl":"Observation/2cb16e6b-d7c5-43a2-a936-272fa872aa49","resource":{"resourceType":"Observation","id":"2cb16e6b-d7c5-43a2-a936-272fa872aa49","meta":{"profile":["http://hl7.org/fhir/us/core/StructureDefinition/us-core-body-weight"]},"status":"final","category":[{"coding":[{"system":"http://terminology.hl7.org/CodeSystem/observation-category","code":"vital-signs","display":"Vital Signs"}]}],"code":{"coding":[{"system":"http://loinc.org","code":"29463-7"}]},"subject":{"reference":"Patient/63091038-167d-4dd0-b18a-e93d5a1ed9c7"},"effectiveDateTime":"2022-11-04T00:00:00+00:00","valueQuantity":{"value":90.91,"unit":"kilogram","system":"http://unitsofmeasure.org","code":"kg"}},"request":{"method":"POST","url":"Observation"}},{"fullUrl":"Observation/b995487e-3e1d-4028-91e1-bb35e970f8e1","resource":{"resourceType":"Observation","id":"b995487e-3e1d-4028-91e1-bb35e970f8e1","meta":{"profile":["http://hl7.org/fhir/us/core/StructureDefinition/us-core-body-temperature"]},"status":"final","category":[{"coding":[{"system":"http://terminology.hl7.org/CodeSystem/observation-category","code":"vital-signs","display":"Vital Signs"}]}],"code":{"coding":[{"system":"http://loinc.org","code":"8310-5"}]},"subject":{"reference":"Patient/63091038-167d-4dd0-b18a-e93d5a1ed9c7"},"effectiveDateTime":"2022-12-31T00:00:00+00:00","valueQuantity":{"value":139.57,"unit":"Degrees Fahrenheit","system":"http://unitsofmeasure.org","code":"[degF]"}},"request":{"method":"POST","url":"Observation"}},{"fullUrl":"Observation/3062f22b-120a-4b11-aef1-1e0fba1d0998","resource":{"resourceType":"Observation","id":"3062f22b-120a-4b11-aef1-1e0fba1d0998","meta":{"profile":["http://hl7.org/fhir/us/core/StructureDefinition/us-core-body-temperature"]},"status":"final","category":[{"coding":[{"system":"http://terminology.hl7.org/CodeSystem/observation-category","code":"vital-signs","display":"Vital Signs"}]}],"code":{"coding":[{"system":"http://loinc.org","code":"8310-5"}]},"subject":{"reference":"Patient/63091038-167d-4dd0-b18a-e93d5a1ed9c7"},"effectiveDateTime":"2022-08-01T00:00:00+00:00","valueQuantity":{"value":81.61,"unit":"Degrees Fahrenheit","system":"http://unitsofmeasure.org","code":"[degF]"}},"request":{"method":"POST","url":"Observation"}},{"fullUrl":"Observation/a8f0be3d-8a63-4b87-afb0-0ad362054151","resource":{"resourceType":"Observation","id":"a8f0be3d-8a63-4b87-afb0-0ad362054151","meta":{"profile":["http://hl7.org/fhir/us/core/StructureDefinition/us-core-heart-rate"]},"status":"final","category":[{"coding":[{"system":"http://terminology.hl7.org/CodeSystem/observation-category","code":"vital-signs","display":"Vital Signs"}]}],"code":{"coding":[{"system":"http://loinc.org","code":"8867-4"}]},"subject":{"reference":"Patient/63091038-167d-4dd0-b18a-e93d5a1ed9c7"},"effectiveDateTime":"2022-12-26T00:00:00+00:00","valueQuantity":{"value":99.9,"unit":"Per Minute","system":"http://unitsofmeasure.org","code":"/min"}},"request":{"method":"POST","url":"Observation"}},{"fullUrl":"Observation/030d213f-6fda-41d9-a663-975621375af2","resource":{"resourceType":"Observation","id":"030d213f-6fda-41d9-a663-975621375af2","meta":{"profile":["http://hl7.org/fhir/us/core/StructureDefinition/us-core-heart-rate"]},"status":"final","category":[{"coding":[{"system":"http://terminology.hl7.org/CodeSystem/observation-category","code":"vital-signs","display":"Vital Signs"}]}],"code":{"coding":[{"system":"http://loinc.org","code":"8867-4"}]},"subject":{"reference":"Patient/63091038-167d-4dd0-b18a-e93d5a1ed9c7"},"effectiveDateTime":"2022-02-01T00:00:00+00:00","valueQuantity":{"value":100.5,"unit":"Per Minute","system":"http://unitsofmeasure.org","code":"/min"}},"request":{"method":"POST","url":"Observation"}},{"fullUrl":"Organization/8f5566c6-895f-4a09-8e49-ad34d980a441","resource":{"resourceType":"Organization","id":"8f5566c6-895f-4a09-8e49-ad34d980a441","meta":{"profile":["http://hl7.org/fhir/us/core/StructureDefinition/us-core-organization"]},"active":true,"name":"Barrera-Ballard","telecom":[{"system":"phone","value":"001-385-326-6276x21459","use":"work"}],"address":[{"use":"work","line":["6314 Snyder Harbors"],"city":"South Bryanmouth","state":"ME","postalCode":"47970"}]},"request":{"method":"POST","url":"Organization"}},{"fullUrl":"Patient/863f0c94-acb6-4586-98cc-3d80ac8dec1b","resource":{"resourceType":"Patient","id":"863f0c94-acb6-4586-98cc-3d80ac8dec1b","meta":{"profile":["http://hl7.org/fhir/us/core/StructureDefinition/us-core-patient"]},"extension":[{"extension":[{"url":"ombCategory","valueCoding":{"system":"urn:oid:2.16.840.1.113883.6.238","code":"1002-5","display":"American Indian or Alaska Native"}},{"url":"text","valueString":"American Indian or Alaska Native"}],"url":"http://hl7.org/fhir/us/core/StructureDefinition/us-core-race"},{"extension":[{"url":"ombCategory","valueCoding":{"system":"urn:oid:2.16.840.1.113883.6.238","code":"2186-5","display":"Not Hispanic or Latino"}},{"url":"text","valueString":"Not Hispanic or Latino"}],"url":"http://hl7.org/fhir/us/core/StructureDefinition/us-core-ethnicity"}],"identifier":[{"type":{"coding":[{"system":"http://terminology.hl7.org/CodeSystem/v2-0203","code":"MR"}]},"system":"urn:fhirgen:mrn","value":"549-60-1350"},{"system":"http://hl7.org/fhir/sid/us-ssn","value":"287-86-3166"}],"name":[{"use":"official","family":"Marshall","given":["Douglas"]},{"use":"maiden","family":"Thomas"}],"telecom":[{"system":"phone","value":"+1-775-748-7113x9678","use":"work"},{"system":"email","value":"lisa82@gmail.com","use":"home"}],"gender":"male","birthDate":"1947-08-05","address":[{"use":"home","line":["558 Luis Mission"],"city":"New Anne","state":"WY","postalCode":"82752"},{"use":"old","line":["659 Shannon Crest Apt. 225"],"city":"East Mitchell","state":"WA","postalCode":"93537"}],"maritalStatus":{"coding":[{"system":"http://terminology.hl7.org/CodeSystem/v3-MaritalStatus","code":"L","display":"Legally Separated"}]}},"request":{"method":"POST","url":"Patient"}},{"fullUrl":"Observation/21326f4a-9c4e-4d89-8df3-ef50d450366e","resource":{"resourceType":"Observation","id":"21326f4a-9c4e-4d89-8df3-ef50d450366e","meta":{"profile":["http://hl7.org/fhir/us/core/StructureDefinition/us-core-observation-lab"]},"status":"final","category":[{"coding":[{"system":"http://terminology.hl7.org/CodeSystem/observation-category","code":"laboratory","display":"Laboratory"}]}],"code":{"coding":[{"system":"http://loinc.org","code":"31147-2"}]},"subject":{"reference":"Patient/863f0c94-acb6-4586-98cc-3d80ac8dec1b"},"effectiveDateTime":"2022-08-18T00:00:00+00:00","valueRatio":{"numerator":{"value":1},"denominator":{"value":64}}},"request":{"method":"POST","url":"Observation"}},{"fullUrl":"Observation/65887bb9-d117-4865-a8b8-55d0616ba2c7","resource":{"resourceType":"Observation","id":"65887bb9-d117-4865-a8b8-55d0616ba2c7","meta":{"profile":["http://hl7.org/fhir/us/core/StructureDefinition/us-core-observation-lab"]},"status":"final","category":[{"coding":[{"system":"http://terminology.hl7.org/CodeSystem/observation-category","code":"laboratory","display":"Laboratory"}]}],"code":{"coding":[{"system":"http://loinc.org","code":"51475-2"}]},"subject":{"reference":"Patient/863f0c94-acb6-4586-98cc-3d80ac8dec1b"},"effectiveDateTime":"2022-09-16T00:00:00+00:00","valueRatio":{"numerator":{"value":1},"denominator":{"value":32}}},"request":{"method":"POST","url":"Observation"}},{"fullUrl":"Observation/73f56c9d-fc21-4f00-8bdc-8b53a4a5f515","resource":{"resourceType":"Observation","id":"73f56c9d-fc21-4f00-8bdc-8b53a4a5f515","meta":{"profile":["http://hl7.org/fhir/us/core/StructureDefinition/us-core-observation-lab"]},"status":"final","category":[{"coding":[{"system":"http://terminology.hl7.org/CodeSystem/observation-category","code":"laboratory","display":"Laboratory"}]}],"code":{"coding":[{"system":"http://loinc.org","code":"11084-1"}]},"subject":{"reference":"Patient/863f0c94-acb6-4586-98cc-3d80ac8dec1b"},"effectiveDateTime":"2022-12-05T00:00:00+00:00","valueRatio":{"numerator":{"value":1},"denominator":{"value":64}}},"request":{"method":"POST","url":"Observation"}},{"fullUrl":"Condition/531d9cfc-5cfc-400d-af0b-ce1b7b1751f4","resource":{"resourceType":"Condition","id":"531d9cfc-5cfc-400d-af0b-ce1b7b1751f4","meta":{"profile":["http://hl7.org/fhir/us/core/StructureDefinition/us-core-condition"]},"clinicalStatus":{"coding":[{"system":"http://terminology.hl7.org/CodeSystem/condition-clinical","code":"active","display":"Active"}]},"category":[{"coding":[{"system":"http://terminology.hl7.org/CodeSystem/condition-category","code":"problem-list-item"}]}],"code":{"coding":[{"system":"http://snomed.info/sct","code":"709977002"}]},"subject":{"reference":"Patient/863f0c94-acb6-4586-98cc-3d80ac8dec1b"},"onsetDateTime":"2022-11-12T00:00:00+00:00"},"request":{"method":"POST","url":"Condition"}},{"fullUrl":"Condition/24bdf5fe-60b1-473e-8109-e3fb10920b23","resource":{"resourceType":"Condition","id":"24bdf5fe-60b1-473e-8109-e3fb10920b23","meta":{"profile":["http://hl7.org/fhir/us/core/StructureDefinition/us-core-condition"]},"clinicalStatus":{"coding":[{"system":"http://terminology.hl7.org/CodeSystem/condition-clinical","code":"active","display":"Active"}]},"category":[{"coding":[{"system":"http://terminology.hl7.org/CodeSystem/condition-category","code":"problem-list-item"}]}],"code":{"coding":[{"system":"http://snomed.info/sct","code":"736686006"}]},"subject":{"reference":"Patient/863f0c94-acb6-4586-98cc-3d80ac8dec1b"},"onsetDateTime":"2022-04-28T00:00:00+00:00"},"request":{"method":"POST","url":"Condition"}},{"fullUrl":"Condition/ba2cd7f9-59e9-4de5-9d78-e31b4a69fd2b","resource":{"resourceType":"Condition","id":"ba2cd7f9-59e9-4de5-9d78-e31b4a69fd2b","meta":{"profile":["http://hl7.org/fhir/us/core/StructureDefinition/us-core-condition"]},"clinicalStatus":{"coding":[{"system":"http://terminology.hl7.org/CodeSystem/condition-clinical","code":"active","display":"Active"}]},"category":[{"coding":[{"system":"http://terminology.hl7.org/CodeSystem/condition-category","code":"problem-list-item"}]}],"code":{"coding":[{"system":"http://snomed.info/sct","code":"709977002"}]},"subject":{"reference":"Patient/863f0c94-acb6-4586-98cc-3d80ac8dec1b"},"onsetDateTime":"2022-01-20T00:00:00+00:00"},"request":{"method":"POST","url":"Condition"}},{"fullUrl":"Observation/646c6475-8527-4ef7-afc8-7fa2c5237371","resource":{"resourceType":"Observation","id":"646c6475-8527-4ef7-afc8-7fa2c5237371","meta":{"profile":["http://hl7.org/fhir/us/core/StructureDefinition/us-core-observation-lab"]},"status":"final","category":[{"coding":[{"system":"http://terminology.hl7.org/CodeSystem/observation-category","code":"laboratory","display":"Laboratory"}]}],"code":{"coding":[{"system":"http://loinc.org","code":"6690-2"}]},"subject":{"reference":"Patient/863f0c94-acb6-4586-98cc-3d80ac8dec1b"},"effectiveDateTime":"2022-12-27T00:00:00+00:00","valueQuantity":{"value":6}},"request":{"method":"POST","url":"Observation"}},{"fullUrl":"Observation/fcaac098-d8b0-4f23-8d44-ab0bdac0ce7b","resource":{"resourceType":"Observation","id":"fcaac098-d8b0-4f23-8d44-ab0bdac0ce7b","meta":{"profile":["http://hl7.org/fhir/us/core/StructureDefinition/us-core-observation-lab"]},"status":"final","category":[{"coding":[{"system":"http://terminology.hl7.org/CodeSystem/observation-category","code":"laboratory","display":"Laboratory"}]}],"code":{"coding":[{"system":"http://loinc.org","code":"26464-8"}]},"subject":{"reference":"Patient/863f0c94-acb6-4586-98cc-3d80ac8dec1b"},"effectiveDateTime":"2022-10-30T00:00:00+00:00","valueQuantity":{"value":10.7}},"request":{"method":"POST","url":"Observation"}},{"fullUrl":"Observation/17eddb54-e586-4aef-8a61-97b1996f4807","resource":{"resourceType":"Observation","id":"17eddb54-e586-4aef-8a61-97b1996f4807","meta":{"profile":["http://hl7.org/fhir/us/core/StructureDefinition/us-core-bmi"]},"status":"final","category":[{"coding":[{"system":"http://terminology.hl7.org/CodeSystem/observation-category","code":"vital-signs","display":"Vital Signs"}]}],"code":{"coding":[{"system":"http://loinc.org","code":"39156-5"}]},"subject":{"reference":"Patient/863f0c94-acb6-4586-98cc-3d80ac8dec1b"},"effectiveDateTime":"2022-04-16T00:00:00+00:00","valueQuantity":{"value":17.66,"unit":"kg/m2","system":"http://unitsofmeasure.org","code":"kg/m2"}},"request":{"method":"POST","url":"Observation"}},{"fullUrl":"Observation/fa443f49-7e9f-40ad-b39c-fe1c14e636c3","resource":{"resourceType":"Observation","id":"fa443f49-7e9f-40ad-b39c-fe1c14e636c3","meta":{"profile":["http://hl7.org/fhir/us/core/StructureDefinition/us-core-head-circumference"]},"status":"final","category":[{"coding":[{"system":"http://terminology.hl7.org/CodeSystem/observation-category","code":"vital-signs","display":"Vital Signs"}]}],"code":{"coding":[{"system":"http://loinc.org","code":"9843-4"}]},"subject":{"reference":"Patient/863f0c94-acb6-4586-98cc-3d80ac8dec1b"},"effectiveDateTime":"2022-01-01T00:00:00+00:00","valueQuantity":{"value":1.7,"unit":"Inch","system":"http://unitsofmeasure.org","code":"[in_i]"}},"request":{"method":"POST","url":"Observation"}},{"fullUrl":"Observation/390ae6d1-e057-4f6a-93c6-f02a27542e42","resource":{"resourceType":"Observation","id":"390ae6d1-e057-4f6a-93c6-f02a27542e42","meta":{"profile":["http://hl7.org/fhir/us/core/StructureDefinition/us-core-head-circumference"]},"status":"final","category":[{"coding":[{"system":"http://terminology.hl7.org/CodeSystem/observation-category","code":"vital-signs","display":"Vital Signs"}]}],"code":{"coding":[{"system":"http://loinc.org","code":"9843-4"}]},"subject":{"reference":"Patient/863f0c94-acb6-4586-98cc-3d80ac8dec1b"},"effectiveDateTime":"2022-11-29T00:00:00+00:00","valueQuantity":{"value":5.2,"unit":"Inch","system":"http://unitsofmeasure.org","code":"[in_i]"}},"request":{"method":"POST","url":"Observation"}},{"fullUrl":"Observation/5ac83075-0900-4a17-9830-fd4c7c66c44d","resource":{"resourceType":"Observation","id":"5ac83075-0900-4a17-9830-fd4c7c66c44d","meta":{"profile":["http://hl7.org/fhir/us/core/StructureDefinition/us-core-body-height"]},"status":"final","category":[{"coding":[{"system":"http://terminology.hl7.org/CodeSystem/observation-category","code":"vital-signs","display":"Vital Signs"}]}],"code":{"coding":[{"system":"http://loinc.org","code":"8302-2"}]},"subject":{"reference":"Patient/863f0c94-acb6-4586-98cc-3d80ac8dec1b"},"effectiveDateTime":"2022-12-26T00:00:00+00:00","valueQuantity":{"value":75.6,"unit":"Inch","system":"http://unitsofmeasure.org","code":"[in_i]"}},"request":{"method":"POST","url":"Observation"}},{"fullUrl":"Observation/d69273b0-a8d5-4e14-933f-3f43febcb121","resource":{"resourceType":"Observation","id":"d69273b0-a8d5-4e14-933f-3f43febcb121","meta":{"profile":["http://hl7.org/fhir/us/core/StructureDefinition/us-core-body-weight"]},"status":"final","category":[{"coding":[{"system":"http://terminology.hl7.org/CodeSystem/observation-category","code":"vital-signs","display":"Vital Signs"}]}],"code":{"coding":[{"system":"http://loinc.org","code":"29463-7"}]},"subject":{"reference":"Patient/863f0c94-acb6-4586-98cc-3d80ac8dec1b"},"effectiveDateTime":"2022-08-21T00:00:00+00:00","valueQuantity":{"value":47.33,"unit":"kilogram","system":"http://unitsofmeasure.org","code":"kg"}},"request":{"method":"POST","url":"Observation"}},{"fullUrl":"Observation/e52df5dc-0319-451a-949c-4976602f8163","resource":{"resourceType":"Observation","id":"e52df5dc-0319-451a-949c-4976602f8163","meta":{"profile":["http://hl7.org/fhir/us/core/StructureDefinition/us-core-body-temperature"]},"status":"final","category":[{"coding":[{"system":"http://terminology.hl7.org/CodeSystem/observation-category","code":"vital-signs","display":"Vital Signs"}]}],"code":{"coding":[{"system":"http://loinc.org","code":"8310-5"}]},"subject":{"reference":"Patient/863f0c94-acb6-4586-98cc-3d80ac8dec1b"},"effectiveDateTime":"2022-06-09T00:00:00+00:00","valueQuantity":{"value":65.49,"unit":"Degrees Fahrenheit","system":"http://unitsofmeasure.org","code":"[degF]"}},"request":{"method":"POST","url":"Observation"}},{"fullUrl":"Observation/9320016b-217c-4c21-84e2-d6ba02b8d64f","resource":{"resourceType":"Observation","id":"9320016b-217c-4c21-84e2-d6ba02b8d64f","meta":{"profile":["http://hl7.org/fhir/us/core/StructureDefinition/us-core-body-temperature"]},"status":"final","category":[{"coding":[{"system":"http://terminology.hl7.org/CodeSystem/observation-category","code":"vital-signs","display":"Vital Signs"}]}],"code":{"coding":[{"system":"http://loinc.org","code":"8310-5"}]},"subject":{"reference":"Patient/863f0c94-acb6-4586-98cc-3d80ac8dec1b"},"effectiveDateTime":"2022-10-08T00:00:00+00:00","valueQuantity":{"value":56.61,"unit":"Degrees Fahrenheit","system":"http://unitsofmeasure.org","code":"[degF]"}},"request":{"method":"POST","url":"Observation"}},{"fullUrl":"Observation/b0ba185a-d9b7-48fb-83f2-1c4188df9cca","resource":{"resourceType":"Observation","id":"b0ba185a-d9b7-48fb-83f2-1c4188df9cca","meta":{"profile":["http://hl7.org/fhir/us/core/StructureDefinition/us-core-heart-rate"]},"status":"final","category":[{"coding":[{"system":"http://terminology.hl7.org/CodeSystem/observation-category","code":"vital-signs","display":"Vital Signs"}]}],"code":{"coding":[{"system":"http://loinc.org","code":"8867-4"}]},"subject":{"reference":"Patient/863f0c94-acb6-4586-98cc-3d80ac8dec1b"},"effectiveDateTime":"2022-10-30T00:00:00+00:00","valueQuantity":{"value":98,"unit":"Per Minute","system":"http://unitsofmeasure.org","code":"/min"}},"request":{"method":"POST","url":"Observation"}},{"fullUrl":"Observation/5e1eb8b0-7f56-47e9-b4d3-7e163f2fc26e","resource":{"resourceType":"Observation","id":"5e1eb8b0-7f56-47e9-b4d3-7e163f2fc26e","meta":{"profile":["http://hl7.org/fhir/us/core/StructureDefinition/us-core-heart-rate"]},"status":"final","category":[{"coding":[{"system":"http://terminology.hl7.org/CodeSystem/observation-category","code":"vital-signs","display":"Vital Signs"}]}],"code":{"coding":[{"system":"http://loinc.org","code":"8867-4"}]},"subject":{"reference":"Patient/863f0c94-acb6-4586-98cc-3d80ac8dec1b"},"effectiveDateTime":"2022-04-25T00:00:00+00:00","valueQuantity":{"value":100.4,"unit":"Per Minute","system":"http://unitsofmeasure.org","code":"/min"}},"request":{"method":"POST","url":"Observation"}},{"fullUrl":"Organization/ebbc9b97-3c64-40c4-9bcd-dbe0d5c3e1bc","resource":{"resourceType":"Organization","id":"ebbc9b97-3c64-40c4-9bcd-dbe0d5c3e1bc","meta":{"profile":["http://hl7.org/fhir/us/core/StructureDefinition/us-core-organization"]},"active":true,"name":"Garza, Reyes and Park","telecom":[{"system":"phone","value":"688.813.6304x744","use":"work"}],"address":[{"use":"work","line":["1954 Orr Summit"],"city":"Port Brett","state":"OH","postalCode":"30287"}]},"request":{"method":"POST","url":"Organization"}},{"fullUrl":"Patient/8165708b-39d0-4dd1-9b15-9bc75975e3ca","resource":{"resourceType":"Patient","id":"8165708b-39d0-4dd1-9b15-9bc75975e3ca","meta":{"profile":["http://hl7.org/fhir/us/core/StructureDefinition/us-core-patient"]},"extension":[{"extension":[{"url":"ombCategory","valueCoding":{"system":"urn:oid:2.16.840.1.113883.6.238","code":"1002-5","display":"American Indian or Alaska Native"}},{"url":"text","valueString":"American Indian or Alaska Native"}],"url":"http://hl7.org/fhir/us/core/StructureDefinition/us-core-race"},{"extension":[{"url":"ombCategory","valueCoding":{"system":"urn:oid:2.16.840.1.113883.6.238","code":"2135-2","display":"Hispanic or Latino"}},{"url":"text","valueString":"Hispanic or Latino"}],"url":"http://hl7.org/fhir/us/core/StructureDefinition/us-core-ethnicity"}],"identifier":[{"type":{"coding":[{"system":"http://terminology.hl7.org/CodeSystem/v2-0203","code":"MR"}]},"system":"urn:fhirgen:mrn","value":"588-23-3561"},{"system":"http://hl7.org/fhir/sid/us-ssn","value":"112-19-0565"}],"name":[{"use":"official","family":"Hopkins","given":["Cassandra"]},{"use":"maiden","family":"Taylor"}],"telecom":[{"system":"phone","value":"787-600-6563x482","use":"work"},{"system":"email","value":"omyers@hotmail.com","use":"home"}],"gender":"female","birthDate":"1988-04-02","address":[{"use":"home","line":["602 Lisa Street Suite 188"],"city":"South Brittany","state":"AK","postalCode":"52455"},{"use":"old","line":["711 Susan Stream"],"city":"West Susan","state":"DC","postalCode":"84138"}],"maritalStatus":{"coding":[{"system":"http://terminology.hl7.org/CodeSystem/v3-MaritalStatus","code":"A","display":"Annulled"}]}},"request":{"method":"POST","url":"Patient"}},{"fullUrl":"Observation/04e4b1c6-6587-490d-aeb8-53e7ac76ae3a","resource":{"resourceType":"Observation","id":"04e4b1c6-6587-490d-aeb8-53e7ac76ae3a","meta":{"profile":["http://hl7.org/fhir/us/core/StructureDefinition/us-core-observation-lab"]},"status":"final","category":[{"coding":[{"system":"http://terminology.hl7.org/CodeSystem/observation-category","code":"laboratory","display":"Laboratory"}]}],"code":{"coding":[{"system":"http://loinc.org","code":"50690-7"}]},"subject":{"reference":"Patient/8165708b-39d0-4dd1-9b15-9bc75975e3ca"},"effectiveDateTime":"2022-07-19T00:00:00+00:00","valueRatio":{"numerator":{"value":1},"denominator":{"value":4}}},"request":{"method":"POST","url":"Observation"}},{"fullUrl":"Observation/78f7fe1f-3085-48c7-9428-a54e7422b25b","resource":{"resourceType":"Observation","id":"78f7fe1f-3085-48c7-9428-a54e7422b25b","meta":{"profile":["http://hl7.org/fhir/us/core/StructureDefinition/us-core-observation-lab"]},"status":"final","category":[{"coding":[{"system":"http://terminology.hl7.org/CodeSystem/observation-category","code":"laboratory","display":"Laboratory"}]}],"code":{"coding":[{"system":"http://loinc.org","code":"87925-4"}]},"subject":{"reference":"Patient/8165708b-39d0-4dd1-9b15-9bc75975e3ca"},"effectiveDateTime":"2022-12-14T00:00:00+00:00","valueRatio":{"numerator":{"value":1},"denominator":{"value":32}}},"request":{"method":"POST","url":"Observation"}},{"fullUrl":"Observation/bfafcae5-de24-4011-8c97-8cd376f41cf1","resource":{"resourceType":"Observation","id":"bfafcae5-de24-4011-8c97-8cd376f41cf1","meta":{"profile":["http://hl7.org/fhir/us/core/StructureDefinition/us-core-observation-lab"]},"status":"final","category":[{"coding":[{"system":"http://terminology.hl7.org/CodeSystem/observation-category","code":"laboratory","display":"Laboratory"}]}],"code":{"coding":[{"system":"http://loinc.org","code":"11084-1"}]},"subject":{"reference":"Patient/8165708b-39d0-4dd1-9b15-9bc75975e3ca"},"effectiveDateTime":"2022-03-07T00:00:00+00:00","valueRatio":{"numerator":{"value":1},"denominator":{"value":32}}},"request":{"method":"POST","url":"Observation"}},{"fullUrl":"Condition/fdf474e3-b827-49db-a56a-fe6f3c9916f5","resource":{"resourceType":"Condition","id":"fdf474e3-b827-49db-a56a-fe6f3c9916f5","meta":{"profile":["http://hl7.org/fhir/us/core/StructureDefinition/us-core-condition"]},"clinicalStatus":{"coding":[{"system":"http://terminology.hl7.org/CodeSystem/condition-clinical","code":"active","display":"Active"}]},"category":[{"coding":[{"system":"http://terminology.hl7.org/CodeSystem/condition-category","code":"problem-list-item"}]}],"code":{"coding":[{"system":"http://snomed.info/sct","code":"91554004"}]},"subject":{"reference":"Patient/8165708b-39d0-4dd1-9b15-9bc75975e3ca"},"onsetDateTime":"2022-07-22T00:00:00+00:00"},"request":{"method":"POST","url":"Condition"}},{"fullUrl":"Condition/99a22ff7-e3ed-48f4-8140-c23718d6cd50","resource":{"resourceType":"Condition","id":"99a22ff7-e3ed-48f4-8140-c23718d6cd50","meta":{"profile":["http://hl7.org/fhir/us/core/StructureDefinition/us-core-condition"]},"clinicalStatus":{"coding":[{"system":"http://terminology.hl7.org/CodeSystem/condition-clinical","code":"active","display":"Active"}]},"category":[{"coding":[{"system":"http://terminology.hl7.org/CodeSystem/condition-category","code":"problem-list-item"}]}],"code":{"coding":[{"system":"http://snomed.info/sct","code":"709977002"}]},"subject":{"reference":"Patient/8165708b-39d0-4dd1-9b15-9bc75975e3ca"},"onsetDateTime":"2022-12-04T00:00:00+00:00"},"request":{"method":"POST","url":"Condition"}},{"fullUrl":"Condition/72d79b99-d345-4688-9cbb-ce087a4703d4","resource":{"resourceType":"Condition","id":"72d79b99-d345-4688-9cbb-ce087a4703d4","meta":{"profile":["http://hl7.org/fhir/us/core/StructureDefinition/us-core-condition"]},"clinicalStatus":{"coding":[{"system":"http://terminology.hl7.org/CodeSystem/condition-clinical","code":"active","display":"Active"}]},"category":[{"coding":[{"system":"http://terminology.hl7.org/CodeSystem/condition-category","code":"problem-list-item"}]}],"code":{"coding":[{"system":"http://snomed.info/sct","code":"709977002"}]},"subject":{"reference":"Patient/8165708b-39d0-4dd1-9b15-9bc75975e3ca"},"onsetDateTime":"2022-04-10T00:00:00+00:00"},"request":{"method":"POST","url":"Condition"}},{"fullUrl":"Condition/d71f5369-2d2f-4d4c-8f41-b27bb4f52511","resource":{"resourceType":"Condition","id":"d71f5369-2d2f-4d4c-8f41-b27bb4f52511","meta":{"profile":["http://hl7.org/fhir/us/core/StructureDefinition/us-core-condition"]},"clinicalStatus":{"coding":[{"system":"http://terminology.hl7.org/CodeSystem/condition-clinical","code":"active","display":"Active"}]},"category":[{"coding":[{"system":"http://terminology.hl7.org/CodeSystem/condition-category","code":"problem-list-item"}]}],"code":{"coding":[{"system":"http://snomed.info/sct","code":"736686006"}]},"subject":{"reference":"Patient/8165708b-39d0-4dd1-9b15-9bc75975e3ca"},"onsetDateTime":"2022-10-04T00:00:00+00:00"},"request":{"method":"POST","url":"Condition"}},{"fullUrl":"Condition/9c613ca1-4a94-4042-ba11-613142953f5b","resource":{"resourceType":"Condition","id":"9c613ca1-4a94-4042-ba11-613142953f5b","meta":{"profile":["http://hl7.org/fhir/us/core/StructureDefinition/us-core-condition"]},"clinicalStatus":{"coding":[{"system":"http://terminology.hl7.org/CodeSystem/condition-clinical","code":"active","display":"Active"}]},"category":[{"coding":[{"system":"http://terminology.hl7.org/CodeSystem/condition-category","code":"problem-list-item"}]}],"code":{"coding":[{"system":"http://snomed.info/sct","code":"709977002"}]},"subject":{"reference":"Patient/8165708b-39d0-4dd1-9b15-9bc75975e3ca"},"onsetDateTime":"2022-12-27T00:00:00+00:00"},"request":{"method":"POST","url":"Condition"}},{"fullUrl":"Observation/a3630d52-cfbf-4d61-b8be-608bb4661b3c","resource":{"resourceType":"Observation","id":"a3630d52-cfbf-4d61-b8be-608bb4661b3c","meta":{"profile":["http://hl7.org/fhir/us/core/StructureDefinition/us-core-observation-lab"]},"status":"final","category":[{"coding":[{"system":"http://terminology.hl7.org/CodeSystem/observation-category","code":"laboratory","display":"Laboratory"}]}],"code":{"coding":[{"system":"http://loinc.org","code":"49498-9"}]},"subject":{"reference":"Patient/8165708b-39d0-4dd1-9b15-9bc75975e3ca"},"effectiveDateTime":"2022-02-10T00:00:00+00:00","valueQuantity":{"value":9}},"request":{"method":"POST","url":"Observation"}},{"fullUrl":"Observation/29c51e3e-c389-4db9-a8ec-e53a03ac28a0","resource":{"resourceType":"Observation","id":"29c51e3e-c389-4db9-a8ec-e53a03ac28a0","meta":{"profile":["http://hl7.org/fhir/us/core/StructureDefinition/us-core-observation-lab"]},"status":"final","category":[{"coding":[{"system":"http://terminology.hl7.org/CodeSystem/observation-category","code":"laboratory","display":"Laboratory"}]}],"code":{"coding":[{"system":"http://loinc.org","code":"49498-9"}]},"subject":{"reference":"Patient/8165708b-39d0-4dd1-9b15-9bc75975e3ca"},"effectiveDateTime":"2022-05-29T00:00:00+00:00","valueQuantity":{"value":9.9}},"request":{"method":"POST","url":"Observation"}},{"fullUrl":"Observation/feb6ab07-2ed5-452e-9ad5-93bf59c6717c","resource":{"resourceType":"Observation","id":"feb6ab07-2ed5-452e-9ad5-93bf59c6717c","meta":{"profile":["http://hl7.org/fhir/us/core/StructureDefinition/us-core-bmi"]},"status":"final","category":[{"coding":[{"system":"http://terminology.hl7.org/CodeSystem/observation-category","code":"vital-signs","display":"Vital Signs"}]}],"code":{"coding":[{"system":"http://loinc.org","code":"39156-5"}]},"subject":{"reference":"Patient/8165708b-39d0-4dd1-9b15-9bc75975e3ca"},"effectiveDateTime":"2022-12-05T00:00:00+00:00","valueQuantity":{"value":26.5,"unit":"kg/m2","system":"http://unitsofmeasure.org","code":"kg/m2"}},"request":{"method":"POST","url":"Observation"}},{"fullUrl":"Observation/e552f7dd-431d-4ed2-bdd1-291f182736ee","resource":{"resourceType":"Observation","id":"e552f7dd-431d-4ed2-bdd1-291f182736ee","meta":{"profile":["http://hl7.org/fhir/us/core/StructureDefinition/us-core-head-circumference"]},"status":"final","category":[{"coding":[{"system":"http://terminology.hl7.org/CodeSystem/observation-category","code":"vital-signs","display":"Vital Signs"}]}],"code":{"coding":[{"system":"http://loinc.org","code":"9843-4"}]},"subject":{"reference":"Patient/8165708b-39d0-4dd1-9b15-9bc75975e3ca"},"effectiveDateTime":"2022-03-02T00:00:00+00:00","valueQuantity":{"value":3.3,"unit":"Inch","system":"http://unitsofmeasure.org","code":"[in_i]"}},"request":{"method":"POST","url":"Observation"}},{"fullUrl":"Observation/02c826f8-2ab5-4970-acf1-8f788fa51c89","resource":{"resourceType":"Observation","id":"02c826f8-2ab5-4970-acf1-8f788fa51c89","meta":{"profile":["http://hl7.org/fhir/us/core/StructureDefinition/us-core-body-height"]},"status":"final","category":[{"coding":[{"system":"http://terminology.hl7.org/CodeSystem/observation-category","code":"vital-signs","display":"Vital Signs"}]}],"code":{"coding":[{"system":"http://loinc.org","code":"8302-2"}]},"subject":{"reference":"Patient/8165708b-39d0-4dd1-9b15-9bc75975e3ca"},"effectiveDateTime":"2022-07-02T00:00:00+00:00","valueQuantity":{"value":83,"unit":"Inch","system":"http://unitsofmeasure.org","code":"[in_i]"}},"request":{"method":"POST","url":"Observation"}},{"fullUrl":"Observation/ed644aee-310d-4a4b-b650-22c4abd7dec0","resource":{"resourceType":"Observation","id":"ed644aee-310d-4a4b-b650-22c4abd7dec0","meta":{"profile":["http://hl7.org/fhir/us/core/StructureDefinition/us-core-body-height"]},"status":"final","category":[{"coding":[{"system":"http://terminology.hl7.org/CodeSystem/observation-category","code":"vital-signs","display":"Vital Signs"}]}],"code":{"coding":[{"system":"http://loinc.org","code":"8302-2"}]},"subject":{"reference":"Patient/8165708b-39d0-4dd1-9b15-9bc75975e3ca"},"effectiveDateTime":"2022-11-13T00:00:00+00:00","valueQuantity":{"value":78.4,"unit":"Inch","system":"http://unitsofmeasure.org","code":"[in_i]"}},"request":{"method":"POST","url":"Observation"}},{"fullUrl":"Observation/4aa2dc6b-5c4b-4e19-b669-bbc7b96df2e5","resource":{"resourceType":"Observation","id":"4aa2dc6b-5c4b-4e19-b669-bbc7b96df2e5","meta":{"profile":["http://hl7.org/fhir/us/core/StructureDefinition/us-core-body-weight"]},"status":"final","category":[{"coding":[{"system":"http://terminology.hl7.org/CodeSystem/observation-category","code":"vital-signs","display":"Vital Signs"}]}],"code":{"coding":[{"system":"http://loinc.org","code":"29463-7"}]},"subject":{"reference":"Patient/8165708b-39d0-4dd1-9b15-9bc75975e3ca"},"effectiveDateTime":"2022-05-25T00:00:00+00:00","valueQuantity":{"value":121.62,"unit":"kilogram","system":"http://unitsofmeasure.org","code":"kg"}},"request":{"method":"POST","url":"Observation"}},{"fullUrl":"Observation/e8ff6562-d7cf-4ff3-8357-9c051a775b2a","resource":{"resourceType":"Observation","id":"e8ff6562-d7cf-4ff3-8357-9c051a775b2a","meta":{"profile":["http://hl7.org/fhir/us/core/StructureDefinition/us-core-body-temperature"]},"status":"final","category":[{"coding":[{"system":"http://terminology.hl7.org/CodeSystem/observation-category","code":"vital-signs","display":"Vital Signs"}]}],"code":{"coding":[{"system":"http://loinc.org","code":"8310-5"}]},"subject":{"reference":"Patient/8165708b-39d0-4dd1-9b15-9bc75975e3ca"},"effectiveDateTime":"2022-12-01T00:00:00+00:00","valueQuantity":{"value":112.81,"unit":"Degrees Fahrenheit","system":"http://unitsofmeasure.org","code":"[degF]"}},"request":{"method":"POST","url":"Observation"}},{"fullUrl":"Observation/74b1e8b2-ef8e-4096-b880-70a25e946ea6","resource":{"resourceType":"Observation","id":"74b1e8b2-ef8e-4096-b880-70a25e946ea6","meta":{"profile":["http://hl7.org/fhir/us/core/StructureDefinition/us-core-body-temperature"]},"status":"final","category":[{"coding":[{"system":"http://terminology.hl7.org/CodeSystem/observation-category","code":"vital-signs","display":"Vital Signs"}]}],"code":{"coding":[{"system":"http://loinc.org","code":"8310-5"}]},"subject":{"reference":"Patient/8165708b-39d0-4dd1-9b15-9bc75975e3ca"},"effectiveDateTime":"2022-02-26T00:00:00+00:00","valueQuantity":{"value":43.16,"unit":"Degrees Fahrenheit","system":"http://unitsofmeasure.org","code":"[degF]"}},"request":{"method":"POST","url":"Observation"}},{"fullUrl":"Observation/4bb2952b-5ab5-4aed-96be-a7b7c227ade4","resource":{"resourceType":"Observation","id":"4bb2952b-5ab5-4aed-96be-a7b7c227ade4","meta":{"profile":["http://hl7.org/fhir/us/core/StructureDefinition/us-core-heart-rate"]},"status":"final","category":[{"coding":[{"system":"http://terminology.hl7.org/CodeSystem/observation-category","code":"vital-signs","display":"Vital Signs"}]}],"code":{"coding":[{"system":"http://loinc.org","code":"8867-4"}]},"subject":{"reference":"Patient/8165708b-39d0-4dd1-9b15-9bc75975e3ca"},"effectiveDateTime":"2022-09-12T00:00:00+00:00","valueQuantity":{"value":96.5,"unit":"Per Minute","system":"http://unitsofmeasure.org","code":"/min"}},"request":{"method":"POST","url":"Observation"}},{"fullUrl":"Observation/4483405b-c65a-4c54-8db6-63243b3a53f6","resource":{"resourceType":"Observation","id":"4483405b-c65a-4c54-8db6-63243b3a53f6","meta":{"profile":["http://hl7.org/fhir/us/core/StructureDefinition/us-core-heart-rate"]},"status":"final","category":[{"coding":[{"system":"http://terminology.hl7.org/CodeSystem/observation-category","code":"vital-signs","display":"Vital Signs"}]}],"code":{"coding":[{"system":"http://loinc.org","code":"8867-4"}]},"subject":{"reference":"Patient/8165708b-39d0-4dd1-9b15-9bc75975e3ca"},"effectiveDateTime":"2022-05-25T00:00:00+00:00","valueQuantity":{"value":99.8,"unit":"Per Minute","system":"http://unitsofmeasure.org","code":"/min"}},"request":{"method":"POST","url":"Observation"}},{"fullUrl":"Organization/d136de6b-7781-4309-81f5-0115ba757d1f","resource":{"resourceType":"Organization","id":"d136de6b-7781-4309-81f5-0115ba757d1f","meta":{"profile":["http://hl7.org/fhir/us/core/StructureDefinition/us-core-organization"]},"active":true,"name":"Glenn Inc","telecom":[{"system":"phone","value":"+1-749-193-6046x4817","use":"mobile"}],"address":[{"use":"work","line":["519 Matthew Road Suite 898"],"city":"North Erik","state":"KS","postalCode":"17485"}]},"request":{"method":"POST","url":"Organization"}},{"fullUrl":"Patient/463f7f67-ec13-4b24-a2a2-af43c6cfa852","resource":{"resourceType":"Patient","id":"463f7f67-ec13-4b24-a2a2-af43c6cfa852","meta":{"profile":["http://hl7.org/fhir/us/core/StructureDefinition/us-core-patient"]},"extension":[{"extension":[{"url":"ombCategory","valueCoding":{"system":"http://terminology.hl7.org/CodeSystem/v3-NullFlavor","code":"UNK","display":"unknown"}},{"url":"text","valueString":"unknown"}],"url":"http://hl7.org/fhir/us/core/StructureDefinition/us-core-race"},{"extension":[{"url":"ombCategory","valueCoding":{"system":"urn:oid:2.16.840.1.113883.6.238","code":"2135-2","display":"Hispanic or Latino"}},{"url":"text","valueString":"Hispanic or Latino"}],"url":"http://hl7.org/fhir/us/core/StructureDefinition/us-core-ethnicity"}],"identifier":[{"type":{"coding":[{"system":"http://terminology.hl7.org/CodeSystem/v2-0203","code":"MR"}]},"system":"urn:fhirgen:mrn","value":"052-59-2417"},{"system":"http://hl7.org/fhir/sid/us-ssn","value":"789-21-9245"}],"name":[{"use":"official","family":"Lee","given":["Dana"]},{"use":"maiden","family":"Bryan"}],"telecom":[{"system":"phone","value":"031.544.0685x391","use":"mobile"},{"system":"email","value":"zpope@hotmail.com","use":"mobile"}],"gender":"female","birthDate":"1960-03-11","address":[{"use":"home","line":["65141 Patrick Path Suite 644"],"city":"South Josephton","state":"DC","postalCode":"96746"},{"use":"old","line":["366 Perkins Skyway"],"city":"Kimberlymouth","state":"IA","postalCode":"43906"}],"maritalStatus":{"coding":[{"system":"http://terminology.hl7.org/CodeSystem/v3-MaritalStatus","code":"T","display":"Domestic partner"}]}},"request":{"method":"POST","url":"Patient"}},{"fullUrl":"Observation/7a13c569-52e3-4860-8872-73f625c72afa","resource":{"resourceType":"Observation","id":"7a13c569-52e3-4860-8872-73f625c72afa","meta":{"profile":["http://hl7.org/fhir/us/core/StructureDefinition/us-core-observation-lab"]},"status":"final","category":[{"coding":[{"system":"http://terminology.hl7.org/CodeSystem/observation-category","code":"laboratory","display":"Laboratory"}]}],"code":{"coding":[{"system":"http://loinc.org","code":"87925-4"}]},"subject":{"reference":"Patient/463f7f67-ec13-4b24-a2a2-af43c6cfa852"},"effectiveDateTime":"2022-10-16T00:00:00+00:00","valueRatio":{"numerator":{"value":1},"denominator":{"value":64}}},"request":{"method":"POST","url":"Observation"}},{"fullUrl":"Observation/75419f1f-49dc-4be8-9d08-880e58d9cec1","resource":{"resourceType":"Observation","id":"75419f1f-49dc-4be8-9d08-880e58d9cec1","meta":{"profile":["http://hl7.org/fhir/us/core/StructureDefinition/us-core-observation-lab"]},"status":"final","category":[{"coding":[{"system":"http://terminology.hl7.org/CodeSystem/observation-category","code":"laboratory","display":"Laboratory"}]}],"code":{"coding":[{"system":"http://loinc.org","code":"50695-6"}]},"subject":{"reference":"Patient/463f7f67-ec13-4b24-a2a2-af43c6cfa852"},"effectiveDateTime":"2022-01-13T00:00:00+00:00","valueRatio":{"numerator":{"value":1},"denominator":{"value":4}}},"request":{"method":"POST","url":"Observation"}},{"fullUrl":"Observation/81aab22e-7ee7-4b2a-8f26-bfead25259ae","resource":{"resourceType":"Observation","id":"81aab22e-7ee7-4b2a-8f26-bfead25259ae","meta":{"profile":["http://hl7.org/fhir/us/core/StructureDefinition/us-core-observation-lab"]},"status":"final","category":[{"coding":[{"system":"http://terminology.hl7.org/CodeSystem/observation-category","code":"laboratory","display":"Laboratory"}]}],"code":{"coding":[{"system":"http://loinc.org","code":"46203-6"}]},"subject":{"reference":"Patient/463f7f67-ec13-4b24-a2a2-af43c6cfa852"},"effectiveDateTime":"2022-11-26T00:00:00+00:00","valueRatio":{"numerator":{"value":1},"denominator":{"value":4}}},"request":{"method":"POST","url":"Observation"}},{"fullUrl":"Condition/d501a16f-f505-445c-818d-8c5cf7a90dd1","resource":{"resourceType":"Condition","id":"d501a16f-f505-445c-818d-8c5cf7a90dd1","meta":{"profile":["http://hl7.org/fhir/us/core/StructureDefinition/us-core-condition"]},"clinicalStatus":{"coding":[{"system":"http://terminology.hl7.org/CodeSystem/condition-clinical","code":"active","display":"Active"}]},"category":[{"coding":[{"system":"http://terminology.hl7.org/CodeSystem/condition-category","code":"problem-list-item"}]}],"code":{"coding":[{"system":"http://snomed.info/sct","code":"44882003"}]},"subject":{"reference":"Patient/463f7f67-ec13-4b24-a2a2-af43c6cfa852"},"onsetDateTime":"2022-02-04T00:00:00+00:00"},"request":{"method":"POST","url":"Condition"}},{"fullUrl":"Condition/bb50732b-7f2d-4fb0-bcb9-a06ddd89b2c7","resource":{"resourceType":"Condition","id":"bb50732b-7f2d-4fb0-bcb9-a06ddd89b2c7","meta":{"profile":["http://hl7.org/fhir/us/core/StructureDefinition/us-core-condition"]},"clinicalStatus":{"coding":[{"system":"http://terminology.hl7.org/CodeSystem/condition-clinical","code":"active","display":"Active"}]},"category":[{"coding":[{"system":"http://terminology.hl7.org/CodeSystem/condition-category","code":"problem-list-item"}]}],"code":{"coding":[{"system":"http://snomed.info/sct","code":"736686006"}]},"subject":{"reference":"Patient/463f7f67-ec13-4b24-a2a2-af43c6cfa852"},"onsetDateTime":"2022-08-17T00:00:00+00:00"},"request":{"method":"POST","url":"Condition"}},{"fullUrl":"Condition/b3d73a69-2625-41ef-8f7e-a72ab9cfbfd0","resource":{"resourceType":"Condition","id":"b3d73a69-2625-41ef-8f7e-a72ab9cfbfd0","meta":{"profile":["http://hl7.org/fhir/us/core/StructureDefinition/us-core-condition"]},"clinicalStatus":{"coding":[{"system":"http://terminology.hl7.org/CodeSystem/condition-clinical","code":"active","display":"Active"}]},"category":[{"coding":[{"system":"http://terminology.hl7.org/CodeSystem/condition-category","code":"problem-list-item"}]}],"code":{"coding":[{"system":"http://snomed.info/sct","code":"44882003"}]},"subject":{"reference":"Patient/463f7f67-ec13-4b24-a2a2-af43c6cfa852"},"onsetDateTime":"2022-10-05T00:00:00+00:00"},"request":{"method":"POST","url":"Condition"}},{"fullUrl":"Condition/1768809f-3c4a-4ad2-9de6-7869f70a903e","resource":{"resourceType":"Condition","id":"1768809f-3c4a-4ad2-9de6-7869f70a903e","meta":{"profile":["http://hl7.org/fhir/us/core/StructureDefinition/us-core-condition"]},"clinicalStatus":{"coding":[{"system":"http://terminology.hl7.org/CodeSystem/condition-clinical","code":"active","display":"Active"}]},"category":[{"coding":[{"system":"http://terminology.hl7.org/CodeSystem/condition-category","code":"problem-list-item"}]}],"code":{"coding":[{"system":"http://snomed.info/sct","code":"44882003"}]},"subject":{"reference":"Patient/463f7f67-ec13-4b24-a2a2-af43c6cfa852"},"onsetDateTime":"2022-11-06T00:00:00+00:00"},"request":{"method":"POST","url":"Condition"}},{"fullUrl":"Condition/ac6eb48c-85ce-4219-9d57-6c1054482780","resource":{"resourceType":"Condition","id":"ac6eb48c-85ce-4219-9d57-6c1054482780","meta":{"profile":["http://hl7.org/fhir/us/core/StructureDefinition/us-core-condition"]},"clinicalStatus":{"coding":[{"system":"http://terminology.hl7.org/CodeSystem/condition-clinical","code":"active","display":"Active"}]},"category":[{"coding":[{"system":"http://terminology.hl7.org/CodeSystem/condition-category","code":"problem-list-item"}]}],"code":{"coding":[{"system":"http://snomed.info/sct","code":"709977002"}]},"subject":{"reference":"Patient/463f7f67-ec13-4b24-a2a2-af43c6cfa852"},"onsetDateTime":"2022-11-20T00:00:00+00:00"},"request":{"method":"POST","url":"Condition"}},{"fullUrl":"Condition/e9247fa8-a3e8-4dc8-be60-2c3c16412a92","resource":{"resourceType":"Condition","id":"e9247fa8-a3e8-4dc8-be60-2c3c16412a92","meta":{"profile":["http://hl7.org/fhir/us/core/StructureDefinition/us-core-condition"]},"clinicalStatus":{"coding":[{"system":"http://terminology.hl7.org/CodeSystem/condition-clinical","code":"active","display":"Active"}]},"category":[{"coding":[{"system":"http://terminology.hl7.org/CodeSystem/condition-category","code":"problem-list-item"}]}],"code":{"coding":[{"system":"http://snomed.info/sct","code":"709977002"}]},"subject":{"reference":"Patient/463f7f67-ec13-4b24-a2a2-af43c6cfa852"},"onsetDateTime":"2022-11-08T00:00:00+00:00"},"request":{"method":"POST","url":"Condition"}},{"fullUrl":"Condition/02ce5269-4a5a-4330-aed5-10d378a96569","resource":{"resourceType":"Condition","id":"02ce5269-4a5a-4330-aed5-10d378a96569","meta":{"profile":["http://hl7.org/fhir/us/core/StructureDefinition/us-core-condition"]},"clinicalStatus":{"coding":[{"system":"http://terminology.hl7.org/CodeSystem/condition-clinical","code":"active","display":"Active"}]},"category":[{"coding":[{"system":"http://terminology.hl7.org/CodeSystem/condition-category","code":"problem-list-item"}]}],"code":{"coding":[{"system":"http://snomed.info/sct","code":"736686006"}]},"subject":{"reference":"Patient/463f7f67-ec13-4b24-a2a2-af43c6cfa852"},"onsetDateTime":"2022-01-29T00:00:00+00:00"},"request":{"method":"POST","url":"Condition"}},{"fullUrl":"Observation/c5eb9903-b9b6-44a8-901f-934981ee4161","resource":{"resourceType":"Observation","id":"c5eb9903-b9b6-44a8-901f-934981ee4161","meta":{"profile":["http://hl7.org/fhir/us/core/StructureDefinition/us-core-observation-lab"]},"status":"final","category":[{"coding":[{"system":"http://terminology.hl7.org/CodeSystem/observation-category","code":"laboratory","display":"Laboratory"}]}],"code":{"coding":[{"system":"http://loinc.org","code":"804-5"}]},"subject":{"reference":"Patient/463f7f67-ec13-4b24-a2a2-af43c6cfa852"},"effectiveDateTime":"2022-09-24T00:00:00+00:00","valueQuantity":{"value":5.2}},"request":{"method":"POST","url":"Observation"}},{"fullUrl":"Observation/ee22a68a-caeb-4953-83bc-58536a5e349d","resource":{"resourceType":"Observation","id":"ee22a68a-caeb-4953-83bc-58536a5e349d","meta":{"profile":["http://hl7.org/fhir/us/core/StructureDefinition/us-core-observation-lab"]},"status":"final","category":[{"coding":[{"system":"http://terminology.hl7.org/CodeSystem/observation-category","code":"laboratory","display":"Laboratory"}]}],"code":{"coding":[{"system":"http://loinc.org","code":"6690-2"}]},"subject":{"reference":"Patient/463f7f67-ec13-4b24-a2a2-af43c6cfa852"},"effectiveDateTime":"2022-09-10T00:00:00+00:00","valueQuantity":{"value":9.9}},"request":{"method":"POST","url":"Observation"}},{"fullUrl":"Observation/710b4b03-a2cf-4e3c-b4ca-f930adafd0d1","resource":{"resourceType":"Observation","id":"710b4b03-a2cf-4e3c-b4ca-f930adafd0d1","meta":{"profile":["http://hl7.org/fhir/us/core/StructureDefinition/us-core-observation-lab"]},"status":"final","category":[{"coding":[{"system":"http://terminology.hl7.org/CodeSystem/observation-category","code":"laboratory","display":"Laboratory"}]}],"code":{"coding":[{"system":"http://loinc.org","code":"26464-8"}]},"subject":{"reference":"Patient/463f7f67-ec13-4b24-a2a2-af43c6cfa852"},"effectiveDateTime":"2022-08-25T00:00:00+00:00","valueQuantity":{"value":6.8}},"request":{"method":"POST","url":"Observation"}},{"fullUrl":"Observation/99cd82bb-a1ee-46d2-9945-6ef66426697b","resource":{"resourceType":"Observation","id":"99cd82bb-a1ee-46d2-9945-6ef66426697b","meta":{"profile":["http://hl7.org/fhir/us/core/StructureDefinition/us-core-bmi"]},"status":"final","category":[{"coding":[{"system":"http://terminology.hl7.org/CodeSystem/observation-category","code":"vital-signs","display":"Vital Signs"}]}],"code":{"coding":[{"system":"http://loinc.org","code":"39156-5"}]},"subject":{"reference":"Patient/463f7f67-ec13-4b24-a2a2-af43c6cfa852"},"effectiveDateTime":"2022-01-10T00:00:00+00:00","valueQuantity":{"value":29.25,"unit":"kg/m2","system":"http://unitsofmeasure.org","code":"kg/m2"}},"request":{"method":"POST","url":"Observation"}},{"fullUrl":"Observation/2a3c07d7-2f86-4e29-92c1-b71857f6c3ec","resource":{"resourceType":"Observation","id":"2a3c07d7-2f86-4e29-92c1-b71857f6c3ec","meta":{"profile":["http://hl7.org/fhir/us/core/StructureDefinition/us-core-head-circumference"]},"status":"final","category":[{"coding":[{"system":"http://terminology.hl7.org/CodeSystem/observation-category","code":"vital-signs","display":"Vital Signs"}]}],"code":{"coding":[{"system":"http://loinc.org","code":"9843-4"}]},"subject":{"reference":"Patient/463f7f67-ec13-4b24-a2a2-af43c6cfa852"},"effectiveDateTime":"2022-05-18T00:00:00+00:00","valueQuantity":{"value":8,"unit":"Inch","system":"http://unitsofmeasure.org","code":"[in_i]"}},"request":{"method":"POST","url":"Observation"}},{"fullUrl":"Observation/c6922b00-45dc-450a-bd42-c9e356026744","resource":{"resourceType":"Observation","id":"c6922b00-45dc-450a-bd42-c9e356026744","meta":{"profile":["http://hl7.org/fhir/us/core/StructureDefinition/us-core-body-height"]},"status":"final","category":[{"coding":[{"system":"http://terminology.hl7.org/CodeSystem/observation-category","code":"vital-signs","display":"Vital Signs"}]}],"code":{"coding":[{"system":"http://loinc.org","code":"8302-2"}]},"subject":{"reference":"Patient/463f7f67-ec13-4b24-a2a2-af43c6cfa852"},"effectiveDateTime":"2022-04-04T00:00:00+00:00","valueQuantity":{"value":76.1,"unit":"Inch","system":"http://unitsofmeasure.org","code":"[in_i]"}},"request":{"method":"POST","url":"Observation"}},{"fullUrl":"Observation/9a9411cf-1345-4f2a-839f-53c30579a649","resource":{"resourceType":"Observation","id":"9a9411cf-1345-4f2a-839f-53c30579a649","meta":{"profile":["http://hl7.org/fhir/us/core/StructureDefinition/us-core-body-weight"]},"status":"final","category":[{"coding":[{"system":"http://terminology.hl7.org/CodeSystem/observation-category","code":"vital-signs","display":"Vital Signs"}]}],"code":{"coding":[{"system":"http://loinc.org","code":"29463-7"}]},"subject":{"reference":"Patient/463f7f67-ec13-4b24-a2a2-af43c6cfa852"},"effectiveDateTime":"2022-07-18T00:00:00+00:00","valueQuantity":{"value":37.25,"unit":"kilogram","system":"http://unitsofmeasure.org","code":"kg"}},"request":{"method":"POST","url":"Observation"}},{"fullUrl":"Observation/9b924fcf-ed49-42bd-950c-7c3f4da9b25e","resource":{"resourceType":"Observation","id":"9b924fcf-ed49-42bd-950c-7c3f4da9b25e","meta":{"profile":["http://hl7.org/fhir/us/core/StructureDefinition/us-core-body-temperature"]},"status":"final","category":[{"coding":[{"system":"http://terminology.hl7.org/CodeSystem/observation-category","code":"vital-signs","display":"Vital Signs"}]}],"code":{"coding":[{"system":"http://loinc.org","code":"8310-5"}]},"subject":{"reference":"Patient/463f7f67-ec13-4b24-a2a2-af43c6cfa852"},"effectiveDateTime":"2022-07-03T00:00:00+00:00","valueQuantity":{"value":43.93,"unit":"Degrees Fahrenheit","system":"http://unitsofmeasure.org","code":"[degF]"}},"request":{"method":"POST","url":"Observation"}},{"fullUrl":"Observation/2c9334b2-9ada-421b-b98b-c9adbca6e8a6","resource":{"resourceType":"Observation","id":"2c9334b2-9ada-421b-b98b-c9adbca6e8a6","meta":{"profile":["http://hl7.org/fhir/us/core/StructureDefinition/us-core-body-temperature"]},"status":"final","category":[{"coding":[{"system":"http://terminology.hl7.org/CodeSystem/observation-category","code":"vital-signs","display":"Vital Signs"}]}],"code":{"coding":[{"system":"http://loinc.org","code":"8310-5"}]},"subject":{"reference":"Patient/463f7f67-ec13-4b24-a2a2-af43c6cfa852"},"effectiveDateTime":"2022-04-24T00:00:00+00:00","valueQuantity":{"value":67.65,"unit":"Degrees Fahrenheit","system":"http://unitsofmeasure.org","code":"[degF]"}},"request":{"method":"POST","url":"Observation"}},{"fullUrl":"Observation/13e156cd-8e47-4f23-80dc-425e12427c44","resource":{"resourceType":"Observation","id":"13e156cd-8e47-4f23-80dc-425e12427c44","meta":{"profile":["http://hl7.org/fhir/us/core/StructureDefinition/us-core-heart-rate"]},"status":"final","category":[{"coding":[{"system":"http://terminology.hl7.org/CodeSystem/observation-category","code":"vital-signs","display":"Vital Signs"}]}],"code":{"coding":[{"system":"http://loinc.org","code":"8867-4"}]},"subject":{"reference":"Patient/463f7f67-ec13-4b24-a2a2-af43c6cfa852"},"effectiveDateTime":"2022-07-07T00:00:00+00:00","valueQuantity":{"value":96.3,"unit":"Per Minute","system":"http://unitsofmeasure.org","code":"/min"}},"request":{"method":"POST","url":"Observation"}},{"fullUrl":"Observation/12616dcf-7042-4bd5-a133-69ff9bf0eba3","resource":{"resourceType":"Observation","id":"12616dcf-7042-4bd5-a133-69ff9bf0eba3","meta":{"profile":["http://hl7.org/fhir/us/core/StructureDefinition/us-core-heart-rate"]},"status":"final","category":[{"coding":[{"system":"http://terminology.hl7.org/CodeSystem/observation-category","code":"vital-signs","display":"Vital Signs"}]}],"code":{"coding":[{"system":"http://loinc.org","code":"8867-4"}]},"subject":{"reference":"Patient/463f7f67-ec13-4b24-a2a2-af43c6cfa852"},"effectiveDateTime":"2022-07-17T00:00:00+00:00","valueQuantity":{"value":97.4,"unit":"Per Minute","system":"http://unitsofmeasure.org","code":"/min"}},"request":{"method":"POST","url":"Observation"}},{"fullUrl":"Organization/e72f418d-49c3-45b6-8d38-c747ceab8588","resource":{"resourceType":"Organization","id":"e72f418d-49c3-45b6-8d38-c747ceab8588","meta":{"profile":["http://hl7.org/fhir/us/core/StructureDefinition/us-core-organization"]},"active":true,"name":"Cooper, Lynch and Ford","telecom":[{"system":"phone","value":"(238)972-1328","use":"work"}],"address":[{"use":"work","line":["026 Nancy Plains Suite 761"],"city":"South Kevinbury","state":"KS","postalCode":"03265"}]},"request":{"method":"POST","url":"Organization"}},{"fullUrl":"Patient/72a9fba3-41fa-4842-a118-1ac2483292cc","resource":{"resourceType":"Patient","id":"72a9fba3-41fa-4842-a118-1ac2483292cc","meta":{"profile":["http://hl7.org/fhir/us/core/StructureDefinition/us-core-patient"]},"extension":[{"extension":[{"url":"ombCategory","valueCoding":{"system":"urn:oid:2.16.840.1.113883.6.238","code":"2106-3","display":"White"}},{"url":"text","valueString":"White"}],"url":"http://hl7.org/fhir/us/core/StructureDefinition/us-core-race"},{"extension":[{"url":"ombCategory","valueCoding":{"system":"urn:oid:2.16.840.1.113883.6.238","code":"2186-5","display":"Not Hispanic or Latino"}},{"url":"text","valueString":"Not Hispanic or Latino"}],"url":"http://hl7.org/fhir/us/core/StructureDefinition/us-core-ethnicity"}],"identifier":[{"type":{"coding":[{"system":"http://terminology.hl7.org/CodeSystem/v2-0203","code":"MR"}]},"system":"urn:fhirgen:mrn","value":"487-50-3524"},{"system":"http://hl7.org/fhir/sid/us-ssn","value":"493-34-5451"}],"name":[{"use":"official","family":"Dalton","given":["Alexis"]},{"use":"maiden","family":"Wood"}],"telecom":[{"system":"phone","value":"(519)709-5741x1109","use":"work"},{"system":"email","value":"johnwagner@yahoo.com","use":"work"}],"gender":"other","birthDate":"1982-11-25","address":[{"use":"home","line":["91893 Lopez Fork Suite 325"],"city":"Lake Kimberlyton","state":"CT","postalCode":"73275"},{"use":"old","line":["0952 Kyle Meadow Apt. 985"],"city":"Anthonyside","state":"NY","postalCode":"67056"}],"maritalStatus":{"coding":[{"system":"http://terminology.hl7.org/CodeSystem/v3-MaritalStatus","code":"W","display":"Widowed"}]}},"request":{"method":"POST","url":"Patient"}},{"fullUrl":"Observation/1b49aee2-9ca1-4ee7-8728-936d514b639b","resource":{"resourceType":"Observation","id":"1b49aee2-9ca1-4ee7-8728-936d514b639b","meta":{"profile":["http://hl7.org/fhir/us/core/StructureDefinition/us-core-observation-lab"]},"status":"final","category":[{"coding":[{"system":"http://terminology.hl7.org/CodeSystem/observation-category","code":"laboratory","display":"Laboratory"}]}],"code":{"coding":[{"system":"http://loinc.org","code":"87925-4"}]},"subject":{"reference":"Patient/72a9fba3-41fa-4842-a118-1ac2483292cc"},"effectiveDateTime":"2022-03-27T00:00:00+00:00","valueRatio":{"numerator":{"value":1},"denominator":{"value":4}}},"request":{"method":"POST","url":"Observation"}},{"fullUrl":"Observation/acaac562-4539-4c9f-9935-796482d1d8a0","resource":{"resourceType":"Observation","id":"acaac562-4539-4c9f-9935-796482d1d8a0","meta":{"profile":["http://hl7.org/fhir/us/core/StructureDefinition/us-core-observation-lab"]},"status":"final","category":[{"coding":[{"system":"http://terminology.hl7.org/CodeSystem/observation-category","code":"laboratory","display":"Laboratory"}]}],"code":{"coding":[{"system":"http://loinc.org","code":"11084-1"}]},"subject":{"reference":"Patient/72a9fba3-41fa-4842-a118-1ac2483292cc"},"effectiveDateTime":"2022-05-28T00:00:00+00:00","valueRatio":{"numerator":{"value":1},"denominator":{"value":64}}},"request":{"method":"POST","url":"Observation"}},{"fullUrl":"Observation/38c07193-f08a-464f-a940-d0b2d08c3af2","resource":{"resourceType":"Observation","id":"38c07193-f08a-464f-a940-d0b2d08c3af2","meta":{"profile":["http://hl7.org/fhir/us/core/StructureDefinition/us-core-observation-lab"]},"status":"final","category":[{"coding":[{"system":"http://terminology.hl7.org/CodeSystem/observation-category","code":"laboratory","display":"Laboratory"}]}],"code":{"coding":[{"system":"http://loinc.org","code":"31146-4"}]},"subject":{"reference":"Patient/72a9fba3-41fa-4842-a118-1ac2483292cc"},"effectiveDateTime":"2022-04-11T00:00:00+00:00","valueRatio":{"numerator":{"value":1},"denominator":{"value":32}}},"request":{"method":"POST","url":"Observation"}},{"fullUrl":"Condition/e0a55733-0782-430b-b3a0-b294e8877987","resource":{"resourceType":"Condition","id":"e0a55733-0782-430b-b3a0-b294e8877987","meta":{"profile":["http://hl7.org/fhir/us/core/StructureDefinition/us-core-condition"]},"clinicalStatus":{"coding":[{"system":"http://terminology.hl7.org/CodeSystem/condition-clinical","code":"active","display":"Active"}]},"category":[{"coding":[{"system":"http://terminology.hl7.org/CodeSystem/condition-category","code":"problem-list-item"}]}],"code":{"coding":[{"system":"http://snomed.info/sct","code":"44882003"}]},"subject":{"reference":"Patient/72a9fba3-41fa-4842-a118-1ac2483292cc"},"onsetDateTime":"2022-08-12T00:00:00+00:00"},"request":{"method":"POST","url":"Condition"}},{"fullUrl":"Condition/d17f506a-0d5d-4515-9cc8-f303ee3f0e8a","resource":{"resourceType":"Condition","id":"d17f506a-0d5d-4515-9cc8-f303ee3f0e8a","meta":{"profile":["http://hl7.org/fhir/us/core/StructureDefinition/us-core-condition"]},"clinicalStatus":{"coding":[{"system":"http://terminology.hl7.org/CodeSystem/condition-clinical","code":"active","display":"Active"}]},"category":[{"coding":[{"system":"http://terminology.hl7.org/CodeSystem/condition-category","code":"problem-list-item"}]}],"code":{"coding":[{"system":"http://snomed.info/sct","code":"44882003"}]},"subject":{"reference":"Patient/72a9fba3-41fa-4842-a118-1ac2483292cc"},"onsetDateTime":"2022-09-11T00:00:00+00:00"},"request":{"method":"POST","url":"Condition"}},{"fullUrl":"Condition/17db23fa-3de6-4a1a-8b65-a6dcacf83057","resource":{"resourceType":"Condition","id":"17db23fa-3de6-4a1a-8b65-a6dcacf83057","meta":{"profile":["http://hl7.org/fhir/us/core/StructureDefinition/us-core-condition"]},"clinicalStatus":{"coding":[{"system":"http://terminology.hl7.org/CodeSystem/condition-clinical","code":"active","display":"Active"}]},"category":[{"coding":[{"system":"http://terminology.hl7.org/CodeSystem/condition-category","code":"problem-list-item"}]}],"code":{"coding":[{"system":"http://snomed.info/sct","code":"709977002"}]},"subject":{"reference":"Patient/72a9fba3-41fa-4842-a118-1ac2483292cc"},"onsetDateTime":"2022-02-20T00:00:00+00:00"},"request":{"method":"POST","url":"Condition"}},{"fullUrl":"Observation/9735e0dc-650b-4aaa-a272-e4070d4f778d","resource":{"resourceType":"Observation","id":"9735e0dc-650b-4aaa-a272-e4070d4f778d","meta":{"profile":["http://hl7.org/fhir/us/core/StructureDefinition/us-core-observation-lab"]},"status":"final","category":[{"coding":[{"system":"http://terminology.hl7.org/CodeSystem/observation-category","code":"laboratory","display":"Laboratory"}]}],"code":{"coding":[{"system":"http://loinc.org","code":"49498-9"}]},"subject":{"reference":"Patient/72a9fba3-41fa-4842-a118-1ac2483292cc"},"effectiveDateTime":"2022-03-07T00:00:00+00:00","valueQuantity":{"value":11}},"request":{"method":"POST","url":"Observation"}},{"fullUrl":"Observation/1efb6339-8be5-4537-b092-efb270c134d1","resource":{"resourceType":"Observation","id":"1efb6339-8be5-4537-b092-efb270c134d1","meta":{"profile":["http://hl7.org/fhir/us/core/StructureDefinition/us-core-observation-lab"]},"status":"final","category":[{"coding":[{"system":"http://terminology.hl7.org/CodeSystem/observation-category","code":"laboratory","display":"Laboratory"}]}],"code":{"coding":[{"system":"http://loinc.org","code":"26464-8"}]},"subject":{"reference":"Patient/72a9fba3-41fa-4842-a118-1ac2483292cc"},"effectiveDateTime":"2022-10-13T00:00:00+00:00","valueQuantity":{"value":4.6}},"request":{"method":"POST","url":"Observation"}},{"fullUrl":"Observation/0b163677-6509-41e5-9fd4-46fa49e6130f","resource":{"resourceType":"Observation","id":"0b163677-6509-41e5-9fd4-46fa49e6130f","meta":{"profile":["http://hl7.org/fhir/us/core/StructureDefinition/us-core-observation-lab"]},"status":"final","category":[{"coding":[{"system":"http://terminology.hl7.org/CodeSystem/observation-category","code":"laboratory","display":"Laboratory"}]}],"code":{"coding":[{"system":"http://loinc.org","code":"804-5"}]},"subject":{"reference":"Patient/72a9fba3-41fa-4842-a118-1ac2483292cc"},"effectiveDateTime":"2022-06-20T00:00:00+00:00","valueQuantity":{"value":6.9}},"request":{"method":"POST","url":"Observation"}},{"fullUrl":"Observation/1e589e50-f7e9-48bc-99de-7d5f518b6fc0","resource":{"resourceType":"Observation","id":"1e589e50-f7e9-48bc-99de-7d5f518b6fc0","meta":{"profile":["http://hl7.org/fhir/us/core/StructureDefinition/us-core-bmi"]},"status":"final","category":[{"coding":[{"system":"http://terminology.hl7.org/CodeSystem/observation-category","code":"vital-signs","display":"Vital Signs"}]}],"code":{"coding":[{"system":"http://loinc.org","code":"39156-5"}]},"subject":{"reference":"Patient/72a9fba3-41fa-4842-a118-1ac2483292cc"},"effectiveDateTime":"2022-10-18T00:00:00+00:00","valueQuantity":{"value":12.57,"unit":"kg/m2","system":"http://unitsofmeasure.org","code":"kg/m2"}},"request":{"method":"POST","url":"Observation"}},{"fullUrl":"Observation/df479daf-32b7-4354-b9b6-2ca1e6dbfdc4","resource":{"resourceType":"Observation","id":"df479daf-32b7-4354-b9b6-2ca1e6dbfdc4","meta":{"profile":["http://hl7.org/fhir/us/core/StructureDefinition/us-core-head-circumference"]},"status":"final","category":[{"coding":[{"system":"http://terminology.hl7.org/CodeSystem/observation-category","code":"vital-signs","display":"Vital Signs"}]}],"code":{"coding":[{"system":"http://loinc.org","code":"9843-4"}]},"subject":{"reference":"Patient/72a9fba3-41fa-4842-a118-1ac2483292cc"},"effectiveDateTime":"2022-04-29T00:00:00+00:00","valueQuantity":{"value":9.8,"unit":"Inch","system":"http://unitsofmeasure.org","code":"[in_i]"}},"request":{"method":"POST","url":"Observation"}},{"fullUrl":"Observation/1f2340ee-895f-462e-a1b7-b3cbae8b8754","resource":{"resourceType":"Observation","id":"1f2340ee-895f-462e-a1b7-b3cbae8b8754","meta":{"profile":["http://hl7.org/fhir/us/core/StructureDefinition/us-core-body-height"]},"status":"final","category":[{"coding":[{"system":"http://terminology.hl7.org/CodeSystem/observation-category","code":"vital-signs","display":"Vital Signs"}]}],"code":{"coding":[{"system":"http://loinc.org","code":"8302-2"}]},"subject":{"reference":"Patient/72a9fba3-41fa-4842-a118-1ac2483292cc"},"effectiveDateTime":"2022-07-15T00:00:00+00:00","valueQuantity":{"value":69.5,"unit":"Inch","system":"http://unitsofmeasure.org","code":"[in_i]"}},"request":{"method":"POST","url":"Observation"}},{"fullUrl":"Observation/fabc24a7-fdab-41af-bbe5-98051abc5d8e","resource":{"resourceType":"Observation","id":"fabc24a7-fdab-41af-bbe5-98051abc5d8e","meta":{"profile":["http://hl7.org/fhir/us/core/StructureDefinition/us-core-body-weight"]},"status":"final","category":[{"coding":[{"system":"http://terminology.hl7.org/CodeSystem/observation-category","code":"vital-signs","display":"Vital Signs"}]}],"code":{"coding":[{"system":"http://loinc.org","code":"29463-7"}]},"subject":{"reference":"Patient/72a9fba3-41fa-4842-a118-1ac2483292cc"},"effectiveDateTime":"2022-05-02T00:00:00+00:00","valueQuantity":{"value":102.6,"unit":"kilogram","system":"http://unitsofmeasure.org","code":"kg"}},"request":{"method":"POST","url":"Observation"}},{"fullUrl":"Observation/a64b5cc5-bfab-434d-85e7-b4a32f3bcefb","resource":{"resourceType":"Observation","id":"a64b5cc5-bfab-434d-85e7-b4a32f3bcefb","meta":{"profile":["http://hl7.org/fhir/us/core/StructureDefinition/us-core-body-temperature"]},"status":"final","category":[{"coding":[{"system":"http://terminology.hl7.org/CodeSystem/observation-category","code":"vital-signs","display":"Vital Signs"}]}],"code":{"coding":[{"system":"http://loinc.org","code":"8310-5"}]},"subject":{"reference":"Patient/72a9fba3-41fa-4842-a118-1ac2483292cc"},"effectiveDateTime":"2022-01-13T00:00:00+00:00","valueQuantity":{"value":51.44,"unit":"Degrees Fahrenheit","system":"http://unitsofmeasure.org","code":"[degF]"}},"request":{"method":"POST","url":"Observation"}},{"fullUrl":"Observation/4a45b80e-2c43-4a28-b3ef-91ffbc9ffa33","resource":{"resourceType":"Observation","id":"4a45b80e-2c43-4a28-b3ef-91ffbc9ffa33","meta":{"profile":["http://hl7.org/fhir/us/core/StructureDefinition/us-core-body-temperature"]},"status":"final","category":[{"coding":[{"system":"http://terminology.hl7.org/CodeSystem/observation-category","code":"vital-signs","display":"Vital Signs"}]}],"code":{"coding":[{"system":"http://loinc.org","code":"8310-5"}]},"subject":{"reference":"Patient/72a9fba3-41fa-4842-a118-1ac2483292cc"},"effectiveDateTime":"2022-01-31T00:00:00+00:00","valueQuantity":{"value":80.74,"unit":"Degrees Fahrenheit","system":"http://unitsofmeasure.org","code":"[degF]"}},"request":{"method":"POST","url":"Observation"}},{"fullUrl":"Observation/a833997d-8342-4fc0-b12d-3492695aa887","resource":{"resourceType":"Observation","id":"a833997d-8342-4fc0-b12d-3492695aa887","meta":{"profile":["http://hl7.org/fhir/us/core/StructureDefinition/us-core-heart-rate"]},"status":"final","category":[{"coding":[{"system":"http://terminology.hl7.org/CodeSystem/observation-category","code":"vital-signs","display":"Vital Signs"}]}],"code":{"coding":[{"system":"http://loinc.org","code":"8867-4"}]},"subject":{"reference":"Patient/72a9fba3-41fa-4842-a118-1ac2483292cc"},"effectiveDateTime":"2022-04-18T00:00:00+00:00","valueQuantity":{"value":97.6,"unit":"Per Minute","system":"http://unitsofmeasure.org","code":"/min"}},"request":{"method":"POST","url":"Observation"}},{"fullUrl":"Organization/74a376d6-1604-49b3-bb80-8871202802a8","resource":{"resourceType":"Organization","id":"74a376d6-1604-49b3-bb80-8871202802a8","meta":{"profile":["http://hl7.org/fhir/us/core/StructureDefinition/us-core-organization"]},"active":true,"name":"Vaughn, Johnson and Frost","telecom":[{"system":"phone","value":"149.981.7981x1071","use":"work"}],"address":[{"use":"work","line":["65043 Valerie Dam Suite 240"],"city":"New Reginaldchester","state":"MI","postalCode":"08635"}]},"request":{"method":"POST","url":"Organization"}}]}