{"resourceType":"Bundle","id":"bf33df2b-4012-4f72-b53e-5a021a2758f7","type":"transaction","entry":[{"fullUrl":"Patient/883690de-c54b-4c33-9f47-6454722118bc","resource":{"resourceType":"Patient","id":"883690de-c54b-4c33-9f47-6454722118bc","identifier":[{"type":{"coding":[{"system":"http://terminology.hl7.org/CodeSystem/v2-0203","code":"MR"}]},"system":"urn:fhirgen:mrn","value":"411-46-5589"}],"name":[{"family":"Smith","given":["Justin"]}],"gender":"male","birthDate":"1987-10-12","address":[{"line":["297 Edward Place"],"city":"Kingtown","state":"Wisconsin"}]},"request":{"method":"POST","url":"Patient"}},{"fullUrl":"Observation/9239360d-4f38-4d20-88e3-0f0948ae881f","resource":{"resourceType":"Observation","id":"9239360d-4f38-4d20-88e3-0f0948ae881f","status":"final","code":{"coding":[{"system":"http://loinc.org","code":"87925-4"}]},"subject":{"reference":"Patient/883690de-c54b-4c33-9f47-6454722118bc"},"effectiveDateTime":"2022-08-07T00:00:00+00:00","valueRatio":{"numerator":{"value":1.0},"denominator":{"value":4.0}}},"request":{"method":"POST","url":"Observation"}},{"fullUrl":"Observation/bb34210d-0b1d-4b44-ab9e-143ea2fefa2a","resource":{"resourceType":"Observation","id":"bb34210d-0b1d-4b44-ab9e-143ea2fefa2a","status":"final","code":{"coding":[{"system":"http://loinc.org","code":"46203-6"}]},"subject":{"reference":"Patient/883690de-c54b-4c33-9f47-6454722118bc"},"effectiveDateTime":"2022-03-23T00:00:00+00:00","valueRatio":{"numerator":{"value":1.0},"denominator":{"value":4.0}}},"request":{"method":"POST","url":"Observation"}},{"fullUrl":"Condition/d4f324ce-a2e4-4563-aed4-a57950fdc75f","resource":{"resourceType":"Condition","id":"d4f324ce-a2e4-4563-aed4-a57950fdc75f","code":{"coding":[{"system":"http://snomed.info/sct","code":"386661006"}]},"subject":{"reference":"Patient/883690de-c54b-4c33-9f47-6454722118bc"},"onsetDateTime":"2022-09-10T00:00:00+00:00"},"request":{"method":"POST","url":"Condition"}},{"fullUrl":"Condition/24ff9ccf-7453-47bb-a3ae-88387105960b","resource":{"resourceType":"Condition","id":"24ff9ccf-7453-47bb-a3ae-88387105960b","code":{"coding":[{"system":"http://snomed.info/sct","code":"248980004"}]},"subject":{"reference":"Patient/883690de-c54b-4c33-9f47-6454722118bc"},"onsetDateTime":"2022-01-15T00:00:00+00:00"},"request":{"method":"POST","url":"Condition"}},{"fullUrl":"Condition/72f2fee4-fb35-495a-8e27-f212393ac36f","resource":{"resourceType":"Condition","id":"72f2fee4-fb35-495a-8e27-f212393ac36f","code":{"coding":[{"system":"http://snomed.info/sct","code":"18165001"}]},"subject":{"reference":"Patient/883690de-c54b-4c33-9f47-6454722118bc"},"onsetDateTime":"2022-09-10T00:00:00+00:00"},"request":{"method":"POST","url":"Condition"}},{"fullUrl":"Condition/4fa9d088-1336-4046-a30e-a17e7be39f14","resource":{"resourceType":"Condition","id":"4fa9d088-1336-4046-a30e-a17e7be39f14","code":{"coding":[{"system":"http://snomed.info/sct","code":"56317004"}]},"subject":{"reference":"Patient/883690de-c54b-4c33-9f47-6454722118bc"},"onsetDateTime":"2022-07-22T00:00:00+00:00"},"request":{"method":"POST","url":"Condition"}},{"fullUrl":"Condition/c7bee23f-c7c0-449f-8dc5-d05d40cda0f2","resource":{"resourceType":"Condition","id":"c7bee23f-c7c0-449f-8dc5-d05d40cda0f2","code":{"coding":[{"system":"http://snomed.info/sct","code":"418290006"}]},"subject":{"reference":"Patient/883690de-c54b-4c33-9f47-6454722118bc"},"onsetDateTime":"2022-05-08T00:00:00+00:00"},"request":{"method":"POST","url":"Condition"}},{"fullUrl":"Condition/48ff0685-714b-4287-aed9-5bf95f0f1431","resource":{"resourceType":"Condition","id":"48ff0685-714b-4287-aed9-5bf95f0f1431","code":{"coding":[{"system":"http://snomed.info/sct","code":"709977002"}]},"subject":{"reference":"Patient/883690de-c54b-4c33-9f47-6454722118bc"},"onsetDateTime":"2022-06-12T00:00:00+00:00"},"request":{"method":"POST","url":"Condition"}},{"fullUrl":"Condition/e5db317f-53cf-458e-9e2b-fe81c98af8d9","resource":{"resourceType":"Condition","id":"e5db317f-53cf-458e-9e2b-fe81c98af8d9","code":{"coding":[{"system":"http://snomed.info/sct","code":"386661006"}]},"subject":{"reference":"Patient/883690de-c54b-4c33-9f47-6454722118bc"},"onsetDateTime":"2022-03-30T00:00:00+00:00"},"request":{"method":"POST","url":"Condition"}},{"fullUrl":"Observation/a2624086-3662-459c-b985-5d0a4582479c","resource":{"resourceType":"Observation","id":"a2624086-3662-459c-b985-5d0a4582479c","status":"final","code":{"coding":[{"system":"http://loinc.org","code":"6690-2"}]},"subject":{"reference":"Patient/883690de-c54b-4c33-9f47-6454722118bc"},"effectiveDateTime":"2022-05-06T00:00:00+00:00","valueQuantity":{"value":7.9}},"request":{"method":"POST","url":"Observation"}},{"fullUrl":"Observation/c1b27c52-2b54-42f0-b076-3a3bae04a0ac","resource":{"resourceType":"Observation","id":"c1b27c52-2b54-42f0-b076-3a3bae04a0ac","status":"final","code":{"coding":[{"system":"http://loinc.org","code":"49498-9"}]},"subject":{"reference":"Patient/883690de-c54b-4c33-9f47-6454722118bc"},"effectiveDateTime":"2022-03-14T00:00:00+00:00","valueQuantity":{"value":10.4}},"request":{"method":"POST","url":"Observation"}},{"fullUrl":"Observation/99c6a76c-11ed-42d1-91c7-5e1019e73e86","resource":{"resourceType":"Observation","id":"99c6a76c-11ed-42d1-91c7-5e1019e73e86","status":"final","code":{"coding":[{"system":"http://www.ama-assn.org/go/cpt","code":"85048"}]},"subject":{"reference":"Patient/883690de-c54b-4c33-9f47-6454722118bc"},"effectiveDateTime":"2022-03-14T00:00:00+00:00","valueQuantity":{"value":7.1}},"request":{"method":"POST","url":"Observation"}},{"fullUrl":"Procedure/41bc1398-ff9e-4bab-80e9-2f9100827f27","resource":{"resourceType":"Procedure","id":"41bc1398-ff9e-4bab-80e9-2f9100827f27","status":"completed","code":{"coding":[{"system":"http://snomed.info/sct","code":"189009"}]},"subject":{"reference":"Patient/883690de-c54b-4c33-9f47-6454722118bc"},"performedDateTime":"2022-09-21T00:00:00+00:00"},"request":{"method":"POST","url":"Procedure"}},{"fullUrl":"Procedure/0bf4d5bf-05e6-4214-af06-e6647ee216fc","resource":{"resourceType":"Procedure","id":"0bf4d5bf-05e6-4214-af06-e6647ee216fc","status":"completed","code":{"coding":[{"system":"http://snomed.info/sct","code":"146005"}]},"subject":{"reference":"Patient/883690de-c54b-4c33-9f47-6454722118bc"},"performedDateTime":"2022-03-28T00:00:00+00:00"},"request":{"method":"POST","url":"Procedure"}},{"fullUrl":"Procedure/a3932e04-9292-4327-a07c-0fad5b99742a","resource":{"resourceType":"Procedure","id":"a3932e04-9292-4327-a07c-0fad5b99742a","status":"completed","code":{"coding":[{"system":"http://snomed.info/sct","code":"104001"}]},"subject":{"reference":"Patient/883690de-c54b-4c33-9f47-6454722118bc"},"performedDateTime":"2022-02-18T00:00:00+00:00"},"request":{"method":"POST","url":"Procedure"}},{"fullUrl":"MedicationStatement/a1146163-bdc3-4cf4-bab3-af0c4597125d","resource":{"resourceType":"MedicationStatement","id":"a1146163-bdc3-4cf4-bab3-af0c4597125d","status":"completed","medicationCodeableConcept":{"coding":[{"system":"http://www.nlm.nih.gov/research/umls/rxnorm","code":"7984"}]},"subject":{"reference":"Patient/883690de-c54b-4c33-9f47-6454722118bc"},"effectiveDateTime":"2022-06-05T00:00:00+00:00","dosage":[{"doseAndRate":[{"doseQuantity":{"value":2.0,"unit":"TAB","system":"http://terminology.hl7.org/CodeSystem/v3-orderableDrugForm","code":"TAB"}}]}]},"request":{"method":"POST","url":"MedicationStatement"}},{"fullUrl":"MedicationStatement/a6e0099c-f2a0-4bb8-9a08-f73667ccd3cd","resource":{"resourceType":"MedicationStatement","id":"a6e0099c-f2a0-4bb8-9a08-f73667ccd3cd","status":"completed","medicationCodeableConcept":{"coding":[{"system":"http://www.nlm.nih.gov/research/umls/rxnorm","code":"3640"}]},"subject":{"reference":"Patient/883690de-c54b-4c33-9f47-6454722118bc"},"effectiveDateTime":"2022-04-11T00:00:00+00:00","dosage":[{"doseAndRate":[{"doseQuantity":{"value":2.0,"unit":"TAB","system":"http://terminology.hl7.org/CodeSystem/v3-orderableDrugForm","code":"TAB"}}]}]},"request":{"method":"POST","url":"MedicationStatement"}},{"fullUrl":"MedicationStatement/ef8181ae-b063-4958-9553-3d8453f28803","resource":{"resourceType":"MedicationStatement","id":"ef8181ae-b063-4958-9553-3d8453f28803","status":"completed","medicationCodeableConcept":{"coding":[{"system":"http://www.nlm.nih.gov/research/umls/rxnorm","code":"18631"}]},"subject":{"reference":"Patient/883690de-c54b-4c33-9f47-6454722118bc"},"effectiveDateTime":"2022-02-13T00:00:00+00:00","dosage":[{"doseAndRate":[{"doseQuantity":{"value":1.0,"unit":"TAB","system":"http://terminology.hl7.org/CodeSystem/v3-orderableDrugForm","code":"TAB"}}]}]},"request":{"method":"POST","url":"MedicationStatement"}},{"fullUrl":"MedicationStatement/0d358cb5-c8fc-4073-88db-c42ec29e43e3","resource":{"resourceType":"MedicationStatement","id":"0d358cb5-c8fc-4073-88db-c42ec29e43e3","status":"completed","medicationCodeableConcept":{"coding":[{"system":"http://www.nlm.nih.gov/research/umls/rxnorm","code":"3640"}]},"subject":{"reference":"Patient/883690de-c54b-4c33-9f47-6454722118bc"},"effectiveDateTime":"2022-10-23T00:00:00+00:00","dosage":[{"doseAndRate":[{"doseQuantity":{"value":2.0,"unit":"TAB","system":"http://terminology.hl7.org/CodeSystem/v3-orderableDrugForm","code":"TAB"}}]}]},"request":{"method":"POST","url":"MedicationStatement"}},{"fullUrl":"MedicationStatement/a6dd90a6-6965-430e-ac00-c737077b1d49","resource":{"resourceType":"MedicationStatement","id":"a6dd90a6-6965-430e-ac00-c737077b1d49","status":"completed","medicationCodeableConcept":{"coding":[{"system":"http://www.nlm.nih.gov/research/umls/rxnorm","code":"7980"}]},"subject":{"reference":"Patient/883690de-c54b-4c33-9f47-6454722118bc"},"effectiveDateTime":"2022-04-22T00:00:00+00:00","dosage":[{"doseAndRate":[{"doseQuantity":{"value":1.0,"unit":"TAB","system":"http://terminology.hl7.org/CodeSystem/v3-orderableDrugForm","code":"TAB"}}]}]},"request":{"method":"POST","url":"MedicationStatement"}},{"fullUrl":"MedicationStatement/4da46a88-f0c4-435b-91e3-035a64559df3","resource":{"resourceType":"MedicationStatement","id":"4da46a88-f0c4-435b-91e3-035a64559df3","status":"completed","medicationCodeableConcept":{"coding":[{"system":"http://www.nlm.nih.gov/research/umls/rxnorm","code":"2193"}]},"subject":{"reference":"Patient/883690de-c54b-4c33-9f47-6454722118bc"},"effectiveDateTime":"2022-04-17T00:00:00+00:00","dosage":[{"doseAndRate":[{"doseQuantity":{"value":2.0,"unit":"TAB","system":"http://terminology.hl7.org/CodeSystem/v3-orderableDrugForm","code":"TAB"}}]}]},"request":{"method":"POST","url":"MedicationStatement"}},{"fullUrl":"MedicationStatement/33ac6277-6e83-43ad-ba8a-140eba577481","resource":{"resourceType":"MedicationStatement","id":"33ac6277-6e83-43ad-ba8a-140eba577481","status":"completed","medicationCodeableConcept":{"coding":[{"system":"http://www.nlm.nih.gov/research/umls/rxnorm","code":"18631"}]},"subject":{"reference":"Patient/883690de-c54b-4c33-9f47-6454722118bc"},"effectiveDateTime":"2022-11-07T00:00:00+00:00","dosage":[{"doseAndRate":[{"doseQuantity":{"value":3.3,"unit":"TAB","system":"http://terminology.hl7.org/CodeSystem/v3-orderableDrugForm","code":"TAB"}}]}]},"request":{"method":"POST","url":"MedicationStatement"}},{"fullUrl":"Encounter/b3af6b48-8565-4ec2-bd2e-6a3b32d0fdb4","resource":{"resourceType":"Encounter","id":"b3af6b48-8565-4ec2-bd2e-6a3b32d0fdb4","status":"finished","class":{"system":"http://terminology.hl7.org/CodeSystem/v3-ActCode","code":"IMP","display":"inpatient encounter"},"type":[{"coding":[{"system":"http://terminology.hl7.org/CodeSystem/encounter-type","code":"BD/BM-clin"}]}],"subject":{"reference":"Patient/883690de-c54b-4c33-9f47-6454722118bc"},"period":{"start":"2022-11-26T00:00:00+00:00","end":"2022-12-03T00:00:00+00:00"}},"request":{"method":"POST","url":"Encounter"}},{"fullUrl":"Encounter/7af96b7e-7a36-4bdf-bbdd-d58726d0ed8b","resource":{"resourceType":"Encounter","id":"7af96b7e-7a36-4bdf-bbdd-d58726d0ed8b","status":"finished","class":{"system":"http://terminology.hl7.org/CodeSystem/v3-ActCode","code":"IMP","display":"inpatient encounter"},"type":[{"coding":[{"system":"http://terminology.hl7.org/CodeSystem/encounter-type","code":"CCS60"}]}],"subject":{"reference":"Patient/883690de-c54b-4c33-9f47-6454722118bc"},"period":{"start":"2022-01-27T00:00:00+00:00","end":"2022-01-29T00:00:00+00:00"}},"request":{"method":"POST","url":"Encounter"}},{"fullUrl":"Encounter/44bcbceb-3c9d-4806-af16-111031223747","resource":{"resourceType":"Encounter","id":"44bcbceb-3c9d-4806-af16-111031223747","status":"finished","class":{"system":"http://terminology.hl7.org/CodeSystem/v3-ActCode","code":"IMP","display":"inpatient encounter"},"type":[{"coding":[{"system":"http://terminology.hl7.org/CodeSystem/encounter-type","code":"CCS60"}]}],"subject":{"reference":"Patient/883690de-c54b-4c33-9f47-6454722118bc"},"period":{"start":"2022-11-06T00:00:00+00:00","end":"2022-11-13T00:00:00+00:00"}},"request":{"method":"POST","url":"Encounter"}},{"fullUrl":"Encounter/006cf6d2-16af-490e-b7d4-22b96eedcfda","resource":{"resourceType":"Encounter","id":"006cf6d2-16af-490e-b7d4-22b96eedcfda","status":"finished","class":{"system":"http://terminology.hl7.org/CodeSystem/v3-ActCode","code":"SS","display":"short-stay"},"type":[{"coding":[{"system":"http://terminology.hl7.org/CodeSystem/encounter-type","code":"BD/BM-clin"}]}],"subject":{"reference":"Patient/883690de-c54b-4c33-9f47-6454722118bc"},"period":{"start":"2022-06-09T00:00:00+00:00","end":"2022-06-12T00:00:00+00:00"}},"request":{"method":"POST","url":"Encounter"}},{"fullUrl":"Encounter/3fab1f48-a8a9-4f0d-8e63-1a8d62164146","resource":{"resourceType":"Encounter","id":"3fab1f48-a8a9-4f0d-8e63-1a8d62164146","status":"finished","class":{"system":"http://terminology.hl7.org/CodeSystem/v3-ActCode","code":"IMP","display":"inpatient encounter"},"type":[{"coding":[{"system":"http://terminology.hl7.org/CodeSystem/encounter-type","code":"BD/BM-clin"}]}],"subject":{"reference":"Patient/883690de-c54b-4c33-9f47-6454722118bc"},"period":{"start":"2022-09-20T00:00:00+00:00","end":"2022-09-20T00:00:00+00:00"}},"request":{"method":"POST","url":"Encounter"}},{"fullUrl":"Patient/07184937-4567-4b11-be8f-e72112933e25","resource":{"resourceType":"Patient","id":"07184937-4567-4b11-be8f-e72112933e25","identifier":[{"type":{"coding":[{"system":"http://terminology.hl7.org/CodeSystem/v2-0203","code":"MR"}]},"system":"urn:fhirgen:mrn","value":"317-12-9205"}],"name":[{"family":"Andrade","given":["Robert"]}],"gender":"male","birthDate":"1975-09-05","address":[{"line":["359 Little Plaza"],"city":"Lake Carlymouth","state":"Texas"}]},"request":{"method":"POST","url":"Patient"}},{"fullUrl":"Observation/5099d2a9-9992-47ac-b418-9db604e19fa8","resource":{"resourceType":"Observation","id":"5099d2a9-9992-47ac-b418-9db604e19fa8","status":"final","code":{"coding":[{"system":"http://loinc.org","code":"5394-2"}]},"subject":{"reference":"Patient/07184937-4567-4b11-be8f-e72112933e25"},"effectiveDateTime":"2022-01-17T00:00:00+00:00","valueRatio":{"numerator":{"value":1.0},"denominator":{"value":64.0}}},"request":{"method":"POST","url":"Observation"}},{"fullUrl":"Observation/706791d4-d8d5-4a74-abdc-1e8b88b03238","resource":{"resourceType":"Observation","id":"706791d4-d8d5-4a74-abdc-1e8b88b03238","status":"final","code":{"coding":[{"system":"http://loinc.org","code":"71793-4"}]},"subject":{"reference":"Patient/07184937-4567-4b11-be8f-e72112933e25"},"effectiveDateTime":"2022-01-07T00:00:00+00:00","valueRatio":{"numerator":{"value":1.0},"denominator":{"value":4.0}}},"request":{"method":"POST","url":"Observation"}},{"fullUrl":"Condition/d777eaf0-7879-4d6c-9412-6acbe9d0bde8","resource":{"resourceType":"Condition","id":"d777eaf0-7879-4d6c-9412-6acbe9d0bde8","code":{"coding":[{"system":"http://snomed.info/sct","code":"44882003"}]},"subject":{"reference":"Patient/07184937-4567-4b11-be8f-e72112933e25"},"onsetDateTime":"2022-12-22T00:00:00+00:00"},"request":{"method":"POST","url":"Condition"}},{"fullUrl":"Condition/19ff9677-e2e8-4434-a841-f84dcc87c65c","resource":{"resourceType":"Condition","id":"19ff9677-e2e8-4434-a841-f84dcc87c65c","code":{"coding":[{"system":"http://snomed.info/sct","code":"736686006"}]},"subject":{"reference":"Patient/07184937-4567-4b11-be8f-e72112933e25"},"onsetDateTime":"2022-05-18T00:00:00+00:00"},"request":{"method":"POST","url":"Condition"}},{"fullUrl":"Condition/4606a047-5386-4302-a022-2614bff0800b","resource":{"resourceType":"Condition","id":"4606a047-5386-4302-a022-2614bff0800b","code":{"coding":[{"system":"http://snomed.info/sct","code":"21522001"}]},"subject":{"reference":"Patient/07184937-4567-4b11-be8f-e72112933e25"},"onsetDateTime":"2022-07-22T00:00:00+00:00"},"request":{"method":"POST","url":"Condition"}},{"fullUrl":"Observation/99b9b77a-84c8-45be-884e-1a96f3656ae2","resource":{"resourceType":"Observation","id":"99b9b77a-84c8-45be-884e-1a96f3656ae2","status":"final","code":{"coding":[{"system":"http://loinc.org","code":"6690-2"}]},"subject":{"reference":"Patient/07184937-4567-4b11-be8f-e72112933e25"},"effectiveDateTime":"2022-07-18T00:00:00+00:00","valueQuantity":{"value":10.2}},"request":{"method":"POST","url":"Observation"}},{"fullUrl":"Observation/10adec81-23ee-43de-9053-e54ff7ab5d4c","resource":{"resourceType":"Observation","id":"10adec81-23ee-43de-9053-e54ff7ab5d4c","status":"final","code":{"coding":[{"system":"http://loinc.org","code":"804-5"}]},"subject":{"reference":"Patient/07184937-4567-4b11-be8f-e72112933e25"},"effectiveDateTime":"2022-02-20T00:00:00+00:00","valueQuantity":{"value":7.2}},"request":{"method":"POST","url":"Observation"}},{"fullUrl":"Observation/a5560e40-3f7d-446e-b110-79e79189cc0d","resource":{"resourceType":"Observation","id":"a5560e40-3f7d-446e-b110-79e79189cc0d","status":"final","code":{"coding":[{"system":"http://loinc.org","code":"804-5"}]},"subject":{"reference":"Patient/07184937-4567-4b11-be8f-e72112933e25"},"effectiveDateTime":"2022-06-26T00:00:00+00:00","valueQuantity":{"value":9.8}},"request":{"method":"POST","url":"Observation"}},{"fullUrl":"Procedure/59058cb1-6cdd-4b53-9f67-eaa94a2d6a47","resource":{"resourceType":"Procedure","id":"59058cb1-6cdd-4b53-9f67-eaa94a2d6a47","status":"completed","code":{"coding":[{"system":"http://snomed.info/sct","code":"647000"}]},"subject":{"reference":"Patient/07184937-4567-4b11-be8f-e72112933e25"},"performedDateTime":"2022-08-19T00:00:00+00:00"},"request":{"method":"POST","url":"Procedure"}},{"fullUrl":"Procedure/109477ea-91c0-4e32-8f37-e1a080f93a30","resource":{"resourceType":"Procedure","id":"109477ea-91c0-4e32-8f37-e1a080f93a30","status":"completed","code":{"coding":[{"system":"http://snomed.info/sct","code":"104001"}]},"subject":{"reference":"Patient/07184937-4567-4b11-be8f-e72112933e25"},"performedDateTime":"2022-05-04T00:00:00+00:00"},"request":{"method":"POST","url":"Procedure"}},{"fullUrl":"Procedure/80b94909-b99f-4786-83e4-2ba5d2a5c8f1","resource":{"resourceType":"Procedure","id":"80b94909-b99f-4786-83e4-2ba5d2a5c8f1","status":"completed","code":{"coding":[{"system":"http://snomed.info/sct","code":"146005"}]},"subject":{"reference":"Patient/07184937-4567-4b11-be8f-e72112933e25"},"performedDateTime":"2022-02-02T00:00:00+00:00"},"request":{"method":"POST","url":"Procedure"}},{"fullUrl":"MedicationStatement/088eb850-550e-47fd-8369-11a4ffff2eec","resource":{"resourceType":"MedicationStatement","id":"088eb850-550e-47fd-8369-11a4ffff2eec","status":"completed","medicationCodeableConcept":{"coding":[{"system":"http://www.nlm.nih.gov/research/umls/rxnorm","code":"2193"}]},"subject":{"reference":"Patient/07184937-4567-4b11-be8f-e72112933e25"},"effectiveDateTime":"2022-08-26T00:00:00+00:00","dosage":[{"doseAndRate":[{"doseQuantity":{"value":1.0,"unit":"TAB","system":"http://terminology.hl7.org/CodeSystem/v3-orderableDrugForm","code":"TAB"}}]}]},"request":{"method":"POST","url":"MedicationStatement"}},{"fullUrl":"MedicationStatement/c408b1fa-69f7-43db-b62a-f86085b19804","resource":{"resourceType":"MedicationStatement","id":"c408b1fa-69f7-43db-b62a-f86085b19804","status":"completed","medicationCodeableConcept":{"coding":[{"system":"http://www.nlm.nih.gov/research/umls/rxnorm","code":"3640"}]},"subject":{"reference":"Patient/07184937-4567-4b11-be8f-e72112933e25"},"effectiveDateTime":"2022-08-14T00:00:00+00:00","dosage":[{"doseAndRate":[{"doseQuantity":{"value":1.0,"unit":"TAB","system":"http://terminology.hl7.org/CodeSystem/v3-orderableDrugForm","code":"TAB"}}]}]},"request":{"method":"POST","url":"MedicationStatement"}},{"fullUrl":"MedicationStatement/141e3bc4-1f05-4652-a444-5e3e43e7b139","resource":{"resourceType":"MedicationStatement","id":"141e3bc4-1f05-4652-a444-5e3e43e7b139","status":"completed","medicationCodeableConcept":{"coding":[{"system":"http://www.nlm.nih.gov/research/umls/rxnorm","code":"10395"}]},"subject":{"reference":"Patient/07184937-4567-4b11-be8f-e72112933e25"},"effectiveDateTime":"2022-06-12T00:00:00+00:00","dosage":[{"doseAndRate":[{"doseQuantity":{"value":2.0,"unit":"TAB","system":"http://terminology.hl7.org/CodeSystem/v3-orderableDrugForm","code":"TAB"}}]}]},"request":{"method":"POST","url":"MedicationStatement"}},{"fullUrl":"MedicationStatement/14d48346-b256-4c12-b23e-641ffebf91c6","resource":{"resourceType":"MedicationStatement","id":"14d48346-b256-4c12-b23e-641ffebf91c6","status":"completed","medicationCodeableConcept":{"coding":[{"system":"http://www.nlm.nih.gov/research/umls/rxnorm","code":"2193"}]},"subject":{"reference":"Patient/07184937-4567-4b11-be8f-e72112933e25"},"effectiveDateTime":"2022-01-01T00:00:00+00:00","dosage":[{"doseAndRate":[{"doseQuantity":{"value":2.0,"unit":"TAB","system":"http://terminology.hl7.org/CodeSystem/v3-orderableDrugForm","code":"TAB"}}]}]},"request":{"method":"POST","url":"MedicationStatement"}},{"fullUrl":"MedicationStatement/ce585b96-d5fa-46be-92fa-d50ed2d9d828","resource":{"resourceType":"MedicationStatement","id":"ce585b96-d5fa-46be-92fa-d50ed2d9d828","status":"completed","medicationCodeableConcept":{"coding":[{"system":"http://www.nlm.nih.gov/research/umls/rxnorm","code":"10395"}]},"subject":{"reference":"Patient/07184937-4567-4b11-be8f-e72112933e25"},"effectiveDateTime":"2022-07-25T00:00:00+00:00","dosage":[{"doseAndRate":[{"doseQuantity":{"value":1.0,"unit":"TAB","system":"http://terminology.hl7.org/CodeSystem/v3-orderableDrugForm","code":"TAB"}}]}]},"request":{"method":"POST","url":"MedicationStatement"}},{"fullUrl":"MedicationStatement/c3d50f7d-8045-4344-96ec-4d46e30f7ab2","resource":{"resourceType":"MedicationStatement","id":"c3d50f7d-8045-4344-96ec-4d46e30f7ab2","status":"completed","medicationCodeableConcept":{"coding":[{"system":"http://www.nlm.nih.gov/research/umls/rxnorm","code":"2193"}]},"subject":{"reference":"Patient/07184937-4567-4b11-be8f-e72112933e25"},"effectiveDateTime":"2022-11-22T00:00:00+00:00","dosage":[{"doseAndRate":[{"doseQuantity":{"value":2.0,"unit":"TAB","system":"http://terminology.hl7.org/CodeSystem/v3-orderableDrugForm","code":"TAB"}}]}]},"request":{"method":"POST","url":"MedicationStatement"}},{"fullUrl":"MedicationStatement/4a00fbe3-402e-4c2e-bc5c-1e57e5d8fd20","resource":{"resourceType":"MedicationStatement","id":"4a00fbe3-402e-4c2e-bc5c-1e57e5d8fd20","status":"completed","medicationCodeableConcept":{"coding":[{"system":"http://www.nlm.nih.gov/research/umls/rxnorm","code":"2193"}]},"subject":{"reference":"Patient/07184937-4567-4b11-be8f-e72112933e25"},"effectiveDateTime":"2022-03-16T00:00:00+00:00","dosage":[{"doseAndRate":[{"doseQuantity":{"value":2.0,"unit":"TAB","system":"http://terminology.hl7.org/CodeSystem/v3-orderableDrugForm","code":"TAB"}}]}]},"request":{"method":"POST","url":"MedicationStatement"}},{"fullUrl":"MedicationStatement/d7771c72-9904-45c6-b100-5c9a925d1025","resource":{"resourceType":"MedicationStatement","id":"d7771c72-9904-45c6-b100-5c9a925d1025","status":"completed","medicationCodeableConcept":{"coding":[{"system":"http://www.nlm.nih.gov/research/umls/rxnorm","code":"2193"}]},"subject":{"reference":"Patient/07184937-4567-4b11-be8f-e72112933e25"},"effectiveDateTime":"2022-01-23T00:00:00+00:00","dosage":[{"doseAndRate":[{"doseQuantity":{"value":1.0,"unit":"TAB","system":"http://terminology.hl7.org/CodeSystem/v3-orderableDrugForm","code":"TAB"}}]}]},"request":{"method":"POST","url":"MedicationStatement"}},{"fullUrl":"MedicationStatement/b3a71f4d-5926-4c9b-bdfd-16f74ad632e8","resource":{"resourceType":"MedicationStatement","id":"b3a71f4d-5926-4c9b-bdfd-16f74ad632e8","status":"completed","medicationCodeableConcept":{"coding":[{"system":"http://www.nlm.nih.gov/research/umls/rxnorm","code":"7984"}]},"subject":{"reference":"Patient/07184937-4567-4b11-be8f-e72112933e25"},"effectiveDateTime":"2022-12-27T00:00:00+00:00","dosage":[{"doseAndRate":[{"doseQuantity":{"value":6.7,"unit":"TAB","system":"http://terminology.hl7.org/CodeSystem/v3-orderableDrugForm","code":"TAB"}}]}]},"request":{"method":"POST","url":"MedicationStatement"}},{"fullUrl":"MedicationStatement/53595be1-dbbf-40f9-a177-bae49ad1d47f","resource":{"resourceType":"MedicationStatement","id":"53595be1-dbbf-40f9-a177-bae49ad1d47f","status":"completed","medicationCodeableConcept":{"coding":[{"system":"http://www.nlm.nih.gov/research/umls/rxnorm","code":"18631"}]},"subject":{"reference":"Patient/07184937-4567-4b11-be8f-e72112933e25"},"effectiveDateTime":"2022-03-13T00:00:00+00:00","dosage":[{"doseAndRate":[{"doseQuantity":{"value":4.7,"unit":"TAB","system":"http://terminology.hl7.org/CodeSystem/v3-orderableDrugForm","code":"TAB"}}]}]},"request":{"method":"POST","url":"MedicationStatement"}},{"fullUrl":"MedicationStatement/fdfe7f14-06a9-4fc2-9be6-a10b247890ff","resource":{"resourceType":"MedicationStatement","id":"fdfe7f14-06a9-4fc2-9be6-a10b247890ff","status":"completed","medicationCodeableConcept":{"coding":[{"system":"http://www.nlm.nih.gov/research/umls/rxnorm","code":"10395"}]},"subject":{"reference":"Patient/07184937-4567-4b11-be8f-e72112933e25"},"effectiveDateTime":"2022-12-27T00:00:00+00:00","dosage":[{"doseAndRate":[{"doseQuantity":{"value":6.8,"unit":"TAB","system":"http://terminology.hl7.org/CodeSystem/v3-orderableDrugForm","code":"TAB"}}]}]},"request":{"method":"POST","url":"MedicationStatement"}},{"fullUrl":"MedicationStatement/23923215-d7e3-4daa-9605-4241dbb4ee9b","resource":{"resourceType":"MedicationStatement","id":"23923215-d7e3-4daa-9605-4241dbb4ee9b","status":"completed","medicationCodeableConcept":{"coding":[{"system":"http://www.nlm.nih.gov/research/umls/rxnorm","code":"7980"}]},"subject":{"reference":"Patient/07184937-4567-4b11-be8f-e72112933e25"},"effectiveDateTime":"2022-09-12T00:00:00+00:00","dosage":[{"doseAndRate":[{"doseQuantity":{"value":4.5,"unit":"TAB","system":"http://terminology.hl7.org/CodeSystem/v3-orderableDrugForm","code":"TAB"}}]}]},"request":{"method":"POST","url":"MedicationStatement"}},{"fullUrl":"MedicationStatement/eaa95cc5-6e9e-4e54-8024-3e24a456cdad","resource":{"resourceType":"MedicationStatement","id":"eaa95cc5-6e9e-4e54-8024-3e24a456cdad","status":"completed","medicationCodeableConcept":{"coding":[{"system":"http://www.nlm.nih.gov/research/umls/rxnorm","code":"8698"}]},"subject":{"reference":"Patient/07184937-4567-4b11-be8f-e72112933e25"},"effectiveDateTime":"2022-07-17T00:00:00+00:00","dosage":[{"doseAndRate":[{"doseQuantity":{"value":3.9,"unit":"TAB","system":"http://terminology.hl7.org/CodeSystem/v3-orderableDrugForm","code":"TAB"}}]}]},"request":{"method":"POST","url":"MedicationStatement"}},{"fullUrl":"MedicationStatement/ae952bb3-df1f-4c72-9091-b9fe72d2292e","resource":{"resourceType":"MedicationStatement","id":"ae952bb3-df1f-4c72-9091-b9fe72d2292e","status":"completed","medicationCodeableConcept":{"coding":[{"system":"http://www.nlm.nih.gov/research/umls/rxnorm","code":"7980"}]},"subject":{"reference":"Patient/07184937-4567-4b11-be8f-e72112933e25"},"effectiveDateTime":"2022-10-11T00:00:00+00:00","dosage":[{"doseAndRate":[{"doseQuantity":{"value":4.7,"unit":"TAB","system":"http://terminology.hl7.org/CodeSystem/v3-orderableDrugForm","code":"TAB"}}]}]},"request":{"method":"POST","url":"MedicationStatement"}},{"fullUrl":"MedicationStatement/91d31bed-05e7-4803-a5d0-15ed9443bfc2","resource":{"resourceType":"MedicationStatement","id":"91d31bed-05e7-4803-a5d0-15ed9443bfc2","status":"completed","medicationCodeableConcept":{"coding":[{"system":"http://www.nlm.nih.gov/research/umls/rxnorm","code":"7980"}]},"subject":{"reference":"Patient/07184937-4567-4b11-be8f-e72112933e25"},"effectiveDateTime":"2022-05-16T00:00:00+00:00","dosage":[{"doseAndRate":[{"doseQuantity":{"value":6.9,"unit":"TAB","system":"http://terminology.hl7.org/CodeSystem/v3-orderableDrugForm","code":"TAB"}}]}]},"request":{"method":"POST","url":"MedicationStatement"}},{"fullUrl":"Encounter/38b0990b-83c7-4761-a104-0d9f4a171695","resource":{"resourceType":"Encounter","id":"38b0990b-83c7-4761-a104-0d9f4a171695","status":"finished","class":{"system":"http://terminology.hl7.org/CodeSystem/v3-ActCode","code":"IMP","display":"inpatient encounter"},"type":[{"coding":[{"system":"http://terminology.hl7.org/CodeSystem/encounter-type","code":"CCS60"}]}],"subject":{"reference":"Patient/07184937-4567-4b11-be8f-e72112933e25"},"period":{"start":"2022-06-02T00:00:00+00:00","end":"2022-06-08T00:00:00+00:00"}},"request":{"method":"POST","url":"Encounter"}},{"fullUrl":"Encounter/ae623962-9cc6-468b-ab51-ab58f4d55c64","resource":{"resourceType":"Encounter","id":"ae623962-9cc6-468b-ab51-ab58f4d55c64","status":"finished","class":{"system":"http://terminology.hl7.org/CodeSystem/v3-ActCode","code":"IMP","display":"inpatient encounter"},"type":[{"coding":[{"system":"http://terminology.hl7.org/CodeSystem/encounter-type","code":"OKI"}]}],"subject":{"reference":"Patient/07184937-4567-4b11-be8f-e72112933e25"},"period":{"start":"2022-12-19T00:00:00+00:00","end":"2022-12-19T00:00:00+00:00"}},"request":{"method":"POST","url":"Encounter"}},{"fullUrl":"Encounter/df4703fe-0b73-4994-a4e3-3d6fd5e2cdbf","resource":{"resourceType":"Encounter","id":"df4703fe-0b73-4994-a4e3-3d6fd5e2cdbf","status":"finished","class":{"system":"http://terminology.hl7.org/CodeSystem/v3-ActCode","code":"FLD","display":"field"},"type":[{"coding":[{"system":"http://terminology.hl7.org/CodeSystem/encounter-type","code":"CCS60"}]}],"subject":{"reference":"Patient/07184937-4567-4b11-be8f-e72112933e25"},"period":{"start":"2022-04-25T00:00:00+00:00","end":"2022-05-03T00:00:00+00:00"}},"request":{"method":"POST","url":"Encounter"}},{"fullUrl":"Encounter/afc4b22e-3028-455a-884c-cc983d373c14","resource":{"resourceType":"Encounter","id":"afc4b22e-3028-455a-884c-cc983d373c14","status":"finished","class":{"system":"http://terminology.hl7.org/CodeSystem/v3-ActCode","code":"IMP","display":"inpatient encounter"},"type":[{"coding":[{"system":"http://terminology.hl7.org/CodeSystem/encounter-type","code":"OKI"}]}],"subject":{"reference":"Patient/07184937-4567-4b11-be8f-e72112933e25"},"period":{"start":"2022-04-26T00:00:00+00:00","end":"2022-05-03T00:00:00+00:00"}},"request":{"method":"POST","url":"Encounter"}},{"fullUrl":"Encounter/7e498241-031f-40d3-a802-2aa7dbb7e865","resource":{"resourceType":"Encounter","id":"7e498241-031f-40d3-a802-2aa7dbb7e865","status":"finished","class":{"system":"http://terminology.hl7.org/CodeSystem/v3-ActCode","code":"PRENC","display":"pre-admission"},"type":[{"coding":[{"system":"http://terminology.hl7.org/CodeSystem/encounter-type","code":"OKI"}]}],"subject":{"reference":"Patient/07184937-4567-4b11-be8f-e72112933e25"},"period":{"start":"2022-01-08T00:00:00+00:00","end":"2022-01-16T00:00:00+00:00"}},"request":{"method":"POST","url":"Encounter"}},{"fullUrl":"Patient/2d5b84a7-c4d5-446b-b7c9-4fe9f0636349","resource":{"resourceType":"Patient","id":"2d5b84a7-c4d5-446b-b7c9-4fe9f0636349","identifier":[{"type":{"coding":[{"system":"http://terminology.hl7.org/CodeSystem/v2-0203","code":"MR"}]},"system":"urn:fhirgen:mrn","value":"579-89-9233"}],"name":[{"family":"Ingram","given":["Rebecca"]}],"gender":"female","birthDate":"1999-06-23","address":[{"line":["396 Carrie Parkway Suite 957"],"city":"Riveraton","state":"California"}]},"request":{"method":"POST","url":"Patient"}},{"fullUrl":"Observation/f3ca0c34-d875-40b5-b07a-06a3ba6435fa","resource":{"resourceType":"Observation","id":"f3ca0c34-d875-40b5-b07a-06a3ba6435fa","status":"final","code":{"coding":[{"system":"http://loinc.org","code":"26009-1"}]},"subject":{"reference":"Patient/2d5b84a7-c4d5-446b-b7c9-4fe9f0636349"},"effectiveDateTime":"2022-01-25T00:00:00+00:00","valueRatio":{"numerator":{"value":1.0},"denominator":{"value":32.0}}},"request":{"method":"POST","url":"Observation"}},{"fullUrl":"Observation/89aad6ca-a0cd-4316-a871-7afdc4685a37","resource":{"resourceType":"Observation","id":"89aad6ca-a0cd-4316-a871-7afdc4685a37","status":"final","code":{"coding":[{"system":"http://loinc.org","code":"31146-4"}]},"subject":{"reference":"Patient/2d5b84a7-c4d5-446b-b7c9-4fe9f0636349"},"effectiveDateTime":"2022-12-26T00:00:00+00:00","valueRatio":{"numerator":{"value":1.0},"denominator":{"value":64.0}}},"request":{"method":"POST","url":"Observation"}},{"fullUrl":"Condition/0c070e58-3b83-4ba3-a3e4-61bb4c70c722","resource":{"resourceType":"Condition","id":"0c070e58-3b83-4ba3-a3e4-61bb4c70c722","code":{"coding":[{"system":"http://snomed.info/sct","code":"709977002"}]},"subject":{"reference":"Patient/2d5b84a7-c4d5-446b-b7c9-4fe9f0636349"},"onsetDateTime":"2022-09-04T00:00:00+00:00"},"request":{"method":"POST","url":"Condition"}},{"fullUrl":"Condition/ef1f053a-5b89-461e-94ec-07194e32337c","resource":{"resourceType":"Condition","id":"ef1f053a-5b89-461e-94ec-07194e32337c","code":{"coding":[{"system":"http://snomed.info/sct","code":"297123002"}]},"subject":{"reference":"Patient/2d5b84a7-c4d5-446b-b7c9-4fe9f0636349"},"onsetDateTime":"2022-03-31T00:00:00+00:00"},"request":{"method":"POST","url":"Condition"}},{"fullUrl":"Condition/d0594d41-4319-4fb6-a18d-eab053490af7","resource":{"resourceType":"Condition","id":"d0594d41-4319-4fb6-a18d-eab053490af7","code":{"coding":[{"system":"http://snomed.info/sct","code":"30746006"}]},"subject":{"reference":"Patient/2d5b84a7-c4d5-446b-b7c9-4fe9f0636349"},"onsetDateTime":"2022-05-26T00:00:00+00:00"},"request":{"method":"POST","url":"Condition"}},{"fullUrl":"Condition/46a2b635-b2fd-4bc4-bd0e-223c3534c8f7","resource":{"resourceType":"Condition","id":"46a2b635-b2fd-4bc4-bd0e-223c3534c8f7","code":{"coding":[{"system":"http://snomed.info/sct","code":"91554004"}]},"subject":{"reference":"Patient/2d5b84a7-c4d5-446b-b7c9-4fe9f0636349"},"onsetDateTime":"2022-01-27T00:00:00+00:00"},"request":{"method":"POST","url":"Condition"}},{"fullUrl":"Condition/c07a9886-6464-4a7b-bf64-4a7990c9b2d9","resource":{"resourceType":"Condition","id":"c07a9886-6464-4a7b-bf64-4a7990c9b2d9","code":{"coding":[{"system":"http://snomed.info/sct","code":"18165001"}]},"subject":{"reference":"Patient/2d5b84a7-c4d5-446b-b7c9-4fe9f0636349"},"onsetDateTime":"2022-08-25T00:00:00+00:00"},"request":{"method":"POST","url":"Condition"}},{"fullUrl":"Condition/d62b4eba-37e8-48c7-8bb3-bfced8ffb7ab","resource":{"resourceType":"Condition","id":"d62b4eba-37e8-48c7-8bb3-bfced8ffb7ab","code":{"coding":[{"system":"http://snomed.info/sct","code":"405737000"}]},"subject":{"reference":"Patient/2d5b84a7-c4d5-446b-b7c9-4fe9f0636349"},"onsetDateTime":"2022-07-21T00:00:00+00:00"},"request":{"method":"POST","url":"Condition"}},{"fullUrl":"Condition/db9e57a7-4a3c-4f8c-8297-c0a93e18b5c0","resource":{"resourceType":"Condition","id":"db9e57a7-4a3c-4f8c-8297-c0a93e18b5c0","code":{"coding":[{"system":"http://snomed.info/sct","code":"405737000"}]},"subject":{"reference":"Patient/2d5b84a7-c4d5-446b-b7c9-4fe9f0636349"},"onsetDateTime":"2022-05-07T00:00:00+00:00"},"request":{"method":"POST","url":"Condition"}},{"fullUrl":"Observation/dc9e5677-b0e9-471c-a0cd-6071bdaae92b","resource":{"resourceType":"Observation","id":"dc9e5677-b0e9-471c-a0cd-6071bdaae92b","status":"final","code":{"coding":[{"system":"http://loinc.org","code":"26464-8"}]},"subject":{"reference":"Patient/2d5b84a7-c4d5-446b-b7c9-4fe9f0636349"},"effectiveDateTime":"2022-03-24T00:00:00+00:00","valueQuantity":{"value":10.2}},"request":{"method":"POST","url":"Observation"}},{"fullUrl":"Observation/dbc10fc0-43ef-4058-a56b-22cfb88feec0","resource":{"resourceType":"Observation","id":"dbc10fc0-43ef-4058-a56b-22cfb88feec0","status":"final","code":{"coding":[{"system":"http://loinc.org","code":"6690-2"}]},"subject":{"reference":"Patient/2d5b84a7-c4d5-446b-b7c9-4fe9f0636349"},"effectiveDateTime":"2022-03-25T00:00:00+00:00","valueQuantity":{"value":10.0}},"request":{"method":"POST","url":"Observation"}},{"fullUrl":"Procedure/2b8b397a-7101-4692-b08c-b861b756dc36","resource":{"resourceType":"Procedure","id":"2b8b397a-7101-4692-b08c-b861b756dc36","status":"completed","code":{"coding":[{"system":"http://snomed.info/sct","code":"104001"}]},"subject":{"reference":"Patient/2d5b84a7-c4d5-446b-b7c9-4fe9f0636349"},"performedDateTime":"2022-12-05T00:00:00+00:00"},"request":{"method":"POST","url":"Procedure"}},{"fullUrl":"Procedure/b40cfa5d-ca00-4571-a871-2e10ada9fa83","resource":{"resourceType":"Procedure","id":"b40cfa5d-ca00-4571-a871-2e10ada9fa83","status":"completed","code":{"coding":[{"system":"http://snomed.info/sct","code":"647000"}]},"subject":{"reference":"Patient/2d5b84a7-c4d5-446b-b7c9-4fe9f0636349"},"performedDateTime":"2022-10-31T00:00:00+00:00"},"request":{"method":"POST","url":"Procedure"}},{"fullUrl":"Procedure/ed7f0f35-aa88-4ef9-971b-09ab996cde2e","resource":{"resourceType":"Procedure","id":"ed7f0f35-aa88-4ef9-971b-09ab996cde2e","status":"completed","code":{"coding":[{"system":"http://snomed.info/sct","code":"146005"}]},"subject":{"reference":"Patient/2d5b84a7-c4d5-446b-b7c9-4fe9f0636349"},"performedDateTime":"2022-09-02T00:00:00+00:00"},"request":{"method":"POST","url":"Procedure"}},{"fullUrl":"MedicationStatement/cc84b5cb-e3c2-4302-8742-84940931f0cd","resource":{"resourceType":"MedicationStatement","id":"cc84b5cb-e3c2-4302-8742-84940931f0cd","status":"completed","medicationCodeableConcept":{"coding":[{"system":"http://www.nlm.nih.gov/research/umls/rxnorm","code":"7984"}]},"subject":{"reference":"Patient/2d5b84a7-c4d5-446b-b7c9-4fe9f0636349"},"effectiveDateTime":"2022-09-16T00:00:00+00:00","dosage":[{"doseAndRate":[{"doseQuantity":{"value":1.0,"unit":"TAB","system":"http://terminology.hl7.org/CodeSystem/v3-orderableDrugForm","code":"TAB"}}]}]},"request":{"method":"POST","url":"MedicationStatement"}},{"fullUrl":"MedicationStatement/7116251f-c4d8-4b90-999c-c3f82bf76111","resource":{"resourceType":"MedicationStatement","id":"7116251f-c4d8-4b90-999c-c3f82bf76111","status":"completed","medicationCodeableConcept":{"coding":[{"system":"http://www.nlm.nih.gov/research/umls/rxnorm","code":"2193"}]},"subject":{"reference":"Patient/2d5b84a7-c4d5-446b-b7c9-4fe9f0636349"},"effectiveDateTime":"2022-10-17T00:00:00+00:00","dosage":[{"doseAndRate":[{"doseQuantity":{"value":2.0,"unit":"TAB","system":"http://terminology.hl7.org/CodeSystem/v3-orderableDrugForm","code":"TAB"}}]}]},"request":{"method":"POST","url":"MedicationStatement"}},{"fullUrl":"MedicationStatement/5b4981ff-8098-4574-aeff-e72a7e4194dd","resource":{"resourceType":"MedicationStatement","id":"5b4981ff-8098-4574-aeff-e72a7e4194dd","status":"completed","medicationCodeableConcept":{"coding":[{"system":"http://www.nlm.nih.gov/research/umls/rxnorm","code":"18631"}]},"subject":{"reference":"Patient/2d5b84a7-c4d5-446b-b7c9-4fe9f0636349"},"effectiveDateTime":"2022-04-05T00:00:00+00:00","dosage":[{"doseAndRate":[{"doseQuantity":{"value":1.0,"unit":"TAB","system":"http://terminology.hl7.org/CodeSystem/v3-orderableDrugForm","code":"TAB"}}]}]},"request":{"method":"POST","url":"MedicationStatement"}},{"fullUrl":"MedicationStatement/49bb7dd9-921f-4edf-b9d9-26e5a0dc1291","resource":{"resourceType":"MedicationStatement","id":"49bb7dd9-921f-4edf-b9d9-26e5a0dc1291","status":"completed","medicationCodeableConcept":{"coding":[{"system":"http://www.nlm.nih.gov/research/umls/rxnorm","code":"2193"}]},"subject":{"reference":"Patient/2d5b84a7-c4d5-446b-b7c9-4fe9f0636349"},"effectiveDateTime":"2022-12-28T00:00:00+00:00","dosage":[{"doseAndRate":[{"doseQuantity":{"value":1.0,"unit":"TAB","system":"http://terminology.hl7.org/CodeSystem/v3-orderableDrugForm","code":"TAB"}}]}]},"request":{"method":"POST","url":"MedicationStatement"}},{"fullUrl":"MedicationStatement/cd116131-3215-4b12-94cd-d4eec40ddb19","resource":{"resourceType":"MedicationStatement","id":"cd116131-3215-4b12-94cd-d4eec40ddb19","status":"completed","medicationCodeableConcept":{"coding":[{"system":"http://www.nlm.nih.gov/research/umls/rxnorm","code":"8698"}]},"subject":{"reference":"Patient/2d5b84a7-c4d5-446b-b7c9-4fe9f0636349"},"effectiveDateTime":"2022-08-12T00:00:00+00:00","dosage":[{"doseAndRate":[{"doseQuantity":{"value":3.3,"unit":"TAB","system":"http://terminology.hl7.org/CodeSystem/v3-orderableDrugForm","code":"TAB"}}]}]},"request":{"method":"POST","url":"MedicationStatement"}},{"fullUrl":"MedicationStatement/cb8dadcd-4e7d-4aa2-b048-fb40bff9ec8f","resource":{"resourceType":"MedicationStatement","id":"cb8dadcd-4e7d-4aa2-b048-fb40bff9ec8f","status":"completed","medicationCodeableConcept":{"coding":[{"system":"http://www.nlm.nih.gov/research/umls/rxnorm","code":"7984"}]},"subject":{"reference":"Patient/2d5b84a7-c4d5-446b-b7c9-4fe9f0636349"},"effectiveDateTime":"2022-03-13T00:00:00+00:00","dosage":[{"doseAndRate":[{"doseQuantity":{"value":6.3,"unit":"TAB","system":"http://terminology.hl7.org/CodeSystem/v3-orderableDrugForm","code":"TAB"}}]}]},"request":{"method":"POST","url":"MedicationStatement"}},{"fullUrl":"MedicationStatement/64ab7930-9436-47a1-b107-1d4b739cabbc","resource":{"resourceType":"MedicationStatement","id":"64ab7930-9436-47a1-b107-1d4b739cabbc","status":"completed","medicationCodeableConcept":{"coding":[{"system":"http://www.nlm.nih.gov/research/umls/rxnorm","code":"18631"}]},"subject":{"reference":"Patient/2d5b84a7-c4d5-446b-b7c9-4fe9f0636349"},"effectiveDateTime":"2022-02-21T00:00:00+00:00","dosage":[{"doseAndRate":[{"doseQuantity":{"value":3.7,"unit":"TAB","system":"http://terminology.hl7.org/CodeSystem/v3-orderableDrugForm","code":"TAB"}}]}]},"request":{"method":"POST","url":"MedicationStatement"}},{"fullUrl":"MedicationStatement/97deec8a-b925-441e-a03a-6ede09838514","resource":{"resourceType":"MedicationStatement","id":"97deec8a-b925-441e-a03a-6ede09838514","status":"completed","medicationCodeableConcept":{"coding":[{"system":"http://www.nlm.nih.gov/research/umls/rxnorm","code":"3640"}]},"subject":{"reference":"Patient/2d5b84a7-c4d5-446b-b7c9-4fe9f0636349"},"effectiveDateTime":"2022-03-19T00:00:00+00:00","dosage":[{"doseAndRate":[{"doseQuantity":{"value":5.6,"unit":"TAB","system":"http://terminology.hl7.org/CodeSystem/v3-orderableDrugForm","code":"TAB"}}]}]},"request":{"method":"POST","url":"MedicationStatement"}},{"fullUrl":"MedicationStatement/3a317235-ef21-472b-b3eb-cbf1d1ff5707","resource":{"resourceType":"MedicationStatement","id":"3a317235-ef21-472b-b3eb-cbf1d1ff5707","status":"completed","medicationCodeableConcept":{"coding":[{"system":"http://www.nlm.nih.gov/research/umls/rxnorm","code":"2193"}]},"subject":{"reference":"Patient/2d5b84a7-c4d5-446b-b7c9-4fe9f0636349"},"effectiveDateTime":"2022-06-04T00:00:00+00:00","dosage":[{"doseAndRate":[{"doseQuantity":{"value":5.7,"unit":"TAB","system":"http://terminology.hl7.org/CodeSystem/v3-orderableDrugForm","code":"TAB"}}]}]},"request":{"method":"POST","url":"MedicationStatement"}},{"fullUrl":"MedicationStatement/9ad9cb53-b97c-4826-a167-7250bf424990","resource":{"resourceType":"MedicationStatement","id":"9ad9cb53-b97c-4826-a167-7250bf424990","status":"completed","medicationCodeableConcept":{"coding":[{"system":"http://www.nlm.nih.gov/research/umls/rxnorm","code":"2193"}]},"subject":{"reference":"Patient/2d5b84a7-c4d5-446b-b7c9-4fe9f0636349"},"effectiveDateTime":"2022-09-22T00:00:00+00:00","dosage":[{"doseAndRate":[{"doseQuantity":{"value":6.1,"unit":"TAB","system":"http://terminology.hl7.org/CodeSystem/v3-orderableDrugForm","code":"TAB"}}]}]},"request":{"method":"POST","url":"MedicationStatement"}},{"fullUrl":"MedicationStatement/24bb852c-6231-4005-8d23-cbbf490654dc","resource":{"resourceType":"MedicationStatement","id":"24bb852c-6231-4005-8d23-cbbf490654dc","status":"completed","medicationCodeableConcept":{"coding":[{"system":"http://www.nlm.nih.gov/research/umls/rxnorm","code":"7984"}]},"subject":{"reference":"Patient/2d5b84a7-c4d5-446b-b7c9-4fe9f0636349"},"effectiveDateTime":"2022-05-14T00:00:00+00:00","dosage":[{"doseAndRate":[{"doseQuantity":{"value":4.7,"unit":"TAB","system":"http://terminology.hl7.org/CodeSystem/v3-orderableDrugForm","code":"TAB"}}]}]},"request":{"method":"POST","url":"MedicationStatement"}},{"fullUrl":"Encounter/a5863eb4-def4-46f6-b986-ee595c2652e9","resource":{"resourceType":"Encounter","id":"a5863eb4-def4-46f6-b986-ee595c2652e9","status":"finished","class":{"system":"http://terminology.hl7.org/CodeSystem/v3-ActCode","code":"IMP","display":"inpatient encounter"},"type":[{"coding":[{"system":"http://terminology.hl7.org/CodeSystem/encounter-type","code":"BD/BM-clin"}]}],"subject":{"reference":"Patient/2d5b84a7-c4d5-446b-b7c9-4fe9f0636349"},"period":{"start":"2022-07-11T00:00:00+00:00","end":"2022-07-17T00:00:00+00:00"}},"request":{"method":"POST","url":"Encounter"}},{"fullUrl":"Encounter/cddb7494-9c7a-4c32-b249-d60c903f648d","resource":{"resourceType":"Encounter","id":"cddb7494-9c7a-4c32-b249-d60c903f648d","status":"finished","class":{"system":"http://terminology.hl7.org/CodeSystem/v3-ActCode","code":"IMP","display":"inpatient encounter"},"type":[{"coding":[{"system":"http://terminology.hl7.org/CodeSystem/encounter-type","code":"OKI"}]}],"subject":{"reference":"Patient/2d5b84a7-c4d5-446b-b7c9-4fe9f0636349"},"period":{"start":"2022-09-06T00:00:00+00:00","end":"2022-09-14T00:00:00+00:00"}},"request":{"method":"POST","url":"Encounter"}},{"fullUrl":"Encounter/6c95d561-9aad-4f94-88d1-0f6dc36d90c8","resource":{"resourceType":"Encounter","id":"6c95d561-9aad-4f94-88d1-0f6dc36d90c8","status":"finished","class":{"system":"http://terminology.hl7.org/CodeSystem/v3-ActCode","code":"OBSENC","display":"observation encounter"},"type":[{"coding":[{"system":"http://terminology.hl7.org/CodeSystem/encounter-type","code":"OKI"}]}],"subject":{"reference":"Patient/2d5b84a7-c4d5-446b-b7c9-4fe9f0636349"},"period":{"start":"2022-07-03T00:00:00+00:00","end":"2022-07-05T00:00:00+00:00"}},"request":{"method":"POST","url":"Encounter"}},{"fullUrl":"Encounter/cc35632b-a126-4697-928c-4de05cea5b7b","resource":{"resourceType":"Encounter","id":"cc35632b-a126-4697-928c-4de05cea5b7b","status":"finished","class":{"system":"http://terminology.hl7.org/CodeSystem/v3-ActCode","code":"OBSENC","display":"observation encounter"},"type":[{"coding":[{"system":"http://terminology.hl7.org/CodeSystem/encounter-type","code":"ADMS"}]}],"subject":{"reference":"Patient/2d5b84a7-c4d5-446b-b7c9-4fe9f0636349"},"period":{"start":"2022-08-27T00:00:00+00:00","end":"2022-09-02T00:00:00+00:00"}},"request":{"method":"POST","url":"Encounter"}},{"fullUrl":"Patient/abe62859-dd7d-4a26-88b3-8fcb0c5b3c17","resource":{"resourceType":"Patient","id":"abe62859-dd7d-4a26-88b3-8fcb0c5b3c17","identifier":[{"type":{"coding":[{"system":"http://terminology.hl7.org/CodeSystem/v2-0203","code":"MR"}]},"system":"urn:fhirgen:mrn","value":"595-19-9375"}],"name":[{"family":"Novak","given":["Lisa"]}],"gender":"female","birthDate":"1946-01-03","address":[{"line":["38654 Stewart Neck"],"city":"Timothyshire","state":"Georgia"}]},"request":{"method":"POST","url":"Patient"}},{"fullUrl":"Observation/ab2760da-3d4d-48e1-a874-132e25a514e8","resource":{"resourceType":"Observation","id":"ab2760da-3d4d-48e1-a874-132e25a514e8","status":"final","code":{"coding":[{"system":"http://loinc.org","code":"87925-4"}]},"subject":{"reference":"Patient/abe62859-dd7d-4a26-88b3-8fcb0c5b3c17"},"effectiveDateTime":"2022-10-02T00:00:00+00:00","valueRatio":{"numerator":{"value":1.0},"denominator":{"value":4.0}}},"request":{"method":"POST","url":"Observation"}},{"fullUrl":"Observation/cb546de0-653a-4b8a-b032-cce7f22d60a2","resource":{"resourceType":"Observation","id":"cb546de0-653a-4b8a-b032-cce7f22d60a2","status":"final","code":{"coding":[{"system":"http://loinc.org","code":"47476-7"}]},"subject":{"reference":"Patient/abe62859-dd7d-4a26-88b3-8fcb0c5b3c17"},"effectiveDateTime":"2022-10-22T00:00:00+00:00","valueRatio":{"numerator":{"value":1.0},"denominator":{"value":64.0}}},"request":{"method":"POST","url":"Observation"}},{"fullUrl":"Condition/f2ce4792-81fa-41d2-8827-90e0a7293abd","resource":{"resourceType":"Condition","id":"f2ce4792-81fa-41d2-8827-90e0a7293abd","code":{"coding":[{"system":"http://snomed.info/sct","code":"18165001"}]},"subject":{"reference":"Patient/abe62859-dd7d-4a26-88b3-8fcb0c5b3c17"},"onsetDateTime":"2022-07-29T00:00:00+00:00"},"request":{"method":"POST","url":"Condition"}},{"fullUrl":"Condition/5e46e47d-bb44-4f0a-8644-df9a36e258fa","resource":{"resourceType":"Condition","id":"5e46e47d-bb44-4f0a-8644-df9a36e258fa","code":{"coding":[{"system":"http://snomed.info/sct","code":"21522001"}]},"subject":{"reference":"Patient/abe62859-dd7d-4a26-88b3-8fcb0c5b3c17"},"onsetDateTime":"2022-05-10T00:00:00+00:00"},"request":{"method":"POST","url":"Condition"}},{"fullUrl":"Condition/98045b9a-d866-4ac7-a327-8a5cda4a159d","resource":{"resourceType":"Condition","id":"98045b9a-d866-4ac7-a327-8a5cda4a159d","code":{"coding":[{"system":"http://snomed.info/sct","code":"405737000"}]},"subject":{"reference":"Patient/abe62859-dd7d-4a26-88b3-8fcb0c5b3c17"},"onsetDateTime":"2022-07-31T00:00:00+00:00"},"request":{"method":"POST","url":"Condition"}},{"fullUrl":"Condition/c0304aa7-6e76-4214-bf58-5b0bd6d7f6a5","resource":{"resourceType":"Condition","id":"c0304aa7-6e76-4214-bf58-5b0bd6d7f6a5","code":{"coding":[{"system":"http://snomed.info/sct","code":"56317004"}]},"subject":{"reference":"Patient/abe62859-dd7d-4a26-88b3-8fcb0c5b3c17"},"onsetDateTime":"2022-11-14T00:00:00+00:00"},"request":{"method":"POST","url":"Condition"}},{"fullUrl":"Condition/f56afc7b-99b5-474a-80e4-7af60100400b","resource":{"resourceType":"Condition","id":"f56afc7b-99b5-474a-80e4-7af60100400b","code":{"coding":[{"system":"http://snomed.info/sct","code":"271807003"}]},"subject":{"reference":"Patient/abe62859-dd7d-4a26-88b3-8fcb0c5b3c17"},"onsetDateTime":"2022-07-14T00:00:00+00:00"},"request":{"method":"POST","url":"Condition"}},{"fullUrl":"Condition/a567e02b-49cf-422d-9e41-1891ea0f1b47","resource":{"resourceType":"Condition","id":"a567e02b-49cf-422d-9e41-1891ea0f1b47","code":{"coding":[{"system":"http://snomed.info/sct","code":"736686006"}]},"subject":{"reference":"Patient/abe62859-dd7d-4a26-88b3-8fcb0c5b3c17"},"onsetDateTime":"2022-05-07T00:00:00+00:00"},"request":{"method":"POST","url":"Condition"}},{"fullUrl":"Condition/22752ec6-5ae3-4dad-bf9b-c081ab2d8093","resource":{"resourceType":"Condition","id":"22752ec6-5ae3-4dad-bf9b-c081ab2d8093","code":{"coding":[{"system":"http://snomed.info/sct","code":"56317004"}]},"subject":{"reference":"Patient/abe62859-dd7d-4a26-88b3-8fcb0c5b3c17"},"onsetDateTime":"2022-12-22T00:00:00+00:00"},"request":{"method":"POST","url":"Condition"}},{"fullUrl":"Condition/a2f75d42-5684-4fd1-9fc5-26c3729d1aab","resource":{"resourceType":"Condition","id":"a2f75d42-5684-4fd1-9fc5-26c3729d1aab","code":{"coding":[{"system":"http://snomed.info/sct","code":"44882003"}]},"subject":{"reference":"Patient/abe62859-dd7d-4a26-88b3-8fcb0c5b3c17"},"onsetDateTime":"2022-10-15T00:00:00+00:00"},"request":{"method":"POST","url":"Condition"}},{"fullUrl":"Observation/6ef0e3e4-72f4-49e2-9a37-05f05e40ff9e","resource":{"resourceType":"Observation","id":"6ef0e3e4-72f4-49e2-9a37-05f05e40ff9e","status":"final","code":{"coding":[{"system":"http://loinc.org","code":"26464-8"}]},"subject":{"reference":"Patient/abe62859-dd7d-4a26-88b3-8fcb0c5b3c17"},"effectiveDateTime":"2022-02-01T00:00:00+00:00","valueQuantity":{"value":7.7}},"request":{"method":"POST","url":"Observation"}},{"fullUrl":"Observation/de9d3310-e002-4234-a95f-f48b161d523a","resource":{"resourceType":"Observation","id":"de9d3310-e002-4234-a95f-f48b161d523a","status":"final","code":{"coding":[{"system":"http://loinc.org","code":"49498-9"}]},"subject":{"reference":"Patient/abe62859-dd7d-4a26-88b3-8fcb0c5b3c17"},"effectiveDateTime":"2022-07-05T00:00:00+00:00","valueQuantity":{"value":4.2}},"request":{"method":"POST","url":"Observation"}},{"fullUrl":"Procedure/e3d7e5e0-d387-4656-b5f0-4655b565a069","resource":{"resourceType":"Procedure","id":"e3d7e5e0-d387-4656-b5f0-4655b565a069","status":"completed","code":{"coding":[{"system":"http://snomed.info/sct","code":"189009"}]},"subject":{"reference":"Patient/abe62859-dd7d-4a26-88b3-8fcb0c5b3c17"},"performedDateTime":"2022-12-30T00:00:00+00:00"},"request":{"method":"POST","url":"Procedure"}},{"fullUrl":"Procedure/41050dc2-c913-4dd5-9c20-d6bae4f24546","resource":{"resourceType":"Procedure","id":"41050dc2-c913-4dd5-9c20-d6bae4f24546","status":"completed","code":{"coding":[{"system":"http://snomed.info/sct","code":"647000"}]},"subject":{"reference":"Patient/abe62859-dd7d-4a26-88b3-8fcb0c5b3c17"},"performedDateTime":"2022-12-31T00:00:00+00:00"},"request":{"method":"POST","url":"Procedure"}},{"fullUrl":"Procedure/71617568-c04c-4c68-b861-24ac7f3e9ccb","resource":{"resourceType":"Procedure","id":"71617568-c04c-4c68-b861-24ac7f3e9ccb","status":"completed","code":{"coding":[{"system":"http://snomed.info/sct","code":"647000"}]},"subject":{"reference":"Patient/abe62859-dd7d-4a26-88b3-8fcb0c5b3c17"},"performedDateTime":"2022-02-05T00:00:00+00:00"},"request":{"method":"POST","url":"Procedure"}},{"fullUrl":"MedicationStatement/1471ff49-e43b-493f-8a8b-7ff8eb733b0b","resource":{"resourceType":"MedicationStatement","id":"1471ff49-e43b-493f-8a8b-7ff8eb733b0b","status":"completed","medicationCodeableConcept":{"coding":[{"system":"http://www.nlm.nih.gov/research/umls/rxnorm","code":"7984"}]},"subject":{"reference":"Patient/abe62859-dd7d-4a26-88b3-8fcb0c5b3c17"},"effectiveDateTime":"2022-10-26T00:00:00+00:00","dosage":[{"doseAndRate":[{"doseQuantity":{"value":1.0,"unit":"TAB","system":"http://terminology.hl7.org/CodeSystem/v3-orderableDrugForm","code":"TAB"}}]}]},"request":{"method":"POST","url":"MedicationStatement"}},{"fullUrl":"MedicationStatement/4080c5c3-d55a-4faf-be0a-daa27b35b130","resource":{"resourceType":"MedicationStatement","id":"4080c5c3-d55a-4faf-be0a-daa27b35b130","status":"completed","medicationCodeableConcept":{"coding":[{"system":"http://www.nlm.nih.gov/research/umls/rxnorm","code":"10395"}]},"subject":{"reference":"Patient/abe62859-dd7d-4a26-88b3-8fcb0c5b3c17"},"effectiveDateTime":"2022-07-01T00:00:00+00:00","dosage":[{"doseAndRate":[{"doseQuantity":{"value":1.0,"unit":"TAB","system":"http://terminology.hl7.org/CodeSystem/v3-orderableDrugForm","code":"TAB"}}]}]},"request":{"method":"POST","url":"MedicationStatement"}},{"fullUrl":"MedicationStatement/a431fdc6-c055-401c-ab05-e7f018bcaa64","resource":{"resourceType":"MedicationStatement","id":"a431fdc6-c055-401c-ab05-e7f018bcaa64","status":"completed","medicationCodeableConcept":{"coding":[{"system":"http://www.nlm.nih.gov/research/umls/rxnorm","code":"8698"}]},"subject":{"reference":"Patient/abe62859-dd7d-4a26-88b3-8fcb0c5b3c17"},"effectiveDateTime":"2022-09-20T00:00:00+00:00","dosage":[{"doseAndRate":[{"doseQuantity":{"value":2.0,"unit":"TAB","system":"http://terminology.hl7.org/CodeSystem/v3-orderableDrugForm","code":"TAB"}}]}]},"request":{"method":"POST","url":"MedicationStatement"}},{"fullUrl":"MedicationStatement/976e088f-9e54-45bb-b23a-eb12a716a790","resource":{"resourceType":"MedicationStatement","id":"976e088f-9e54-45bb-b23a-eb12a716a790","status":"completed","medicationCodeableConcept":{"coding":[{"system":"http://www.nlm.nih.gov/research/umls/rxnorm","code":"3640"}]},"subject":{"reference":"Patient/abe62859-dd7d-4a26-88b3-8fcb0c5b3c17"},"effectiveDateTime":"2022-10-11T00:00:00+00:00","dosage":[{"doseAndRate":[{"doseQuantity":{"value":2.0,"unit":"TAB","system":"http://terminology.hl7.org/CodeSystem/v3-orderableDrugForm","code":"TAB"}}]}]},"request":{"method":"POST","url":"MedicationStatement"}},{"fullUrl":"MedicationStatement/61695d5d-ab51-464b-896d-f769a4a7f52d","resource":{"resourceType":"MedicationStatement","id":"61695d5d-ab51-464b-896d-f769a4a7f52d","status":"completed","medicationCodeableConcept":{"coding":[{"system":"http://www.nlm.nih.gov/research/umls/rxnorm","code":"7984"}]},"subject":{"reference":"Patient/abe62859-dd7d-4a26-88b3-8fcb0c5b3c17"},"effectiveDateTime":"2022-06-06T00:00:00+00:00","dosage":[{"doseAndRate":[{"doseQuantity":{"value":3.5,"unit":"TAB","system":"http://terminology.hl7.org/CodeSystem/v3-orderableDrugForm","code":"TAB"}}]}]},"request":{"method":"POST","url":"MedicationStatement"}},{"fullUrl":"MedicationStatement/4baa5a99-b7e5-4fe3-bb34-97cc9b6dab0c","resource":{"resourceType":"MedicationStatement","id":"4baa5a99-b7e5-4fe3-bb34-97cc9b6dab0c","status":"completed","medicationCodeableConcept":{"coding":[{"system":"http://www.nlm.nih.gov/research/umls/rxnorm","code":"3640"}]},"subject":{"reference":"Patient/abe62859-dd7d-4a26-88b3-8fcb0c5b3c17"},"effectiveDateTime":"2022-03-15T00:00:00+00:00","dosage":[{"doseAndRate":[{"doseQuantity":{"value":3.5,"unit":"TAB","system":"http://terminology.hl7.org/CodeSystem/v3-orderableDrugForm","code":"TAB"}}]}]},"request":{"method":"POST","url":"MedicationStatement"}},{"fullUrl":"MedicationStatement/98e5adc5-3d5e-4271-a40b-95c58d0c5435","resource":{"resourceType":"MedicationStatement","id":"98e5adc5-3d5e-4271-a40b-95c58d0c5435","status":"completed","medicationCodeableConcept":{"coding":[{"system":"http://www.nlm.nih.gov/research/umls/rxnorm","code":"2193"}]},"subject":{"reference":"Patient/abe62859-dd7d-4a26-88b3-8fcb0c5b3c17"},"effectiveDateTime":"2022-12-13T00:00:00+00:00","dosage":[{"doseAndRate":[{"doseQuantity":{"value":3.1,"unit":"TAB","system":"http://terminology.hl7.org/CodeSystem/v3-orderableDrugForm","code":"TAB"}}]}]},"request":{"method":"POST","url":"MedicationStatement"}},{"fullUrl":"MedicationStatement/d0686055-8119-4765-8354-fde4196c4050","resource":{"resourceType":"MedicationStatement","id":"d0686055-8119-4765-8354-fde4196c4050","status":"completed","medicationCodeableConcept":{"coding":[{"system":"http://www.nlm.nih.gov/research/umls/rxnorm","code":"18631"}]},"subject":{"reference":"Patient/abe62859-dd7d-4a26-88b3-8fcb0c5b3c17"},"effectiveDateTime":"2022-02-07T00:00:00+00:00","dosage":[{"doseAndRate":[{"doseQuantity":{"value":5.6,"unit":"TAB","system":"http://terminology.hl7.org/CodeSystem/v3-orderableDrugForm","code":"TAB"}}]}]},"request":{"method":"POST","url":"MedicationStatement"}},{"fullUrl":"Encounter/de74f5bc-b37e-462c-9765-1e76f8afb170","resource":{"resourceType":"Encounter","id":"de74f5bc-b37e-462c-9765-1e76f8afb170","status":"finished","class":{"system":"http://terminology.hl7.org/CodeSystem/v3-ActCode","code":"IMP","display":"inpatient encounter"},"type":[{"coding":[{"system":"http://terminology.hl7.org/CodeSystem/encounter-type","code":"ADMS"}]}],"subject":{"reference":"Patient/abe62859-dd7d-4a26-88b3-8fcb0c5b3c17"},"period":{"start":"2022-03-03T00:00:00+00:00","end":"2022-03-07T00:00:00+00:00"}},"request":{"method":"POST","url":"Encounter"}},{"fullUrl":"Encounter/5726f6e5-6ce5-45c3-906c-1b1c5b0547d0","resource":{"resourceType":"Encounter","id":"5726f6e5-6ce5-45c3-906c-1b1c5b0547d0","status":"finished","class":{"system":"http://terminology.hl7.org/CodeSystem/v3-ActCode","code":"IMP","display":"inpatient encounter"},"type":[{"coding":[{"system":"http://terminology.hl7.org/CodeSystem/encounter-type","code":"BD/BM-clin"}]}],"subject":{"reference":"Patient/abe62859-dd7d-4a26-88b3-8fcb0c5b3c17"},"period":{"start":"2022-02-17T00:00:00+00:00","end":"2022-02-24T00:00:00+00:00"}},"request":{"method":"POST","url":"Encounter"}},{"fullUrl":"Encounter/f848dc85-7032-413f-a655-24dcc38b7a6b","resource":{"resourceType":"Encounter","id":"f848dc85-7032-413f-a655-24dcc38b7a6b","status":"finished","class":{"system":"http://terminology.hl7.org/CodeSystem/v3-ActCode","code":"IMP","display":"inpatient encounter"},"type":[{"coding":[{"system":"http://terminology.hl7.org/CodeSystem/encounter-type","code":"CCS60"}]}],"subject":{"reference":"Patient/abe62859-dd7d-4a26-88b3-8fcb0c5b3c17"},"period":{"start":"2022-08-28T00:00:00+00:00","end":"2022-09-06T00:00:00+00:00"}},"request":{"method":"POST","url":"Encounter"}},{"fullUrl":"Encounter/9608b544-b4b2-4b72-b7ed-793ea7b60456","resource":{"resourceType":"Encounter","id":"9608b544-b4b2-4b72-b7ed-793ea7b60456","status":"finished","class":{"system":"http://terminology.hl7.org/CodeSystem/v3-ActCode","code":"AMB","display":"ambulatory"},"type":[{"coding":[{"system":"http://terminology.hl7.org/CodeSystem/encounter-type","code":"BD/BM-clin"}]}],"subject":{"reference":"Patient/abe62859-dd7d-4a26-88b3-8fcb0c5b3c17"},"period":{"start":"2022-12-16T00:00:00+00:00","end":"2022-12-24T00:00:00+00:00"}},"request":{"method":"POST","url":"Encounter"}},{"fullUrl":"Encounter/4684f2c3-23f5-4863-86f5-fcf1d1342448","resource":{"resourceType":"Encounter","id":"4684f2c3-23f5-4863-86f5-fcf1d1342448","status":"finished","class":{"system":"http://terminology.hl7.org/CodeSystem/v3-ActCode","code":"VR","display":"virtual"},"type":[{"coding":[{"system":"http://terminology.hl7.org/CodeSystem/encounter-type","code":"OKI"}]}],"subject":{"reference":"Patient/abe62859-dd7d-4a26-88b3-8fcb0c5b3c17"},"period":{"start":"2022-11-28T00:00:00+00:00","end":"2022-11-29T00:00:00+00:00"}},"request":{"method":"POST","url":"Encounter"}},{"fullUrl":"Encounter/41f6bebd-91b1-4611-abeb-396d3f3cbea9","resource":{"resourceType":"Encounter","id":"41f6bebd-91b1-4611-abeb-396d3f3cbea9","status":"finished","class":{"system":"http://terminology.hl7.org/CodeSystem/v3-ActCode","code":"OBSENC","display":"observation encounter"},"type":[{"coding":[{"system":"http://terminology.hl7.org/CodeSystem/encounter-type","code":"CCS60"}]}],"subject":{"reference":"Patient/abe62859-dd7d-4a26-88b3-8fcb0c5b3c17"},"period":{"start":"2022-09-08T00:00:00+00:00","end":"2022-09-11T00:00:00+00:00"}},"request":{"method":"POST","url":"Encounter"}},{"fullUrl":"Patient/08145f1b-6879-4c7c-b9a6-301f50a89ff2","resource":{"resourceType":"Patient","id":"08145f1b-6879-4c7c-b9a6-301f50a89ff2","identifier":[{"type":{"coding":[{"system":"http://terminology.hl7.org/CodeSystem/v2-0203","code":"MR"}]},"system":"urn:fhirgen:mrn","value":"377-47-2906"}],"name":[{"family":"Crawford","given":["Cheryl"]}],"gender":"other","birthDate":"1992-02-11","address":[{"line":["010 Melissa Mews"],"city":"Lambertborough","state":"Hawaii"}]},"request":{"method":"POST","url":"Patient"}},{"fullUrl":"Observation/ddbbb695-3744-4629-b6e0-f5e79f8116b9","resource":{"resourceType":"Observation","id":"ddbbb695-3744-4629-b6e0-f5e79f8116b9","status":"final","code":{"coding":[{"system":"http://loinc.org","code":"22590-4"}]},"subject":{"reference":"Patient/08145f1b-6879-4c7c-b9a6-301f50a89ff2"},"effectiveDateTime":"2022-09-01T00:00:00+00:00","valueRatio":{"numerator":{"value":1.0},"denominator":{"value":32.0}}},"request":{"method":"POST","url":"Observation"}},{"fullUrl":"Observation/fb05a15b-0311-4766-bd04-ad5783a6f15d","resource":{"resourceType":"Observation","id":"fb05a15b-0311-4766-bd04-ad5783a6f15d","status":"final","code":{"coding":[{"system":"http://loinc.org","code":"50690-7"}]},"subject":{"reference":"Patient/08145f1b-6879-4c7c-b9a6-301f50a89ff2"},"effectiveDateTime":"2022-05-29T00:00:00+00:00","valueRatio":{"numerator":{"value":1.0},"denominator":{"value":32.0}}},"request":{"method":"POST","url":"Observation"}},{"fullUrl":"Observation/30f02cd4-3b77-4cb1-a41f-e52e79b86e40","resource":{"resourceType":"Observation","id":"30f02cd4-3b77-4cb1-a41f-e52e79b86e40","status":"final","code":{"coding":[{"system":"http://loinc.org","code":"47476-7"}]},"subject":{"reference":"Patient/08145f1b-6879-4c7c-b9a6-301f50a89ff2"},"effectiveDateTime":"2022-01-24T00:00:00+00:00","valueRatio":{"numerator":{"value":1.0},"denominator":{"value":32.0}}},"request":{"method":"POST","url":"Observation"}},{"fullUrl":"Condition/b713e6cb-f0e0-4e6d-9ad9-2fa7ae5b24b2","resource":{"resourceType":"Condition","id":"b713e6cb-f0e0-4e6d-9ad9-2fa7ae5b24b2","code":{"coding":[{"system":"http://snomed.info/sct","code":"736686006"}]},"subject":{"reference":"Patient/08145f1b-6879-4c7c-b9a6-301f50a89ff2"},"onsetDateTime":"2022-10-11T00:00:00+00:00"},"request":{"method":"POST","url":"Condition"}},{"fullUrl":"Condition/9f6da0d4-3d9f-41d6-98e3-cd3aec1a0471","resource":{"resourceType":"Condition","id":"9f6da0d4-3d9f-41d6-98e3-cd3aec1a0471","code":{"coding":[{"system":"http://snomed.info/sct","code":"418290006"}]},"subject":{"reference":"Patient/08145f1b-6879-4c7c-b9a6-301f50a89ff2"},"onsetDateTime":"2022-01-26T00:00:00+00:00"},"request":{"method":"POST","url":"Condition"}},{"fullUrl":"Condition/7743b0b4-3e55-465d-bf95-6300c3746706","resource":{"resourceType":"Condition","id":"7743b0b4-3e55-465d-bf95-6300c3746706","code":{"coding":[{"system":"http://snomed.info/sct","code":"736686006"}]},"subject":{"reference":"Patient/08145f1b-6879-4c7c-b9a6-301f50a89ff2"},"onsetDateTime":"2022-12-29T00:00:00+00:00"},"request":{"method":"POST","url":"Condition"}},{"fullUrl":"Observation/0ed81cce-8bb3-42bb-8adc-dd11d9705f74","resource":{"resourceType":"Observation","id":"0ed81cce-8bb3-42bb-8adc-dd11d9705f74","status":"final","code":{"coding":[{"system":"http://loinc.org","code":"26464-8"}]},"subject":{"reference":"Patient/08145f1b-6879-4c7c-b9a6-301f50a89ff2"},"effectiveDateTime":"2022-04-03T00:00:00+00:00","valueQuantity":{"value":5.3}},"request":{"method":"POST","url":"Observation"}},{"fullUrl":"Observation/d4598797-a0a6-4f51-ae02-ba8cfd1036bd","resource":{"resourceType":"Observation","id":"d4598797-a0a6-4f51-ae02-ba8cfd1036bd","status":"final","code":{"coding":[{"system":"http://loinc.org","code":"49498-9"}]},"subject":{"reference":"Patient/08145f1b-6879-4c7c-b9a6-301f50a89ff2"},"effectiveDateTime":"2022-11-12T00:00:00+00:00","valueQuantity":{"value":6.9}},"request":{"method":"POST","url":"Observation"}},{"fullUrl":"Observation/98a934da-5719-4481-9791-844317e6e271","resource":{"resourceType":"Observation","id":"98a934da-5719-4481-9791-844317e6e271","status":"final","code":{"coding":[{"system":"http://loinc.org","code":"49498-9"}]},"subject":{"reference":"Patient/08145f1b-6879-4c7c-b9a6-301f50a89ff2"},"effectiveDateTime":"2022-01-23T00:00:00+00:00","valueQuantity":{"value":10.0}},"request":{"method":"POST","url":"Observation"}},{"fullUrl":"Procedure/bcc3f703-8887-49ef-a740-bd6d61a3fa81","resource":{"resourceType":"Procedure","id":"bcc3f703-8887-49ef-a740-bd6d61a3fa81","status":"completed","code":{"coding":[{"system":"http://snomed.info/sct","code":"647000"}]},"subject":{"reference":"Patient/08145f1b-6879-4c7c-b9a6-301f50a89ff2"},"performedDateTime":"2022-03-13T00:00:00+00:00"},"request":{"method":"POST","url":"Procedure"}},{"fullUrl":"Procedure/6dea49d1-6e50-4c8c-afa6-67be7e601e29","resource":{"resourceType":"Procedure","id":"6dea49d1-6e50-4c8c-afa6-67be7e601e29","status":"completed","code":{"coding":[{"system":"http://snomed.info/sct","code":"104001"}]},"subject":{"reference":"Patient/08145f1b-6879-4c7c-b9a6-301f50a89ff2"},"performedDateTime":"2022-09-07T00:00:00+00:00"},"request":{"method":"POST","url":"Procedure"}},{"fullUrl":"Procedure/fa9577dc-21db-4a12-8586-346206d948a9","resource":{"resourceType":"Procedure","id":"fa9577dc-21db-4a12-8586-346206d948a9","status":"completed","code":{"coding":[{"system":"http://snomed.info/sct","code":"115006"}]},"subject":{"reference":"Patient/08145f1b-6879-4c7c-b9a6-301f50a89ff2"},"performedDateTime":"2022-10-01T00:00:00+00:00"},"request":{"method":"POST","url":"Procedure"}},{"fullUrl":"MedicationStatement/0cd1c4c8-973c-443d-bd36-6643b11e0d31","resource":{"resourceType":"MedicationStatement","id":"0cd1c4c8-973c-443d-bd36-6643b11e0d31","status":"completed","medicationCodeableConcept":{"coding":[{"system":"http://www.nlm.nih.gov/research/umls/rxnorm","code":"7980"}]},"subject":{"reference":"Patient/08145f1b-6879-4c7c-b9a6-301f50a89ff2"},"effectiveDateTime":"2022-09-09T00:00:00+00:00","dosage":[{"doseAndRate":[{"doseQuantity":{"value":2.0,"unit":"TAB","system":"http://terminology.hl7.org/CodeSystem/v3-orderableDrugForm","code":"TAB"}}]}]},"request":{"method":"POST","url":"MedicationStatement"}},{"fullUrl":"MedicationStatement/eeeaeabd-fce2-43ab-a0e8-99c82c3cceac","resource":{"resourceType":"MedicationStatement","id":"eeeaeabd-fce2-43ab-a0e8-99c82c3cceac","status":"completed","medicationCodeableConcept":{"coding":[{"system":"http://www.nlm.nih.gov/research/umls/rxnorm","code":"2193"}]},"subject":{"reference":"Patient/08145f1b-6879-4c7c-b9a6-301f50a89ff2"},"effectiveDateTime":"2022-11-08T00:00:00+00:00","dosage":[{"doseAndRate":[{"doseQuantity":{"value":2.0,"unit":"TAB","system":"http://terminology.hl7.org/CodeSystem/v3-orderableDrugForm","code":"TAB"}}]}]},"request":{"method":"POST","url":"MedicationStatement"}},{"fullUrl":"MedicationStatement/fa12f04b-8870-45dc-a73f-be0f4af1e536","resource":{"resourceType":"MedicationStatement","id":"fa12f04b-8870-45dc-a73f-be0f4af1e536","status":"completed","medicationCodeableConcept":{"coding":[{"system":"http://www.nlm.nih.gov/research/umls/rxnorm","code":"7980"}]},"subject":{"reference":"Patient/08145f1b-6879-4c7c-b9a6-301f50a89ff2"},"effectiveDateTime":"2022-02-01T00:00:00+00:00","dosage":[{"doseAndRate":[{"doseQuantity":{"value":3.0,"unit":"TAB","system":"http://terminology.hl7.org/CodeSystem/v3-orderableDrugForm","code":"TAB"}}]}]},"request":{"method":"POST","url":"MedicationStatement"}},{"fullUrl":"Encounter/4fd6ae22-610c-429d-af7b-2f82998cb1f6","resource":{"resourceType":"Encounter","id":"4fd6ae22-610c-429d-af7b-2f82998cb1f6","status":"finished","class":{"system":"http://terminology.hl7.org/CodeSystem/v3-ActCode","code":"IMP","display":"inpatient encounter"},"type":[{"coding":[{"system":"http://terminology.hl7.org/CodeSystem/encounter-type","code":"BD/BM-clin"}]}],"subject":{"reference":"Patient/08145f1b-6879-4c7c-b9a6-301f50a89ff2"},"period":{"start":"2022-06-26T00:00:00+00:00","end":"2022-06-30T00:00:00+00:00"}},"request":{"method":"POST","url":"Encounter"}},{"fullUrl":"Encounter/6b64b720-96dc-4fc5-ae33-043925b28cb4","resource":{"resourceType":"Encounter","id":"6b64b720-96dc-4fc5-ae33-043925b28cb4","status":"finished","class":{"system":"http://terminology.hl7.org/CodeSystem/v3-ActCode","code":"IMP","display":"inpatient encounter"},"type":[{"coding":[{"system":"http://terminology.hl7.org/CodeSystem/encounter-type","code":"OKI"}]}],"subject":{"reference":"Patient/08145f1b-6879-4c7c-b9a6-301f50a89ff2"},"period":{"start":"2022-08-08T00:00:00+00:00","end":"2022-08-11T00:00:00+00:00"}},"request":{"method":"POST","url":"Encounter"}},{"fullUrl":"Encounter/80f92481-1430-4f71-82dc-f049ec17a5b4","resource":{"resourceType":"Encounter","id":"80f92481-1430-4f71-82dc-f049ec17a5b4","status":"finished","class":{"system":"http://terminology.hl7.org/CodeSystem/v3-ActCode","code":"IMP","display":"inpatient encounter"},"type":[{"coding":[{"system":"http://terminology.hl7.org/CodeSystem/encounter-type","code":"ADMS"}]}],"subject":{"reference":"Patient/08145f1b-6879-4c7c-b9a6-301f50a89ff2"},"period":{"start":"2022-07-13T00:00:00+00:00","end":"2022-07-20T00:00:00+00:00"}},"request":{"method":"POST","url":"Encounter"}},{"fullUrl":"Encounter/57810b15-9385-4436-8dc5-2969b4ce6c25","resource":{"resourceType":"Encounter","id":"57810b15-9385-4436-8dc5-2969b4ce6c25","status":"finished","class":{"system":"http://terminology.hl7.org/CodeSystem/v3-ActCode","code":"EMER","display":"emergency"},"type":[{"coding":[{"system":"http://terminology.hl7.org/CodeSystem/encounter-type","code":"OKI"}]}],"subject":{"reference":"Patient/08145f1b-6879-4c7c-b9a6-301f50a89ff2"},"period":{"start":"2022-09-19T00:00:00+00:00","end":"2022-09-21T00:00:00+00:00"}},"request":{"method":"POST","url":"Encounter"}},{"fullUrl":"Encounter/9859e72f-24ad-4f14-865c-a93002c886f9","resource":{"resourceType":"Encounter","id":"9859e72f-24ad-4f14-865c-a93002c886f9","status":"finished","class":{"system":"http://terminology.hl7.org/CodeSystem/v3-ActCode","code":"ACUTE","display":"inpatient acute"},"type":[{"coding":[{"system":"http://terminology.hl7.org/CodeSystem/encounter-type","code":"OKI"}]}],"subject":{"reference":"Patient/08145f1b-6879-4c7c-b9a6-301f50a89ff2"},"period":{"start":"2022-03-12T00:00:00+00:00","end":"2022-03-20T00:00:00+00:00"}},"request":{"method":"POST","url":"Encounter"}}]}