{"resourceType":"Bundle","id":"8ff032a0-fe12-4f47-bb42-c2e1139ceda6","type":"transaction","entry":[{"fullUrl":"Patient/20413f4c-bd46-44bc-8fe7-ef65a2389177","resource":{"resourceType":"Patient","id":"20413f4c-bd46-44bc-8fe7-ef65a2389177","identifier":[{"type":{"coding":[{"system":"http://terminology.hl7.org/CodeSystem/v2-0203","code":"MR"}]},"system":"urn:fhirgen:mrn","value":"767-95-4768"},{"system":"http://hl7.org/fhir/sid/us-ssn","value":"346-84-1405"}],"name":[{"use":"official","family":"Hernandez","given":["David"]},{"use":"maiden","family":"Wright"}],"telecom":[{"system":"phone","value":"509-299-9050","use":"work"},{"system":"email","value":"dyerjoshua@gmail.com","use":"mobile"}],"gender":"male","birthDate":"1983-03-06","address":[{"use":"home","line":["747 Jennifer Turnpike"],"city":"West Anthonystad","state":"AR","postalCode":"45699"},{"use":"old","line":["769 Colleen Burgs Suite 542"],"city":"South Joseph","state":"AL","postalCode":"98357"}],"maritalStatus":{"coding":[{"system":"http://terminology.hl7.org/CodeSystem/v3-MaritalStatus","code":"L","display":"Legally Separated"}]}},"request":{"method":"POST","url":"Patient"}},{"fullUrl":"Observation/4576a0be-b8ee-4117-9bfd-c6caf8a13d2f","resource":{"resourceType":"Observation","id":"4576a0be-b8ee-4117-9bfd-c6caf8a13d2f","status":"final","code":{"coding":[{"system":"http://loinc.org","code":"51475-2"}]},"subject":{"reference":"Patient/20413f4c-bd46-44bc-8fe7-ef65a2389177"},"effectiveDateTime":"2022-07-03T00:00:00+00:00","valueRatio":{"numerator":{"value":1},"denominator":{"value":32}}},"request":{"method":"POST","url":"Observation"}},{"fullUrl":"Observation/f04ba0d0-0ed2-4102-9c7f-c05fdee0ad04","resource":{"resourceType":"Observation","id":"f04ba0d0-0ed2-4102-9c7f-c05fdee0ad04","status":"final","code":{"coding":[{"system":"http://loinc.org","code":"5394-2"}]},"subject":{"reference":"Patient/20413f4c-bd46-44bc-8fe7-ef65a2389177"},"effectiveDateTime":"2022-09-29T00:00:00+00:00","valueRatio":{"numerator":{"value":1},"denominator":{"value":4}}},"request":{"method":"POST","url":"Observation"}},{"fullUrl":"Condition/67d857d0-a873-48d3-accb-b40827a1c81a","resource":{"resourceType":"Condition","id":"67d857d0-a873-48d3-accb-b40827a1c81a","code":{"coding":[{"system":"http://snomed.info/sct","code":"418290006"}]},"subject":{"reference":"Patient/20413f4c-bd46-44bc-8fe7-ef65a2389177"},"onsetDateTime":"2022-08-26T00:00:00+00:00"},"request":{"method":"POST","url":"Condition"}},{"fullUrl":"Condition/7db5bc58-4135-4e15-8bdd-4a87207dfc50","resource":{"resourceType":"Condition","id":"7db5bc58-4135-4e15-8bdd-4a87207dfc50","code":{"coding":[{"system":"http://snomed.info/sct","code":"71315007"}]},"subject":{"reference":"Patient/20413f4c-bd46-44bc-8fe7-ef65a2389177"},"onsetDateTime":"2022-10-17T00:00:00+00:00"},"request":{"method":"POST","url":"Condition"}},{"fullUrl":"Condition/402478e2-7046-4ef4-9e69-68e99b444839","resource":{"resourceType":"Condition","id":"402478e2-7046-4ef4-9e69-68e99b444839","code":{"coding":[{"system":"http://snomed.info/sct","code":"91554004"}]},"subject":{"reference":"Patient/20413f4c-bd46-44bc-8fe7-ef65a2389177"},"onsetDateTime":"2022-06-09T00:00:00+00:00"},"request":{"method":"POST","url":"Condition"}},{"fullUrl":"Condition/793fd550-4eeb-4a10-974c-d8f0fc1c7448","resource":{"resourceType":"Condition","id":"793fd550-4eeb-4a10-974c-d8f0fc1c7448","code":{"coding":[{"system":"http://snomed.info/sct","code":"271939006"}]},"subject":{"reference":"Patient/20413f4c-bd46-44bc-8fe7-ef65a2389177"},"onsetDateTime":"2022-11-12T00:00:00+00:00"},"request":{"method":"POST","url":"Condition"}},{"fullUrl":"Observation/7f274f73-90e6-4a85-a023-b59cb323b84f","resource":{"resourceType":"Observation","id":"7f274f73-90e6-4a85-a023-b59cb323b84f","status":"final","code":{"coding":[{"system":"http://loinc.org","code":"49498-9"}]},"subject":{"reference":"Patient/20413f4c-bd46-44bc-8fe7-ef65a2389177"},"effectiveDateTime":"2022-06-27T00:00:00+00:00","valueQuantity":{"value":9.4}},"request":{"method":"POST","url":"Observation"}},{"fullUrl":"Observation/16fa112c-cb65-48bf-ab0e-dcbd1affb0aa","resource":{"resourceType":"Observation","id":"16fa112c-cb65-48bf-ab0e-dcbd1affb0aa","status":"final","code":{"coding":[{"system":"http://loinc.org","code":"804-5"}]},"subject":{"reference":"Patient/20413f4c-bd46-44bc-8fe7-ef65a2389177"},"effectiveDateTime":"2022-02-07T00:00:00+00:00","valueQuantity":{"value":5.2}},"request":{"method":"POST","url":"Observation"}},{"fullUrl":"Observation/63ee95cc-bd5b-408c-aa21-047d7272b217","resource":{"resourceType":"Observation","id":"63ee95cc-bd5b-408c-aa21-047d7272b217","status":"final","code":{"coding":[{"system":"http://loinc.org","code":"6690-2"}]},"subject":{"reference":"Patient/20413f4c-bd46-44bc-8fe7-ef65a2389177"},"effectiveDateTime":"2022-10-12T00:00:00+00:00","valueCodeableConcept":{"coding":[{"system":"snomed","code":"123456","display":"fake snomed"}]}},"request":{"method":"POST","url":"Observation"}},{"fullUrl":"Observation/6711d5c8-dccc-456c-b289-53806f34ff73","resource":{"resourceType":"Observation","id":"6711d5c8-dccc-456c-b289-53806f34ff73","status":"final","code":{"coding":[{"system":"http://loinc.org","code":"6690-2"}]},"subject":{"reference":"Patient/20413f4c-bd46-44bc-8fe7-ef65a2389177"},"effectiveDateTime":"2022-05-17T00:00:00+00:00","valueCodeableConcept":{"coding":[{"system":"snomed","code":"123456","display":"fake snomed"}]}},"request":{"method":"POST","url":"Observation"}},{"fullUrl":"Observation/8788a2b0-338b-4b7e-8a2d-92152a5cbdcd","resource":{"resourceType":"Observation","id":"8788a2b0-338b-4b7e-8a2d-92152a5cbdcd","status":"final","code":{"coding":[{"system":"http://loinc.org","code":"49498-9"}]},"subject":{"reference":"Patient/20413f4c-bd46-44bc-8fe7-ef65a2389177"},"effectiveDateTime":"2022-07-13T00:00:00+00:00"},"request":{"method":"POST","url":"Observation"}},{"fullUrl":"Observation/0540bedb-a941-4716-8ef5-a81d94c8ec2b","resource":{"resourceType":"Observation","id":"0540bedb-a941-4716-8ef5-a81d94c8ec2b","status":"final","code":{"coding":[{"system":"http://loinc.org","code":"49498-9"}]},"subject":{"reference":"Patient/20413f4c-bd46-44bc-8fe7-ef65a2389177"},"effectiveDateTime":"2022-01-20T00:00:00+00:00"},"request":{"method":"POST","url":"Observation"}},{"fullUrl":"Procedure/2afb3828-ee81-4df7-b62a-59480918155f","resource":{"resourceType":"Procedure","id":"2afb3828-ee81-4df7-b62a-59480918155f","status":"completed","code":{"coding":[{"system":"http://snomed.info/sct","code":"647000"}]},"subject":{"reference":"Patient/20413f4c-bd46-44bc-8fe7-ef65a2389177"},"performedDateTime":"2022-09-11T00:00:00+00:00"},"request":{"method":"POST","url":"Procedure"}},{"fullUrl":"Procedure/9ace97a0-5315-474a-8145-dc8e6fc56f50","resource":{"resourceType":"Procedure","id":"9ace97a0-5315-474a-8145-dc8e6fc56f50","status":"completed","code":{"coding":[{"system":"http://snomed.info/sct","code":"146005"}]},"subject":{"reference":"Patient/20413f4c-bd46-44bc-8fe7-ef65a2389177"},"performedDateTime":"2022-03-18T00:00:00+00:00"},"request":{"method":"POST","url":"Procedure"}},{"fullUrl":"Procedure/ec9831f5-063c-4c70-88a0-4488de1405ac","resource":{"resourceType":"Procedure","id":"ec9831f5-063c-4c70-88a0-4488de1405ac","status":"completed","code":{"coding":[{"system":"http://snomed.info/sct","code":"647000"}]},"subject":{"reference":"Patient/20413f4c-bd46-44bc-8fe7-ef65a2389177"},"performedDateTime":"2022-06-22T00:00:00+00:00"},"request":{"method":"POST","url":"Procedure"}},{"fullUrl":"MedicationStatement/aa22f0db-2448-4d0b-b8ac-24f2847cbb4b","resource":{"resourceType":"MedicationStatement","id":"aa22f0db-2448-4d0b-b8ac-24f2847cbb4b","status":"completed","medicationCodeableConcept":{"coding":[{"system":"http://www.nlm.nih.gov/research/umls/rxnorm","code":"10395"}]},"subject":{"reference":"Patient/20413f4c-bd46-44bc-8fe7-ef65a2389177"},"effectiveDateTime":"2022-12-30T00:00:00+00:00","dosage":[{"doseAndRate":[{"doseQuantity":{"value":2,"unit":"TAB","system":"http://terminology.hl7.org/CodeSystem/v3-orderableDrugForm","code":"TAB"}}]}]},"request":{"method":"POST","url":"MedicationStatement"}},{"fullUrl":"MedicationStatement/421baeee-2b17-47a9-9b7d-5be9d04cd7bd","resource":{"resourceType":"MedicationStatement","id":"421baeee-2b17-47a9-9b7d-5be9d04cd7bd","status":"completed","medicationCodeableConcept":{"coding":[{"system":"http://www.nlm.nih.gov/research/umls/rxnorm","code":"18631"}]},"subject":{"reference":"Patient/20413f4c-bd46-44bc-8fe7-ef65a2389177"},"effectiveDateTime":"2022-12-01T00:00:00+00:00","dosage":[{"doseAndRate":[{"doseQuantity":{"value":1,"unit":"TAB","system":"http://terminology.hl7.org/CodeSystem/v3-orderableDrugForm","code":"TAB"}}]}]},"request":{"method":"POST","url":"MedicationStatement"}},{"fullUrl":"MedicationStatement/3f8bae27-d96e-4dc8-9227-2df8482711c6","resource":{"resourceType":"MedicationStatement","id":"3f8bae27-d96e-4dc8-9227-2df8482711c6","status":"completed","medicationCodeableConcept":{"coding":[{"system":"http://www.nlm.nih.gov/research/umls/rxnorm","code":"8698"}]},"subject":{"reference":"Patient/20413f4c-bd46-44bc-8fe7-ef65a2389177"},"effectiveDateTime":"2022-01-31T00:00:00+00:00","dosage":[{"doseAndRate":[{"doseQuantity":{"value":1,"unit":"TAB","system":"http://terminology.hl7.org/CodeSystem/v3-orderableDrugForm","code":"TAB"}}]}]},"request":{"method":"POST","url":"MedicationStatement"}},{"fullUrl":"MedicationStatement/4b8f06d5-dbad-4772-a852-3cabdc857408","resource":{"resourceType":"MedicationStatement","id":"4b8f06d5-dbad-4772-a852-3cabdc857408","status":"completed","medicationCodeableConcept":{"coding":[{"system":"http://www.nlm.nih.gov/research/umls/rxnorm","code":"3640"}]},"subject":{"reference":"Patient/20413f4c-bd46-44bc-8fe7-ef65a2389177"},"effectiveDateTime":"2022-02-03T00:00:00+00:00","dosage":[{"doseAndRate":[{"doseQuantity":{"value":2,"unit":"TAB","system":"http://terminology.hl7.org/CodeSystem/v3-orderableDrugForm","code":"TAB"}}]}]},"request":{"method":"POST","url":"MedicationStatement"}},{"fullUrl":"MedicationStatement/a11b1d60-f3ac-4e17-8a52-cef8b474ab16","resource":{"resourceType":"MedicationStatement","id":"a11b1d60-f3ac-4e17-8a52-cef8b474ab16","status":"completed","medicationCodeableConcept":{"coding":[{"system":"http://www.nlm.nih.gov/research/umls/rxnorm","code":"2193"}]},"subject":{"reference":"Patient/20413f4c-bd46-44bc-8fe7-ef65a2389177"},"effectiveDateTime":"2022-01-04T00:00:00+00:00","dosage":[{"doseAndRate":[{"doseQuantity":{"value":3.7,"unit":"TAB","system":"http://terminology.hl7.org/CodeSystem/v3-orderableDrugForm","code":"TAB"}}]}]},"request":{"method":"POST","url":"MedicationStatement"}},{"fullUrl":"MedicationStatement/7c40cf97-a334-4bd8-bfc3-5f8399901eb3","resource":{"resourceType":"MedicationStatement","id":"7c40cf97-a334-4bd8-bfc3-5f8399901eb3","status":"completed","medicationCodeableConcept":{"coding":[{"system":"http://www.nlm.nih.gov/research/umls/rxnorm","code":"7980"}]},"subject":{"reference":"Patient/20413f4c-bd46-44bc-8fe7-ef65a2389177"},"effectiveDateTime":"2022-11-15T00:00:00+00:00","dosage":[{"doseAndRate":[{"doseQuantity":{"value":3.6,"unit":"TAB","system":"http://terminology.hl7.org/CodeSystem/v3-orderableDrugForm","code":"TAB"}}]}]},"request":{"method":"POST","url":"MedicationStatement"}},{"fullUrl":"MedicationStatement/00858d4a-35c8-4631-8b5f-aabdd0a8d9bf","resource":{"resourceType":"MedicationStatement","id":"00858d4a-35c8-4631-8b5f-aabdd0a8d9bf","status":"completed","medicationCodeableConcept":{"coding":[{"system":"http://www.nlm.nih.gov/research/umls/rxnorm","code":"2193"}]},"subject":{"reference":"Patient/20413f4c-bd46-44bc-8fe7-ef65a2389177"},"effectiveDateTime":"2022-03-04T00:00:00+00:00","dosage":[{"doseAndRate":[{"doseQuantity":{"value":3.3,"unit":"TAB","system":"http://terminology.hl7.org/CodeSystem/v3-orderableDrugForm","code":"TAB"}}]}]},"request":{"method":"POST","url":"MedicationStatement"}},{"fullUrl":"Encounter/755a7c0b-4fe8-4805-8bbb-379f15e6a29b","resource":{"resourceType":"Encounter","id":"755a7c0b-4fe8-4805-8bbb-379f15e6a29b","status":"finished","class":{"system":"http://terminology.hl7.org/CodeSystem/v3-ActCode","code":"IMP","display":"inpatient encounter"},"type":[{"coding":[{"system":"http://terminology.hl7.org/CodeSystem/encounter-type","code":"BD/BM-clin"}]}],"subject":{"reference":"Patient/20413f4c-bd46-44bc-8fe7-ef65a2389177"},"period":{"start":"2022-10-09T00:00:00+00:00","end":"2022-10-14T00:00:00+00:00"}},"request":{"method":"POST","url":"Encounter"}},{"fullUrl":"Encounter/09276e43-03ec-4a04-b0bb-2339bc841bdf","resource":{"resourceType":"Encounter","id":"09276e43-03ec-4a04-b0bb-2339bc841bdf","status":"finished","class":{"system":"http://terminology.hl7.org/CodeSystem/v3-ActCode","code":"IMP","display":"inpatient encounter"},"type":[{"coding":[{"system":"http://terminology.hl7.org/CodeSystem/encounter-type","code":"OKI"}]}],"subject":{"reference":"Patient/20413f4c-bd46-44bc-8fe7-ef65a2389177"},"period":{"start":"2022-06-29T00:00:00+00:00","end":"2022-06-30T00:00:00+00:00"}},"request":{"method":"POST","url":"Encounter"}},{"fullUrl":"Encounter/ad612b16-f455-4f23-9c61-e42ceac2b6da","resource":{"resourceType":"Encounter","id":"ad612b16-f455-4f23-9c61-e42ceac2b6da","status":"finished","class":{"system":"http://terminology.hl7.org/CodeSystem/v3-ActCode","code":"IMP","display":"inpatient encounter"},"type":[{"coding":[{"system":"http://terminology.hl7.org/CodeSystem/encounter-type","code":"BD/BM-clin"}]}],"subject":{"reference":"Patient/20413f4c-bd46-44bc-8fe7-ef65a2389177"},"period":{"start":"2022-12-17T00:00:00+00:00","end":"2022-12-25T00:00:00+00:00"}},"request":{"method":"POST","url":"Encounter"}},{"fullUrl":"Encounter/6ecb6eec-2085-4a58-9e3e-6be6f25c62ee","resource":{"resourceType":"Encounter","id":"6ecb6eec-2085-4a58-9e3e-6be6f25c62ee","status":"finished","class":{"system":"http://terminology.hl7.org/CodeSystem/v3-ActCode","code":"ACUTE","display":"inpatient acute"},"type":[{"coding":[{"system":"http://terminology.hl7.org/CodeSystem/encounter-type","code":"OKI"}]}],"subject":{"reference":"Patient/20413f4c-bd46-44bc-8fe7-ef65a2389177"},"period":{"start":"2022-08-16T00:00:00+00:00","end":"2022-08-21T00:00:00+00:00"}},"request":{"method":"POST","url":"Encounter"}},{"fullUrl":"Encounter/f1789eff-e644-408f-afb5-a0e3a7bea27a","resource":{"resourceType":"Encounter","id":"f1789eff-e644-408f-afb5-a0e3a7bea27a","status":"finished","class":{"system":"http://terminology.hl7.org/CodeSystem/v3-ActCode","code":"HH","display":"home health"},"type":[{"coding":[{"system":"http://terminology.hl7.org/CodeSystem/encounter-type","code":"OKI"}]}],"subject":{"reference":"Patient/20413f4c-bd46-44bc-8fe7-ef65a2389177"},"period":{"start":"2022-12-27T00:00:00+00:00","end":"2022-12-31T00:00:00+00:00"}},"request":{"method":"POST","url":"Encounter"}},{"fullUrl":"Encounter/d19dab8d-352f-435b-b611-c3df16cf4355","resource":{"resourceType":"Encounter","id":"d19dab8d-352f-435b-b611-c3df16cf4355","status":"finished","class":{"system":"http://terminology.hl7.org/CodeSystem/v3-ActCode","code":"SS","display":"short-stay"},"type":[{"coding":[{"system":"http://terminology.hl7.org/CodeSystem/encounter-type","code":"CCS60"}]}],"subject":{"reference":"Patient/20413f4c-bd46-44bc-8fe7-ef65a2389177"},"period":{"start":"2022-08-03T00:00:00+00:00","end":"2022-08-09T00:00:00+00:00"}},"request":{"method":"POST","url":"Encounter"}},{"fullUrl":"Location/7d62b33e-84f1-4d74-a7be-9191d5f49d08","resource":{"resourceType":"Location","id":"7d62b33e-84f1-4d74-a7be-9191d5f49d08","status":"active","name":"Reed-Watts","telecom":[{"system":"phone","value":"+1-582-169-7796x2389","use":"work"}],"address":{"use":"work","line":["180 Ramsey Mews"],"city":"Jeremyfurt","state":"IA","postalCode":"54429"}},"request":{"method":"POST","url":"Location"}},{"fullUrl":"Observation/00191faf-b43d-4b27-97d3-b21ae29150af","resource":{"resourceType":"Observation","id":"00191faf-b43d-4b27-97d3-b21ae29150af","status":"final","code":{"coding":[{"system":"http://loinc.org","code":"81956-5"}]},"subject":{"reference":"Patient/20413f4c-bd46-44bc-8fe7-ef65a2389177"},"effectiveDateTime":"2022-01-22T00:00:00+00:00","valueDateTime":"2021-10-21T00:00:00+00:00"},"request":{"method":"POST","url":"Observation"}},{"fullUrl":"Patient/e7422cce-8107-497c-8742-0e8de4452835","resource":{"resourceType":"Patient","id":"e7422cce-8107-497c-8742-0e8de4452835","identifier":[{"type":{"coding":[{"system":"http://terminology.hl7.org/CodeSystem/v2-0203","code":"MR"}]},"system":"urn:fhirgen:mrn","value":"263-45-4786"},{"system":"http://hl7.org/fhir/sid/us-ssn","value":"855-67-0364"}],"name":[{"use":"official","family":"Doyle","given":["William"]},{"use":"maiden","family":"Keller"}],"telecom":[{"system":"phone","value":"(697)536-2667x36742","use":"work"},{"system":"email","value":"kimberlypaul@gmail.com","use":"mobile"}],"gender":"male","birthDate":"1975-07-19","address":[{"use":"home","line":["2874 Frazier Dam"],"city":"Laurenside","state":"WA","postalCode":"66842"},{"use":"old","line":["47576 Glass Canyon"],"city":"Jonathonshire","state":"MT","postalCode":"07801"}],"maritalStatus":{"coding":[{"system":"http://terminology.hl7.org/CodeSystem/v3-MaritalStatus","code":"P","display":"Polygamous"}]}},"request":{"method":"POST","url":"Patient"}},{"fullUrl":"Observation/0bdeeb47-8e0e-49d8-9de2-cd3749c63ff3","resource":{"resourceType":"Observation","id":"0bdeeb47-8e0e-49d8-9de2-cd3749c63ff3","status":"final","code":{"coding":[{"system":"http://loinc.org","code":"46203-6"}]},"subject":{"reference":"Patient/e7422cce-8107-497c-8742-0e8de4452835"},"effectiveDateTime":"2022-09-11T00:00:00+00:00","valueRatio":{"numerator":{"value":1},"denominator":{"value":4}}},"request":{"method":"POST","url":"Observation"}},{"fullUrl":"Observation/9d16d092-f865-4223-9956-8cee1e0c5729","resource":{"resourceType":"Observation","id":"9d16d092-f865-4223-9956-8cee1e0c5729","status":"final","code":{"coding":[{"system":"http://loinc.org","code":"51475-2"}]},"subject":{"reference":"Patient/e7422cce-8107-497c-8742-0e8de4452835"},"effectiveDateTime":"2022-04-20T00:00:00+00:00","valueRatio":{"numerator":{"value":1},"denominator":{"value":32}}},"request":{"method":"POST","url":"Observation"}},{"fullUrl":"Condition/e7e13aa4-9ed7-4c62-8de6-6134939c6493","resource":{"resourceType":"Condition","id":"e7e13aa4-9ed7-4c62-8de6-6134939c6493","code":{"coding":[{"system":"http://snomed.info/sct","code":"31070006"}]},"subject":{"reference":"Patient/e7422cce-8107-497c-8742-0e8de4452835"},"onsetDateTime":"2022-03-14T00:00:00+00:00"},"request":{"method":"POST","url":"Condition"}},{"fullUrl":"Condition/cff85ecf-2e53-4229-a7e7-3ff324f47045","resource":{"resourceType":"Condition","id":"cff85ecf-2e53-4229-a7e7-3ff324f47045","code":{"coding":[{"system":"http://snomed.info/sct","code":"71315007"}]},"subject":{"reference":"Patient/e7422cce-8107-497c-8742-0e8de4452835"},"onsetDateTime":"2022-06-07T00:00:00+00:00"},"request":{"method":"POST","url":"Condition"}},{"fullUrl":"Condition/f72a3388-ea7b-4e62-9397-f8e89e1bce6f","resource":{"resourceType":"Condition","id":"f72a3388-ea7b-4e62-9397-f8e89e1bce6f","code":{"coding":[{"system":"http://snomed.info/sct","code":"386661006"}]},"subject":{"reference":"Patient/e7422cce-8107-497c-8742-0e8de4452835"},"onsetDateTime":"2022-05-29T00:00:00+00:00"},"request":{"method":"POST","url":"Condition"}},{"fullUrl":"Condition/f0fc95e9-ed81-4e66-ace5-32e85dc883eb","resource":{"resourceType":"Condition","id":"f0fc95e9-ed81-4e66-ace5-32e85dc883eb","code":{"coding":[{"system":"http://snomed.info/sct","code":"297123002"}]},"subject":{"reference":"Patient/e7422cce-8107-497c-8742-0e8de4452835"},"onsetDateTime":"2022-09-26T00:00:00+00:00"},"request":{"method":"POST","url":"Condition"}},{"fullUrl":"Condition/fedff456-be92-47dc-ae9f-e9137e18428b","resource":{"resourceType":"Condition","id":"fedff456-be92-47dc-ae9f-e9137e18428b","code":{"coding":[{"system":"http://snomed.info/sct","code":"271807003"}]},"subject":{"reference":"Patient/e7422cce-8107-497c-8742-0e8de4452835"},"onsetDateTime":"2022-03-08T00:00:00+00:00"},"request":{"method":"POST","url":"Condition"}},{"fullUrl":"Condition/a87a0915-a449-442d-aafe-c98e3ac74221","resource":{"resourceType":"Condition","id":"a87a0915-a449-442d-aafe-c98e3ac74221","code":{"coding":[{"system":"http://snomed.info/sct","code":"79342006"}]},"subject":{"reference":"Patient/e7422cce-8107-497c-8742-0e8de4452835"},"onsetDateTime":"2022-02-15T00:00:00+00:00"},"request":{"method":"POST","url":"Condition"}},{"fullUrl":"Condition/c2c12554-d49b-4dea-833d-6cfd53c5459c","resource":{"resourceType":"Condition","id":"c2c12554-d49b-4dea-833d-6cfd53c5459c","code":{"coding":[{"system":"http://snomed.info/sct","code":"198199009"}]},"subject":{"reference":"Patient/e7422cce-8107-497c-8742-0e8de4452835"},"onsetDateTime":"2022-08-14T00:00:00+00:00"},"request":{"method":"POST","url":"Condition"}},{"fullUrl":"Observation/80f4b8b7-8974-4072-934a-7c6954c272fc","resource":{"resourceType":"Observation","id":"80f4b8b7-8974-4072-934a-7c6954c272fc","status":"final","code":{"coding":[{"system":"http://loinc.org","code":"49498-9"}]},"subject":{"reference":"Patient/e7422cce-8107-497c-8742-0e8de4452835"},"effectiveDateTime":"2022-11-09T00:00:00+00:00","valueQuantity":{"value":5.4}},"request":{"method":"POST","url":"Observation"}},{"fullUrl":"Observation/f38f7cc3-a02a-494b-80c6-434a23b4a746","resource":{"resourceType":"Observation","id":"f38f7cc3-a02a-494b-80c6-434a23b4a746","status":"final","code":{"coding":[{"system":"http://loinc.org","code":"26464-8"}]},"subject":{"reference":"Patient/e7422cce-8107-497c-8742-0e8de4452835"},"effectiveDateTime":"2022-10-21T00:00:00+00:00","valueQuantity":{"value":8.1}},"request":{"method":"POST","url":"Observation"}},{"fullUrl":"Observation/3594a6aa-226b-4993-8326-20745329a9a0","resource":{"resourceType":"Observation","id":"3594a6aa-226b-4993-8326-20745329a9a0","status":"final","code":{"coding":[{"system":"http://loinc.org","code":"6690-2"}]},"subject":{"reference":"Patient/e7422cce-8107-497c-8742-0e8de4452835"},"effectiveDateTime":"2022-06-08T00:00:00+00:00","valueCodeableConcept":{"coding":[{"system":"snomed","code":"123456","display":"fake snomed"}]}},"request":{"method":"POST","url":"Observation"}},{"fullUrl":"Observation/65d4b423-bee6-442e-a671-83ec6238a00e","resource":{"resourceType":"Observation","id":"65d4b423-bee6-442e-a671-83ec6238a00e","status":"final","code":{"coding":[{"system":"http://loinc.org","code":"804-5"}]},"subject":{"reference":"Patient/e7422cce-8107-497c-8742-0e8de4452835"},"effectiveDateTime":"2022-03-07T00:00:00+00:00","valueCodeableConcept":{"coding":[{"system":"snomed","code":"123456","display":"fake snomed"}]}},"request":{"method":"POST","url":"Observation"}},{"fullUrl":"Observation/ff874bf3-0331-450a-8794-ff7467a329b9","resource":{"resourceType":"Observation","id":"ff874bf3-0331-450a-8794-ff7467a329b9","status":"final","code":{"coding":[{"system":"http://loinc.org","code":"26464-8"}]},"subject":{"reference":"Patient/e7422cce-8107-497c-8742-0e8de4452835"},"effectiveDateTime":"2022-10-13T00:00:00+00:00","valueCodeableConcept":{"coding":[{"system":"snomed","code":"123456","display":"fake snomed"}]}},"request":{"method":"POST","url":"Observation"}},{"fullUrl":"Observation/a07275e5-b56a-4b40-9f56-0bf080e38528","resource":{"resourceType":"Observation","id":"a07275e5-b56a-4b40-9f56-0bf080e38528","status":"final","code":{"coding":[{"system":"http://loinc.org","code":"49498-9"}]},"subject":{"reference":"Patient/e7422cce-8107-497c-8742-0e8de4452835"},"effectiveDateTime":"2022-01-22T00:00:00+00:00"},"request":{"method":"POST","url":"Observation"}},{"fullUrl":"Observation/450ba13b-89e3-4228-bc36-98b9a814b2e2","resource":{"resourceType":"Observation","id":"450ba13b-89e3-4228-bc36-98b9a814b2e2","status":"final","code":{"coding":[{"system":"http://loinc.org","code":"49498-9"}]},"subject":{"reference":"Patient/e7422cce-8107-497c-8742-0e8de4452835"},"effectiveDateTime":"2022-11-06T00:00:00+00:00"},"request":{"method":"POST","url":"Observation"}},{"fullUrl":"Procedure/9880eccb-c43c-4c03-8445-23947d48167d","resource":{"resourceType":"Procedure","id":"9880eccb-c43c-4c03-8445-23947d48167d","status":"completed","code":{"coding":[{"system":"http://snomed.info/sct","code":"104001"}]},"subject":{"reference":"Patient/e7422cce-8107-497c-8742-0e8de4452835"},"performedDateTime":"2022-10-11T00:00:00+00:00"},"request":{"method":"POST","url":"Procedure"}},{"fullUrl":"Procedure/e6ba9571-28a2-4a68-99c4-1dbec5ef0513","resource":{"resourceType":"Procedure","id":"e6ba9571-28a2-4a68-99c4-1dbec5ef0513","status":"completed","code":{"coding":[{"system":"http://snomed.info/sct","code":"104001"}]},"subject":{"reference":"Patient/e7422cce-8107-497c-8742-0e8de4452835"},"performedDateTime":"2022-09-16T00:00:00+00:00"},"request":{"method":"POST","url":"Procedure"}},{"fullUrl":"Procedure/aabf63ac-dc52-4c7b-9e44-f7dd2df35dca","resource":{"resourceType":"Procedure","id":"aabf63ac-dc52-4c7b-9e44-f7dd2df35dca","status":"completed","code":{"coding":[{"system":"http://snomed.info/sct","code":"647000"}]},"subject":{"reference":"Patient/e7422cce-8107-497c-8742-0e8de4452835"},"performedDateTime":"2022-01-17T00:00:00+00:00"},"request":{"method":"POST","url":"Procedure"}},{"fullUrl":"MedicationStatement/d67936b3-2eb6-4d49-bbea-499aacd21f8f","resource":{"resourceType":"MedicationStatement","id":"d67936b3-2eb6-4d49-bbea-499aacd21f8f","status":"completed","medicationCodeableConcept":{"coding":[{"system":"http://www.nlm.nih.gov/research/umls/rxnorm","code":"18631"}]},"subject":{"reference":"Patient/e7422cce-8107-497c-8742-0e8de4452835"},"effectiveDateTime":"2022-09-17T00:00:00+00:00","dosage":[{"doseAndRate":[{"doseQuantity":{"value":1,"unit":"TAB","system":"http://terminology.hl7.org/CodeSystem/v3-orderableDrugForm","code":"TAB"}}]}]},"request":{"method":"POST","url":"MedicationStatement"}},{"fullUrl":"MedicationStatement/d3285b40-f353-48d7-8052-ec8b68fb86cd","resource":{"resourceType":"MedicationStatement","id":"d3285b40-f353-48d7-8052-ec8b68fb86cd","status":"completed","medicationCodeableConcept":{"coding":[{"system":"http://www.nlm.nih.gov/research/umls/rxnorm","code":"10395"}]},"subject":{"reference":"Patient/e7422cce-8107-497c-8742-0e8de4452835"},"effectiveDateTime":"2022-05-08T00:00:00+00:00","dosage":[{"doseAndRate":[{"doseQuantity":{"value":2,"unit":"TAB","system":"http://terminology.hl7.org/CodeSystem/v3-orderableDrugForm","code":"TAB"}}]}]},"request":{"method":"POST","url":"MedicationStatement"}},{"fullUrl":"MedicationStatement/02868e0b-79e4-469a-ab19-418a0df379dc","resource":{"resourceType":"MedicationStatement","id":"02868e0b-79e4-469a-ab19-418a0df379dc","status":"completed","medicationCodeableConcept":{"coding":[{"system":"http://www.nlm.nih.gov/research/umls/rxnorm","code":"2193"}]},"subject":{"reference":"Patient/e7422cce-8107-497c-8742-0e8de4452835"},"effectiveDateTime":"2022-07-11T00:00:00+00:00","dosage":[{"doseAndRate":[{"doseQuantity":{"value":6.3,"unit":"TAB","system":"http://terminology.hl7.org/CodeSystem/v3-orderableDrugForm","code":"TAB"}}]}]},"request":{"method":"POST","url":"MedicationStatement"}},{"fullUrl":"MedicationStatement/70872e42-feae-4685-952c-e8ff6497c301","resource":{"resourceType":"MedicationStatement","id":"70872e42-feae-4685-952c-e8ff6497c301","status":"completed","medicationCodeableConcept":{"coding":[{"system":"http://www.nlm.nih.gov/research/umls/rxnorm","code":"2193"}]},"subject":{"reference":"Patient/e7422cce-8107-497c-8742-0e8de4452835"},"effectiveDateTime":"2022-12-09T00:00:00+00:00","dosage":[{"doseAndRate":[{"doseQuantity":{"value":6.6,"unit":"TAB","system":"http://terminology.hl7.org/CodeSystem/v3-orderableDrugForm","code":"TAB"}}]}]},"request":{"method":"POST","url":"MedicationStatement"}},{"fullUrl":"MedicationStatement/4971981c-6316-48ae-826a-fb64f8d77afe","resource":{"resourceType":"MedicationStatement","id":"4971981c-6316-48ae-826a-fb64f8d77afe","status":"completed","medicationCodeableConcept":{"coding":[{"system":"http://www.nlm.nih.gov/research/umls/rxnorm","code":"2193"}]},"subject":{"reference":"Patient/e7422cce-8107-497c-8742-0e8de4452835"},"effectiveDateTime":"2022-11-27T00:00:00+00:00","dosage":[{"doseAndRate":[{"doseQuantity":{"value":3.1,"unit":"TAB","system":"http://terminology.hl7.org/CodeSystem/v3-orderableDrugForm","code":"TAB"}}]}]},"request":{"method":"POST","url":"MedicationStatement"}},{"fullUrl":"MedicationStatement/ff38c85f-67b3-437f-b180-d3850a84b9aa","resource":{"resourceType":"MedicationStatement","id":"ff38c85f-67b3-437f-b180-d3850a84b9aa","status":"completed","medicationCodeableConcept":{"coding":[{"system":"http://www.nlm.nih.gov/research/umls/rxnorm","code":"8698"}]},"subject":{"reference":"Patient/e7422cce-8107-497c-8742-0e8de4452835"},"effectiveDateTime":"2022-04-18T00:00:00+00:00","dosage":[{"doseAndRate":[{"doseQuantity":{"value":6.6,"unit":"TAB","system":"http://terminology.hl7.org/CodeSystem/v3-orderableDrugForm","code":"TAB"}}]}]},"request":{"method":"POST","url":"MedicationStatement"}},{"fullUrl":"MedicationStatement/c18176f9-b927-4951-8954-450183d810c5","resource":{"resourceType":"MedicationStatement","id":"c18176f9-b927-4951-8954-450183d810c5","status":"completed","medicationCodeableConcept":{"coding":[{"system":"http://www.nlm.nih.gov/research/umls/rxnorm","code":"18631"}]},"subject":{"reference":"Patient/e7422cce-8107-497c-8742-0e8de4452835"},"effectiveDateTime":"2022-12-08T00:00:00+00:00","dosage":[{"doseAndRate":[{"doseQuantity":{"value":3.6,"unit":"TAB","system":"http://terminology.hl7.org/CodeSystem/v3-orderableDrugForm","code":"TAB"}}]}]},"request":{"method":"POST","url":"MedicationStatement"}},{"fullUrl":"MedicationStatement/50fcdefa-a2b6-4b54-b170-b212cd6b3213","resource":{"resourceType":"MedicationStatement","id":"50fcdefa-a2b6-4b54-b170-b212cd6b3213","status":"completed","medicationCodeableConcept":{"coding":[{"system":"http://www.nlm.nih.gov/research/umls/rxnorm","code":"2193"}]},"subject":{"reference":"Patient/e7422cce-8107-497c-8742-0e8de4452835"},"effectiveDateTime":"2022-08-13T00:00:00+00:00","dosage":[{"doseAndRate":[{"doseQuantity":{"value":4.1,"unit":"TAB","system":"http://terminology.hl7.org/CodeSystem/v3-orderableDrugForm","code":"TAB"}}]}]},"request":{"method":"POST","url":"MedicationStatement"}},{"fullUrl":"MedicationStatement/47f581db-e63a-4cfc-948b-fc1420ed84ba","resource":{"resourceType":"MedicationStatement","id":"47f581db-e63a-4cfc-948b-fc1420ed84ba","status":"completed","medicationCodeableConcept":{"coding":[{"system":"http://www.nlm.nih.gov/research/umls/rxnorm","code":"7984"}]},"subject":{"reference":"Patient/e7422cce-8107-497c-8742-0e8de4452835"},"effectiveDateTime":"2022-08-21T00:00:00+00:00","dosage":[{"doseAndRate":[{"doseQuantity":{"value":3.2,"unit":"TAB","system":"http://terminology.hl7.org/CodeSystem/v3-orderableDrugForm","code":"TAB"}}]}]},"request":{"method":"POST","url":"MedicationStatement"}},{"fullUrl":"MedicationStatement/1606f953-f9ee-42b4-8de8-154e29bf9eaa","resource":{"resourceType":"MedicationStatement","id":"1606f953-f9ee-42b4-8de8-154e29bf9eaa","status":"completed","medicationCodeableConcept":{"coding":[{"system":"http://www.nlm.nih.gov/research/umls/rxnorm","code":"2193"}]},"subject":{"reference":"Patient/e7422cce-8107-497c-8742-0e8de4452835"},"effectiveDateTime":"2022-09-13T00:00:00+00:00","dosage":[{"doseAndRate":[{"doseQuantity":{"value":4.3,"unit":"TAB","system":"http://terminology.hl7.org/CodeSystem/v3-orderableDrugForm","code":"TAB"}}]}]},"request":{"method":"POST","url":"MedicationStatement"}},{"fullUrl":"Encounter/ac2022c9-45c5-45d7-b79a-ebaad37eeb99","resource":{"resourceType":"Encounter","id":"ac2022c9-45c5-45d7-b79a-ebaad37eeb99","status":"finished","class":{"system":"http://terminology.hl7.org/CodeSystem/v3-ActCode","code":"IMP","display":"inpatient encounter"},"type":[{"coding":[{"system":"http://terminology.hl7.org/CodeSystem/encounter-type","code":"ADMS"}]}],"subject":{"reference":"Patient/e7422cce-8107-497c-8742-0e8de4452835"},"period":{"start":"2022-01-16T00:00:00+00:00","end":"2022-01-23T00:00:00+00:00"}},"request":{"method":"POST","url":"Encounter"}},{"fullUrl":"Encounter/41908125-84a8-4796-9f12-5937232d090a","resource":{"resourceType":"Encounter","id":"41908125-84a8-4796-9f12-5937232d090a","status":"finished","class":{"system":"http://terminology.hl7.org/CodeSystem/v3-ActCode","code":"IMP","display":"inpatient encounter"},"type":[{"coding":[{"system":"http://terminology.hl7.org/CodeSystem/encounter-type","code":"OKI"}]}],"subject":{"reference":"Patient/e7422cce-8107-497c-8742-0e8de4452835"},"period":{"start":"2022-05-12T00:00:00+00:00","end":"2022-05-16T00:00:00+00:00"}},"request":{"method":"POST","url":"Encounter"}},{"fullUrl":"Encounter/f3aa607d-7c3c-482a-8a96-709e418e7099","resource":{"resourceType":"Encounter","id":"f3aa607d-7c3c-482a-8a96-709e418e7099","status":"finished","class":{"system":"http://terminology.hl7.org/CodeSystem/v3-ActCode","code":"VR","display":"virtual"},"type":[{"coding":[{"system":"http://terminology.hl7.org/CodeSystem/encounter-type","code":"OKI"}]}],"subject":{"reference":"Patient/e7422cce-8107-497c-8742-0e8de4452835"},"period":{"start":"2022-02-25T00:00:00+00:00","end":"2022-03-05T00:00:00+00:00"}},"request":{"method":"POST","url":"Encounter"}},{"fullUrl":"Encounter/5978d4dd-6a84-473b-85c1-1f22ed2b37c3","resource":{"resourceType":"Encounter","id":"5978d4dd-6a84-473b-85c1-1f22ed2b37c3","status":"finished","class":{"system":"http://terminology.hl7.org/CodeSystem/v3-ActCode","code":"ACUTE","display":"inpatient acute"},"type":[{"coding":[{"system":"http://terminology.hl7.org/CodeSystem/encounter-type","code":"CCS60"}]}],"subject":{"reference":"Patient/e7422cce-8107-497c-8742-0e8de4452835"},"period":{"start":"2022-07-27T00:00:00+00:00","end":"2022-08-01T00:00:00+00:00"}},"request":{"method":"POST","url":"Encounter"}},{"fullUrl":"Location/c22ab350-85dc-4ac7-8a86-255b4b1bf47f","resource":{"resourceType":"Location","id":"c22ab350-85dc-4ac7-8a86-255b4b1bf47f","status":"active","name":"Mitchell-Schwartz","telecom":[{"system":"phone","value":"+1-037-815-3634","use":"home"}],"address":{"use":"work","line":["9443 Wilson Canyon Apt. 378"],"city":"Russellberg","state":"OK","postalCode":"76292"}},"request":{"method":"POST","url":"Location"}},{"fullUrl":"Observation/ca24b1dd-90e5-4aa1-a987-543d241f8210","resource":{"resourceType":"Observation","id":"ca24b1dd-90e5-4aa1-a987-543d241f8210","status":"final","code":{"coding":[{"system":"http://loinc.org","code":"81956-5"}]},"subject":{"reference":"Patient/e7422cce-8107-497c-8742-0e8de4452835"},"effectiveDateTime":"2022-10-27T00:00:00+00:00","valueDateTime":"2022-10-05T00:00:00+00:00"},"request":{"method":"POST","url":"Observation"}},{"fullUrl":"Patient/74c4a85a-7abf-42a9-b14d-f818c8d4faac","resource":{"resourceType":"Patient","id":"74c4a85a-7abf-42a9-b14d-f818c8d4faac","identifier":[{"type":{"coding":[{"system":"http://terminology.hl7.org/CodeSystem/v2-0203","code":"MR"}]},"system":"urn:fhirgen:mrn","value":"686-92-3677"},{"system":"http://hl7.org/fhir/sid/us-ssn","value":"041-36-8763"}],"name":[{"use":"official","family":"Porter","given":["Aimee"]},{"use":"maiden","family":"Peters"}],"telecom":[{"system":"phone","value":"+1-638-460-3000x222","use":"home"},{"system":"email","value":"montoyashane@hotmail.com","use":"work"}],"gender":"female","birthDate":"1987-12-11","address":[{"use":"home","line":["5596 Fox Court"],"city":"Alejandrochester","state":"VA","postalCode":"85325"},{"use":"old","line":["8184 Whitney Terrace Suite 643"],"city":"Millerville","state":"WI","postalCode":"41489"}],"maritalStatus":{"coding":[{"system":"http://terminology.hl7.org/CodeSystem/v3-MaritalStatus","code":"I","display":"Interlocutory"}]}},"request":{"method":"POST","url":"Patient"}},{"fullUrl":"Observation/1fb440f6-76ea-4dcf-97bf-a027a2356be5","resource":{"resourceType":"Observation","id":"1fb440f6-76ea-4dcf-97bf-a027a2356be5","status":"final","code":{"coding":[{"system":"http://loinc.org","code":"71793-4"}]},"subject":{"reference":"Patient/74c4a85a-7abf-42a9-b14d-f818c8d4faac"},"effectiveDateTime":"2022-04-27T00:00:00+00:00","valueRatio":{"numerator":{"value":1},"denominator":{"value":32}}},"request":{"method":"POST","url":"Observation"}},{"fullUrl":"Observation/db2db579-f765-4863-93c8-f414cc043b49","resource":{"resourceType":"Observation","id":"db2db579-f765-4863-93c8-f414cc043b49","status":"final","code":{"coding":[{"system":"http://loinc.org","code":"47235-7"}]},"subject":{"reference":"Patient/74c4a85a-7abf-42a9-b14d-f818c8d4faac"},"effectiveDateTime":"2022-02-17T00:00:00+00:00","valueRatio":{"numerator":{"value":1},"denominator":{"value":64}}},"request":{"method":"POST","url":"Observation"}},{"fullUrl":"Condition/4924d932-b9a6-4b31-8211-55253b797ee2","resource":{"resourceType":"Condition","id":"4924d932-b9a6-4b31-8211-55253b797ee2","code":{"coding":[{"system":"http://snomed.info/sct","code":"297123002"}]},"subject":{"reference":"Patient/74c4a85a-7abf-42a9-b14d-f818c8d4faac"},"onsetDateTime":"2022-04-26T00:00:00+00:00"},"request":{"method":"POST","url":"Condition"}},{"fullUrl":"Condition/b56b7529-35bf-42e3-8b3f-2e9c6a151f18","resource":{"resourceType":"Condition","id":"b56b7529-35bf-42e3-8b3f-2e9c6a151f18","code":{"coding":[{"system":"http://snomed.info/sct","code":"30746006"}]},"subject":{"reference":"Patient/74c4a85a-7abf-42a9-b14d-f818c8d4faac"},"onsetDateTime":"2022-11-22T00:00:00+00:00"},"request":{"method":"POST","url":"Condition"}},{"fullUrl":"Condition/54d6b93a-ee02-48ff-92b2-3f011be10f6f","resource":{"resourceType":"Condition","id":"54d6b93a-ee02-48ff-92b2-3f011be10f6f","code":{"coding":[{"system":"http://snomed.info/sct","code":"709977002"}]},"subject":{"reference":"Patient/74c4a85a-7abf-42a9-b14d-f818c8d4faac"},"onsetDateTime":"2022-01-08T00:00:00+00:00"},"request":{"method":"POST","url":"Condition"}},{"fullUrl":"Condition/0b9ca606-60f2-4c07-bb9e-6843b192a027","resource":{"resourceType":"Condition","id":"0b9ca606-60f2-4c07-bb9e-6843b192a027","code":{"coding":[{"system":"http://snomed.info/sct","code":"386661006"}]},"subject":{"reference":"Patient/74c4a85a-7abf-42a9-b14d-f818c8d4faac"},"onsetDateTime":"2022-11-02T00:00:00+00:00"},"request":{"method":"POST","url":"Condition"}},{"fullUrl":"Observation/e505bb25-e0fa-4c28-bb12-3ef1bac00702","resource":{"resourceType":"Observation","id":"e505bb25-e0fa-4c28-bb12-3ef1bac00702","status":"final","code":{"coding":[{"system":"http://loinc.org","code":"26464-8"}]},"subject":{"reference":"Patient/74c4a85a-7abf-42a9-b14d-f818c8d4faac"},"effectiveDateTime":"2022-04-29T00:00:00+00:00","valueQuantity":{"value":10.4}},"request":{"method":"POST","url":"Observation"}},{"fullUrl":"Observation/a034b2d3-2708-4e9f-aad1-4c55e2602f4e","resource":{"resourceType":"Observation","id":"a034b2d3-2708-4e9f-aad1-4c55e2602f4e","status":"final","code":{"coding":[{"system":"http://loinc.org","code":"26464-8"}]},"subject":{"reference":"Patient/74c4a85a-7abf-42a9-b14d-f818c8d4faac"},"effectiveDateTime":"2022-08-04T00:00:00+00:00","valueQuantity":{"value":8.2}},"request":{"method":"POST","url":"Observation"}},{"fullUrl":"Observation/bfbf8f98-4b79-4f0c-aea8-b562539976c6","resource":{"resourceType":"Observation","id":"bfbf8f98-4b79-4f0c-aea8-b562539976c6","status":"final","code":{"coding":[{"system":"http://loinc.org","code":"804-5"}]},"subject":{"reference":"Patient/74c4a85a-7abf-42a9-b14d-f818c8d4faac"},"effectiveDateTime":"2022-05-07T00:00:00+00:00","valueQuantity":{"value":10.7}},"request":{"method":"POST","url":"Observation"}},{"fullUrl":"Observation/bbcea193-f84f-4555-929e-04e9b47e33a5","resource":{"resourceType":"Observation","id":"bbcea193-f84f-4555-929e-04e9b47e33a5","status":"final","code":{"coding":[{"system":"http://loinc.org","code":"804-5"}]},"subject":{"reference":"Patient/74c4a85a-7abf-42a9-b14d-f818c8d4faac"},"effectiveDateTime":"2022-01-10T00:00:00+00:00","valueCodeableConcept":{"coding":[{"system":"snomed","code":"123456","display":"fake snomed"}]}},"request":{"method":"POST","url":"Observation"}},{"fullUrl":"Observation/a97a71c9-92f7-49f0-9f38-75ff45e7fd56","resource":{"resourceType":"Observation","id":"a97a71c9-92f7-49f0-9f38-75ff45e7fd56","status":"final","code":{"coding":[{"system":"http://loinc.org","code":"804-5"}]},"subject":{"reference":"Patient/74c4a85a-7abf-42a9-b14d-f818c8d4faac"},"effectiveDateTime":"2022-06-25T00:00:00+00:00","valueCodeableConcept":{"coding":[{"system":"snomed","code":"123456","display":"fake snomed"}]}},"request":{"method":"POST","url":"Observation"}},{"fullUrl":"Observation/a2cf0aaf-ff85-4bb7-849d-ad6e25b86e4c","resource":{"resourceType":"Observation","id":"a2cf0aaf-ff85-4bb7-849d-ad6e25b86e4c","status":"final","code":{"coding":[{"system":"http://loinc.org","code":"49498-9"}]},"subject":{"reference":"Patient/74c4a85a-7abf-42a9-b14d-f818c8d4faac"},"effectiveDateTime":"2022-06-24T00:00:00+00:00"},"request":{"method":"POST","url":"Observation"}},{"fullUrl":"Observation/bf8e3f75-4318-45a8-b7ef-2c323e95b547","resource":{"resourceType":"Observation","id":"bf8e3f75-4318-45a8-b7ef-2c323e95b547","status":"final","code":{"coding":[{"system":"http://loinc.org","code":"49498-9"}]},"subject":{"reference":"Patient/74c4a85a-7abf-42a9-b14d-f818c8d4faac"},"effectiveDateTime":"2022-06-09T00:00:00+00:00"},"request":{"method":"POST","url":"Observation"}},{"fullUrl":"Procedure/d3ab4c90-464f-47a0-bf17-c2a1061582a5","resource":{"resourceType":"Procedure","id":"d3ab4c90-464f-47a0-bf17-c2a1061582a5","status":"completed","code":{"coding":[{"system":"http://snomed.info/sct","code":"104001"}]},"subject":{"reference":"Patient/74c4a85a-7abf-42a9-b14d-f818c8d4faac"},"performedDateTime":"2022-08-09T00:00:00+00:00"},"request":{"method":"POST","url":"Procedure"}},{"fullUrl":"Procedure/e708ec3d-497b-402c-9003-bb56d04817de","resource":{"resourceType":"Procedure","id":"e708ec3d-497b-402c-9003-bb56d04817de","status":"completed","code":{"coding":[{"system":"http://snomed.info/sct","code":"115006"}]},"subject":{"reference":"Patient/74c4a85a-7abf-42a9-b14d-f818c8d4faac"},"performedDateTime":"2022-11-25T00:00:00+00:00"},"request":{"method":"POST","url":"Procedure"}},{"fullUrl":"Procedure/30e2abbb-877e-4c09-8a17-42e0248ecfd4","resource":{"resourceType":"Procedure","id":"30e2abbb-877e-4c09-8a17-42e0248ecfd4","status":"completed","code":{"coding":[{"system":"http://snomed.info/sct","code":"115006"}]},"subject":{"reference":"Patient/74c4a85a-7abf-42a9-b14d-f818c8d4faac"},"performedDateTime":"2022-01-10T00:00:00+00:00"},"request":{"method":"POST","url":"Procedure"}},{"fullUrl":"MedicationStatement/ca70f605-01e1-45d7-b1dc-591be93628ef","resource":{"resourceType":"MedicationStatement","id":"ca70f605-01e1-45d7-b1dc-591be93628ef","status":"completed","medicationCodeableConcept":{"coding":[{"system":"http://www.nlm.nih.gov/research/umls/rxnorm","code":"2193"}]},"subject":{"reference":"Patient/74c4a85a-7abf-42a9-b14d-f818c8d4faac"},"effectiveDateTime":"2022-07-25T00:00:00+00:00","dosage":[{"doseAndRate":[{"doseQuantity":{"value":1,"unit":"TAB","system":"http://terminology.hl7.org/CodeSystem/v3-orderableDrugForm","code":"TAB"}}]}]},"request":{"method":"POST","url":"MedicationStatement"}},{"fullUrl":"MedicationStatement/c34bd1c6-b150-4508-a6c1-093ee8d81558","resource":{"resourceType":"MedicationStatement","id":"c34bd1c6-b150-4508-a6c1-093ee8d81558","status":"completed","medicationCodeableConcept":{"coding":[{"system":"http://www.nlm.nih.gov/research/umls/rxnorm","code":"3640"}]},"subject":{"reference":"Patient/74c4a85a-7abf-42a9-b14d-f818c8d4faac"},"effectiveDateTime":"2022-04-19T00:00:00+00:00","dosage":[{"doseAndRate":[{"doseQuantity":{"value":1,"unit":"TAB","system":"http://terminology.hl7.org/CodeSystem/v3-orderableDrugForm","code":"TAB"}}]}]},"request":{"method":"POST","url":"MedicationStatement"}},{"fullUrl":"MedicationStatement/3fa95c2e-2f6c-4625-b4d1-1c789c8de3a2","resource":{"resourceType":"MedicationStatement","id":"3fa95c2e-2f6c-4625-b4d1-1c789c8de3a2","status":"completed","medicationCodeableConcept":{"coding":[{"system":"http://www.nlm.nih.gov/research/umls/rxnorm","code":"7984"}]},"subject":{"reference":"Patient/74c4a85a-7abf-42a9-b14d-f818c8d4faac"},"effectiveDateTime":"2022-03-08T00:00:00+00:00","dosage":[{"doseAndRate":[{"doseQuantity":{"value":2,"unit":"TAB","system":"http://terminology.hl7.org/CodeSystem/v3-orderableDrugForm","code":"TAB"}}]}]},"request":{"method":"POST","url":"MedicationStatement"}},{"fullUrl":"MedicationStatement/df7b63c6-981b-4385-8123-ae5da614bae7","resource":{"resourceType":"MedicationStatement","id":"df7b63c6-981b-4385-8123-ae5da614bae7","status":"completed","medicationCodeableConcept":{"coding":[{"system":"http://www.nlm.nih.gov/research/umls/rxnorm","code":"10395"}]},"subject":{"reference":"Patient/74c4a85a-7abf-42a9-b14d-f818c8d4faac"},"effectiveDateTime":"2022-08-31T00:00:00+00:00","dosage":[{"doseAndRate":[{"doseQuantity":{"value":1,"unit":"TAB","system":"http://terminology.hl7.org/CodeSystem/v3-orderableDrugForm","code":"TAB"}}]}]},"request":{"method":"POST","url":"MedicationStatement"}},{"fullUrl":"MedicationStatement/bdfa70c6-4836-489f-b709-e9ab95cb7054","resource":{"resourceType":"MedicationStatement","id":"bdfa70c6-4836-489f-b709-e9ab95cb7054","status":"completed","medicationCodeableConcept":{"coding":[{"system":"http://www.nlm.nih.gov/research/umls/rxnorm","code":"18631"}]},"subject":{"reference":"Patient/74c4a85a-7abf-42a9-b14d-f818c8d4faac"},"effectiveDateTime":"2022-11-10T00:00:00+00:00","dosage":[{"doseAndRate":[{"doseQuantity":{"value":2,"unit":"TAB","system":"http://terminology.hl7.org/CodeSystem/v3-orderableDrugForm","code":"TAB"}}]}]},"request":{"method":"POST","url":"MedicationStatement"}},{"fullUrl":"MedicationStatement/474933b1-e253-4fcd-a63e-047e12c25b41","resource":{"resourceType":"MedicationStatement","id":"474933b1-e253-4fcd-a63e-047e12c25b41","status":"completed","medicationCodeableConcept":{"coding":[{"system":"http://www.nlm.nih.gov/research/umls/rxnorm","code":"10395"}]},"subject":{"reference":"Patient/74c4a85a-7abf-42a9-b14d-f818c8d4faac"},"effectiveDateTime":"2022-10-22T00:00:00+00:00","dosage":[{"doseAndRate":[{"doseQuantity":{"value":5.9,"unit":"TAB","system":"http://terminology.hl7.org/CodeSystem/v3-orderableDrugForm","code":"TAB"}}]}]},"request":{"method":"POST","url":"MedicationStatement"}},{"fullUrl":"MedicationStatement/f390b7d6-e0b4-4232-ba5a-7dd17e9fe40e","resource":{"resourceType":"MedicationStatement","id":"f390b7d6-e0b4-4232-ba5a-7dd17e9fe40e","status":"completed","medicationCodeableConcept":{"coding":[{"system":"http://www.nlm.nih.gov/research/umls/rxnorm","code":"10395"}]},"subject":{"reference":"Patient/74c4a85a-7abf-42a9-b14d-f818c8d4faac"},"effectiveDateTime":"2022-08-05T00:00:00+00:00","dosage":[{"doseAndRate":[{"doseQuantity":{"value":4.2,"unit":"TAB","system":"http://terminology.hl7.org/CodeSystem/v3-orderableDrugForm","code":"TAB"}}]}]},"request":{"method":"POST","url":"MedicationStatement"}},{"fullUrl":"Encounter/e76886d1-a469-4349-961d-5d5a30bffdcb","resource":{"resourceType":"Encounter","id":"e76886d1-a469-4349-961d-5d5a30bffdcb","status":"finished","class":{"system":"http://terminology.hl7.org/CodeSystem/v3-ActCode","code":"IMP","display":"inpatient encounter"},"type":[{"coding":[{"system":"http://terminology.hl7.org/CodeSystem/encounter-type","code":"OKI"}]}],"subject":{"reference":"Patient/74c4a85a-7abf-42a9-b14d-f818c8d4faac"},"period":{"start":"2022-11-18T00:00:00+00:00","end":"2022-11-23T00:00:00+00:00"}},"request":{"method":"POST","url":"Encounter"}},{"fullUrl":"Encounter/047a4fe0-b44c-4ce5-a155-39026fd52f5e","resource":{"resourceType":"Encounter","id":"047a4fe0-b44c-4ce5-a155-39026fd52f5e","status":"finished","class":{"system":"http://terminology.hl7.org/CodeSystem/v3-ActCode","code":"IMP","display":"inpatient encounter"},"type":[{"coding":[{"system":"http://terminology.hl7.org/CodeSystem/encounter-type","code":"CCS60"}]}],"subject":{"reference":"Patient/74c4a85a-7abf-42a9-b14d-f818c8d4faac"},"period":{"start":"2022-08-07T00:00:00+00:00","end":"2022-08-11T00:00:00+00:00"}},"request":{"method":"POST","url":"Encounter"}},{"fullUrl":"Encounter/7c3718b5-ea9b-42cc-9649-7e97acc51afc","resource":{"resourceType":"Encounter","id":"7c3718b5-ea9b-42cc-9649-7e97acc51afc","status":"finished","class":{"system":"http://terminology.hl7.org/CodeSystem/v3-ActCode","code":"IMP","display":"inpatient encounter"},"type":[{"coding":[{"system":"http://terminology.hl7.org/CodeSystem/encounter-type","code":"ADMS"}]}],"subject":{"reference":"Patient/74c4a85a-7abf-42a9-b14d-f818c8d4faac"},"period":{"start":"2022-11-08T00:00:00+00:00","end":"2022-11-09T00:00:00+00:00"}},"request":{"method":"POST","url":"Encounter"}},{"fullUrl":"Encounter/499c7d71-26bd-4393-b55a-ec5ed94650f3","resource":{"resourceType":"Encounter","id":"499c7d71-26bd-4393-b55a-ec5ed94650f3","status":"finished","class":{"system":"http://terminology.hl7.org/CodeSystem/v3-ActCode","code":"PRENC","display":"pre-admission"},"type":[{"coding":[{"system":"http://terminology.hl7.org/CodeSystem/encounter-type","code":"CCS60"}]}],"subject":{"reference":"Patient/74c4a85a-7abf-42a9-b14d-f818c8d4faac"},"period":{"start":"2022-03-21T00:00:00+00:00","end":"2022-03-23T00:00:00+00:00"}},"request":{"method":"POST","url":"Encounter"}},{"fullUrl":"Encounter/74a414ff-5ff7-4a9b-a355-ca66a1ae04b7","resource":{"resourceType":"Encounter","id":"74a414ff-5ff7-4a9b-a355-ca66a1ae04b7","status":"finished","class":{"system":"http://terminology.hl7.org/CodeSystem/v3-ActCode","code":"VR","display":"virtual"},"type":[{"coding":[{"system":"http://terminology.hl7.org/CodeSystem/encounter-type","code":"BD/BM-clin"}]}],"subject":{"reference":"Patient/74c4a85a-7abf-42a9-b14d-f818c8d4faac"},"period":{"start":"2022-09-10T00:00:00+00:00","end":"2022-09-16T00:00:00+00:00"}},"request":{"method":"POST","url":"Encounter"}},{"fullUrl":"Encounter/f7699e47-1a7b-4f72-b351-43e7f48de49f","resource":{"resourceType":"Encounter","id":"f7699e47-1a7b-4f72-b351-43e7f48de49f","status":"finished","class":{"system":"http://terminology.hl7.org/CodeSystem/v3-ActCode","code":"NONAC","display":"inpatient non-acute"},"type":[{"coding":[{"system":"http://terminology.hl7.org/CodeSystem/encounter-type","code":"CCS60"}]}],"subject":{"reference":"Patient/74c4a85a-7abf-42a9-b14d-f818c8d4faac"},"period":{"start":"2022-06-20T00:00:00+00:00","end":"2022-06-28T00:00:00+00:00"}},"request":{"method":"POST","url":"Encounter"}},{"fullUrl":"Location/f5591527-6faa-48b6-a816-d25513da0a7e","resource":{"resourceType":"Location","id":"f5591527-6faa-48b6-a816-d25513da0a7e","status":"active","name":"Robinson-Smith","telecom":[{"system":"phone","value":"110-926-6501","use":"mobile"}],"address":{"use":"work","line":["76097 Carpenter View"],"city":"West Samuelland","state":"NH","postalCode":"94731"}},"request":{"method":"POST","url":"Location"}},{"fullUrl":"Observation/9489fa07-df17-4764-9bf8-99783a5c9faf","resource":{"resourceType":"Observation","id":"9489fa07-df17-4764-9bf8-99783a5c9faf","status":"final","code":{"coding":[{"system":"http://loinc.org","code":"81956-5"}]},"subject":{"reference":"Patient/74c4a85a-7abf-42a9-b14d-f818c8d4faac"},"effectiveDateTime":"2022-10-17T00:00:00+00:00","valueDateTime":"2022-09-11T00:00:00+00:00"},"request":{"method":"POST","url":"Observation"}},{"fullUrl":"Patient/a1572612-4189-40d5-bdba-4fbe5333d734","resource":{"resourceType":"Patient","id":"a1572612-4189-40d5-bdba-4fbe5333d734","identifier":[{"type":{"coding":[{"system":"http://terminology.hl7.org/CodeSystem/v2-0203","code":"MR"}]},"system":"urn:fhirgen:mrn","value":"799-25-5888"},{"system":"http://hl7.org/fhir/sid/us-ssn","value":"342-70-6787"}],"name":[{"use":"official","family":"Rich","given":["Mary"]},{"use":"maiden","family":"Wang"}],"telecom":[{"system":"phone","value":"0757212106","use":"work"},{"system":"email","value":"benjaminadams@gmail.com","use":"mobile"}],"gender":"female","birthDate":"1961-05-17","address":[{"use":"home","line":["727 Henderson Orchard Apt. 863"],"city":"Port James","state":"IL","postalCode":"48837"},{"use":"old","line":["9302 Diaz Shores"],"city":"West Corey","state":"OH","postalCode":"99339"}],"maritalStatus":{"coding":[{"system":"http://terminology.hl7.org/CodeSystem/v3-MaritalStatus","code":"T","display":"Domestic partner"}]}},"request":{"method":"POST","url":"Patient"}},{"fullUrl":"Observation/1f7b721b-576e-4558-b185-ba4d8866bfe9","resource":{"resourceType":"Observation","id":"1f7b721b-576e-4558-b185-ba4d8866bfe9","status":"final","code":{"coding":[{"system":"http://loinc.org","code":"5394-2"}]},"subject":{"reference":"Patient/a1572612-4189-40d5-bdba-4fbe5333d734"},"effectiveDateTime":"2022-10-01T00:00:00+00:00","valueRatio":{"numerator":{"value":1},"denominator":{"value":4}}},"request":{"method":"POST","url":"Observation"}},{"fullUrl":"Observation/b61eb11c-13c6-4ff0-8ee5-8d30055b1a91","resource":{"resourceType":"Observation","id":"b61eb11c-13c6-4ff0-8ee5-8d30055b1a91","status":"final","code":{"coding":[{"system":"http://loinc.org","code":"50695-6"}]},"subject":{"reference":"Patient/a1572612-4189-40d5-bdba-4fbe5333d734"},"effectiveDateTime":"2022-06-09T00:00:00+00:00","valueRatio":{"numerator":{"value":1},"denominator":{"value":4}}},"request":{"method":"POST","url":"Observation"}},{"fullUrl":"Condition/0a0648ca-fc54-4641-bda2-1e22efbfb3e0","resource":{"resourceType":"Condition","id":"0a0648ca-fc54-4641-bda2-1e22efbfb3e0","code":{"coding":[{"system":"http://snomed.info/sct","code":"271939006"}]},"subject":{"reference":"Patient/a1572612-4189-40d5-bdba-4fbe5333d734"},"onsetDateTime":"2022-01-09T00:00:00+00:00"},"request":{"method":"POST","url":"Condition"}},{"fullUrl":"Condition/17d10179-bd73-4a12-b7e3-8ba404b25ef8","resource":{"resourceType":"Condition","id":"17d10179-bd73-4a12-b7e3-8ba404b25ef8","code":{"coding":[{"system":"http://snomed.info/sct","code":"56317004"}]},"subject":{"reference":"Patient/a1572612-4189-40d5-bdba-4fbe5333d734"},"onsetDateTime":"2022-11-13T00:00:00+00:00"},"request":{"method":"POST","url":"Condition"}},{"fullUrl":"Condition/2f88293b-a13f-43dc-a5f3-de70fd2d3d91","resource":{"resourceType":"Condition","id":"2f88293b-a13f-43dc-a5f3-de70fd2d3d91","code":{"coding":[{"system":"http://snomed.info/sct","code":"21522001"}]},"subject":{"reference":"Patient/a1572612-4189-40d5-bdba-4fbe5333d734"},"onsetDateTime":"2022-08-04T00:00:00+00:00"},"request":{"method":"POST","url":"Condition"}},{"fullUrl":"Condition/6f670954-24d0-4e26-bafd-efadd9825a64","resource":{"resourceType":"Condition","id":"6f670954-24d0-4e26-bafd-efadd9825a64","code":{"coding":[{"system":"http://snomed.info/sct","code":"386661006"}]},"subject":{"reference":"Patient/a1572612-4189-40d5-bdba-4fbe5333d734"},"onsetDateTime":"2022-02-06T00:00:00+00:00"},"request":{"method":"POST","url":"Condition"}},{"fullUrl":"Condition/7bec0a9a-6b02-4d05-aa15-89802340253e","resource":{"resourceType":"Condition","id":"7bec0a9a-6b02-4d05-aa15-89802340253e","code":{"coding":[{"system":"http://snomed.info/sct","code":"3951002"}]},"subject":{"reference":"Patient/a1572612-4189-40d5-bdba-4fbe5333d734"},"onsetDateTime":"2022-05-14T00:00:00+00:00"},"request":{"method":"POST","url":"Condition"}},{"fullUrl":"Observation/646ce2b1-5dc1-4e00-8515-348de8ad1257","resource":{"resourceType":"Observation","id":"646ce2b1-5dc1-4e00-8515-348de8ad1257","status":"final","code":{"coding":[{"system":"http://loinc.org","code":"804-5"}]},"subject":{"reference":"Patient/a1572612-4189-40d5-bdba-4fbe5333d734"},"effectiveDateTime":"2022-11-16T00:00:00+00:00","valueQuantity":{"value":5.6}},"request":{"method":"POST","url":"Observation"}},{"fullUrl":"Observation/9342d175-971f-4c91-ae99-d7183b51b5aa","resource":{"resourceType":"Observation","id":"9342d175-971f-4c91-ae99-d7183b51b5aa","status":"final","code":{"coding":[{"system":"http://loinc.org","code":"804-5"}]},"subject":{"reference":"Patient/a1572612-4189-40d5-bdba-4fbe5333d734"},"effectiveDateTime":"2022-07-03T00:00:00+00:00","valueQuantity":{"value":4.2}},"request":{"method":"POST","url":"Observation"}},{"fullUrl":"Observation/9c4661ab-2dd3-44be-9edb-1655900321af","resource":{"resourceType":"Observation","id":"9c4661ab-2dd3-44be-9edb-1655900321af","status":"final","code":{"coding":[{"system":"http://www.ama-assn.org/go/cpt","code":"85048"}]},"subject":{"reference":"Patient/a1572612-4189-40d5-bdba-4fbe5333d734"},"effectiveDateTime":"2022-07-02T00:00:00+00:00","valueCodeableConcept":{"coding":[{"system":"snomed","code":"123456","display":"fake snomed"}]}},"request":{"method":"POST","url":"Observation"}},{"fullUrl":"Observation/a08e86ce-4cdc-44fd-bd61-2c1c2f5298fd","resource":{"resourceType":"Observation","id":"a08e86ce-4cdc-44fd-bd61-2c1c2f5298fd","status":"final","code":{"coding":[{"system":"http://loinc.org","code":"6690-2"}]},"subject":{"reference":"Patient/a1572612-4189-40d5-bdba-4fbe5333d734"},"effectiveDateTime":"2022-04-02T00:00:00+00:00","valueCodeableConcept":{"coding":[{"system":"snomed","code":"123456","display":"fake snomed"}]}},"request":{"method":"POST","url":"Observation"}},{"fullUrl":"Observation/54a5ab84-8b26-47ce-8f36-9c0e5543e285","resource":{"resourceType":"Observation","id":"54a5ab84-8b26-47ce-8f36-9c0e5543e285","status":"final","code":{"coding":[{"system":"http://loinc.org","code":"26464-8"}]},"subject":{"reference":"Patient/a1572612-4189-40d5-bdba-4fbe5333d734"},"effectiveDateTime":"2022-12-09T00:00:00+00:00","valueCodeableConcept":{"coding":[{"system":"snomed","code":"123456","display":"fake snomed"}]}},"request":{"method":"POST","url":"Observation"}},{"fullUrl":"Observation/74394bcf-dcff-43f3-b0e9-45e60313cbb8","resource":{"resourceType":"Observation","id":"74394bcf-dcff-43f3-b0e9-45e60313cbb8","status":"final","code":{"coding":[{"system":"http://loinc.org","code":"49498-9"}]},"subject":{"reference":"Patient/a1572612-4189-40d5-bdba-4fbe5333d734"},"effectiveDateTime":"2022-02-07T00:00:00+00:00"},"request":{"method":"POST","url":"Observation"}},{"fullUrl":"Observation/f9a6551e-6a8f-49f5-a2ff-a61eda53b3a5","resource":{"resourceType":"Observation","id":"f9a6551e-6a8f-49f5-a2ff-a61eda53b3a5","status":"final","code":{"coding":[{"system":"http://loinc.org","code":"49498-9"}]},"subject":{"reference":"Patient/a1572612-4189-40d5-bdba-4fbe5333d734"},"effectiveDateTime":"2022-04-18T00:00:00+00:00"},"request":{"method":"POST","url":"Observation"}},{"fullUrl":"Observation/4f97d883-f297-459b-8ff8-a7e742ef269a","resource":{"resourceType":"Observation","id":"4f97d883-f297-459b-8ff8-a7e742ef269a","status":"final","code":{"coding":[{"system":"http://loinc.org","code":"49498-9"}]},"subject":{"reference":"Patient/a1572612-4189-40d5-bdba-4fbe5333d734"},"effectiveDateTime":"2022-09-16T00:00:00+00:00"},"request":{"method":"POST","url":"Observation"}},{"fullUrl":"Procedure/9c8585dc-c7d5-485b-8486-27c352ebd2fb","resource":{"resourceType":"Procedure","id":"9c8585dc-c7d5-485b-8486-27c352ebd2fb","status":"completed","code":{"coding":[{"system":"http://snomed.info/sct","code":"189009"}]},"subject":{"reference":"Patient/a1572612-4189-40d5-bdba-4fbe5333d734"},"performedDateTime":"2022-08-21T00:00:00+00:00"},"request":{"method":"POST","url":"Procedure"}},{"fullUrl":"Procedure/e63cded2-0016-412e-b584-f949ad5c91a3","resource":{"resourceType":"Procedure","id":"e63cded2-0016-412e-b584-f949ad5c91a3","status":"completed","code":{"coding":[{"system":"http://snomed.info/sct","code":"104001"}]},"subject":{"reference":"Patient/a1572612-4189-40d5-bdba-4fbe5333d734"},"performedDateTime":"2022-05-23T00:00:00+00:00"},"request":{"method":"POST","url":"Procedure"}},{"fullUrl":"Procedure/a6cd5071-32f7-436d-947f-a1313764f3ed","resource":{"resourceType":"Procedure","id":"a6cd5071-32f7-436d-947f-a1313764f3ed","status":"completed","code":{"coding":[{"system":"http://snomed.info/sct","code":"189009"}]},"subject":{"reference":"Patient/a1572612-4189-40d5-bdba-4fbe5333d734"},"performedDateTime":"2022-04-23T00:00:00+00:00"},"request":{"method":"POST","url":"Procedure"}},{"fullUrl":"MedicationStatement/a4e593cb-8407-4569-9634-420064dd7f87","resource":{"resourceType":"MedicationStatement","id":"a4e593cb-8407-4569-9634-420064dd7f87","status":"completed","medicationCodeableConcept":{"coding":[{"system":"http://www.nlm.nih.gov/research/umls/rxnorm","code":"3640"}]},"subject":{"reference":"Patient/a1572612-4189-40d5-bdba-4fbe5333d734"},"effectiveDateTime":"2022-03-10T00:00:00+00:00","dosage":[{"doseAndRate":[{"doseQuantity":{"value":2,"unit":"TAB","system":"http://terminology.hl7.org/CodeSystem/v3-orderableDrugForm","code":"TAB"}}]}]},"request":{"method":"POST","url":"MedicationStatement"}},{"fullUrl":"MedicationStatement/892b0f82-07f4-4ed5-a54b-630eedb745b4","resource":{"resourceType":"MedicationStatement","id":"892b0f82-07f4-4ed5-a54b-630eedb745b4","status":"completed","medicationCodeableConcept":{"coding":[{"system":"http://www.nlm.nih.gov/research/umls/rxnorm","code":"7980"}]},"subject":{"reference":"Patient/a1572612-4189-40d5-bdba-4fbe5333d734"},"effectiveDateTime":"2022-05-02T00:00:00+00:00","dosage":[{"doseAndRate":[{"doseQuantity":{"value":2,"unit":"TAB","system":"http://terminology.hl7.org/CodeSystem/v3-orderableDrugForm","code":"TAB"}}]}]},"request":{"method":"POST","url":"MedicationStatement"}},{"fullUrl":"MedicationStatement/7165e1fc-58fc-440c-b748-392cbb063f90","resource":{"resourceType":"MedicationStatement","id":"7165e1fc-58fc-440c-b748-392cbb063f90","status":"completed","medicationCodeableConcept":{"coding":[{"system":"http://www.nlm.nih.gov/research/umls/rxnorm","code":"8698"}]},"subject":{"reference":"Patient/a1572612-4189-40d5-bdba-4fbe5333d734"},"effectiveDateTime":"2022-09-19T00:00:00+00:00","dosage":[{"doseAndRate":[{"doseQuantity":{"value":2,"unit":"TAB","system":"http://terminology.hl7.org/CodeSystem/v3-orderableDrugForm","code":"TAB"}}]}]},"request":{"method":"POST","url":"MedicationStatement"}},{"fullUrl":"MedicationStatement/0704fb35-938d-46c8-b4df-ec3156a59039","resource":{"resourceType":"MedicationStatement","id":"0704fb35-938d-46c8-b4df-ec3156a59039","status":"completed","medicationCodeableConcept":{"coding":[{"system":"http://www.nlm.nih.gov/research/umls/rxnorm","code":"7980"}]},"subject":{"reference":"Patient/a1572612-4189-40d5-bdba-4fbe5333d734"},"effectiveDateTime":"2022-12-24T00:00:00+00:00","dosage":[{"doseAndRate":[{"doseQuantity":{"value":1,"unit":"TAB","system":"http://terminology.hl7.org/CodeSystem/v3-orderableDrugForm","code":"TAB"}}]}]},"request":{"method":"POST","url":"MedicationStatement"}},{"fullUrl":"MedicationStatement/7c60aa5b-d62b-4e1f-b099-61ca6c6ade91","resource":{"resourceType":"MedicationStatement","id":"7c60aa5b-d62b-4e1f-b099-61ca6c6ade91","status":"completed","medicationCodeableConcept":{"coding":[{"system":"http://www.nlm.nih.gov/research/umls/rxnorm","code":"2193"}]},"subject":{"reference":"Patient/a1572612-4189-40d5-bdba-4fbe5333d734"},"effectiveDateTime":"2022-12-25T00:00:00+00:00","dosage":[{"doseAndRate":[{"doseQuantity":{"value":2,"unit":"TAB","system":"http://terminology.hl7.org/CodeSystem/v3-orderableDrugForm","code":"TAB"}}]}]},"request":{"method":"POST","url":"MedicationStatement"}},{"fullUrl":"MedicationStatement/12a4f869-65cb-4ba7-8084-47f01dd96ff2","resource":{"resourceType":"MedicationStatement","id":"12a4f869-65cb-4ba7-8084-47f01dd96ff2","status":"completed","medicationCodeableConcept":{"coding":[{"system":"http://www.nlm.nih.gov/research/umls/rxnorm","code":"8698"}]},"subject":{"reference":"Patient/a1572612-4189-40d5-bdba-4fbe5333d734"},"effectiveDateTime":"2022-03-12T00:00:00+00:00","dosage":[{"doseAndRate":[{"doseQuantity":{"value":2,"unit":"TAB","system":"http://terminology.hl7.org/CodeSystem/v3-orderableDrugForm","code":"TAB"}}]}]},"request":{"method":"POST","url":"MedicationStatement"}},{"fullUrl":"MedicationStatement/cf1ed0b1-9e7f-4350-8126-e57fb0a9fe92","resource":{"resourceType":"MedicationStatement","id":"cf1ed0b1-9e7f-4350-8126-e57fb0a9fe92","status":"completed","medicationCodeableConcept":{"coding":[{"system":"http://www.nlm.nih.gov/research/umls/rxnorm","code":"18631"}]},"subject":{"reference":"Patient/a1572612-4189-40d5-bdba-4fbe5333d734"},"effectiveDateTime":"2022-04-26T00:00:00+00:00","dosage":[{"doseAndRate":[{"doseQuantity":{"value":1,"unit":"TAB","system":"http://terminology.hl7.org/CodeSystem/v3-orderableDrugForm","code":"TAB"}}]}]},"request":{"method":"POST","url":"MedicationStatement"}},{"fullUrl":"MedicationStatement/21d3e5cf-6383-40c3-8227-84507f27820a","resource":{"resourceType":"MedicationStatement","id":"21d3e5cf-6383-40c3-8227-84507f27820a","status":"completed","medicationCodeableConcept":{"coding":[{"system":"http://www.nlm.nih.gov/research/umls/rxnorm","code":"18631"}]},"subject":{"reference":"Patient/a1572612-4189-40d5-bdba-4fbe5333d734"},"effectiveDateTime":"2022-07-05T00:00:00+00:00","dosage":[{"doseAndRate":[{"doseQuantity":{"value":6.9,"unit":"TAB","system":"http://terminology.hl7.org/CodeSystem/v3-orderableDrugForm","code":"TAB"}}]}]},"request":{"method":"POST","url":"MedicationStatement"}},{"fullUrl":"Encounter/dd11e1fd-6ed5-4737-93ab-a9f0172dd331","resource":{"resourceType":"Encounter","id":"dd11e1fd-6ed5-4737-93ab-a9f0172dd331","status":"finished","class":{"system":"http://terminology.hl7.org/CodeSystem/v3-ActCode","code":"IMP","display":"inpatient encounter"},"type":[{"coding":[{"system":"http://terminology.hl7.org/CodeSystem/encounter-type","code":"OKI"}]}],"subject":{"reference":"Patient/a1572612-4189-40d5-bdba-4fbe5333d734"},"period":{"start":"2022-12-13T00:00:00+00:00","end":"2022-12-20T00:00:00+00:00"}},"request":{"method":"POST","url":"Encounter"}},{"fullUrl":"Encounter/dc349a01-4bb8-47e1-ae47-978c2911d750","resource":{"resourceType":"Encounter","id":"dc349a01-4bb8-47e1-ae47-978c2911d750","status":"finished","class":{"system":"http://terminology.hl7.org/CodeSystem/v3-ActCode","code":"IMP","display":"inpatient encounter"},"type":[{"coding":[{"system":"http://terminology.hl7.org/CodeSystem/encounter-type","code":"CCS60"}]}],"subject":{"reference":"Patient/a1572612-4189-40d5-bdba-4fbe5333d734"},"period":{"start":"2022-07-22T00:00:00+00:00","end":"2022-07-25T00:00:00+00:00"}},"request":{"method":"POST","url":"Encounter"}},{"fullUrl":"Encounter/9c8d918a-4002-431b-bf1c-ebc69f43239d","resource":{"resourceType":"Encounter","id":"9c8d918a-4002-431b-bf1c-ebc69f43239d","status":"finished","class":{"system":"http://terminology.hl7.org/CodeSystem/v3-ActCode","code":"IMP","display":"inpatient encounter"},"type":[{"coding":[{"system":"http://terminology.hl7.org/CodeSystem/encounter-type","code":"OKI"}]}],"subject":{"reference":"Patient/a1572612-4189-40d5-bdba-4fbe5333d734"},"period":{"start":"2022-04-18T00:00:00+00:00","end":"2022-04-25T00:00:00+00:00"}},"request":{"method":"POST","url":"Encounter"}},{"fullUrl":"Encounter/612f5bcc-64e3-4e11-b886-776df0992c27","resource":{"resourceType":"Encounter","id":"612f5bcc-64e3-4e11-b886-776df0992c27","status":"finished","class":{"system":"http://terminology.hl7.org/CodeSystem/v3-ActCode","code":"VR","display":"virtual"},"type":[{"coding":[{"system":"http://terminology.hl7.org/CodeSystem/encounter-type","code":"CCS60"}]}],"subject":{"reference":"Patient/a1572612-4189-40d5-bdba-4fbe5333d734"},"period":{"start":"2022-03-16T00:00:00+00:00","end":"2022-03-19T00:00:00+00:00"}},"request":{"method":"POST","url":"Encounter"}},{"fullUrl":"Encounter/c9e7998e-eab7-40d9-9f79-a0a9ad0239da","resource":{"resourceType":"Encounter","id":"c9e7998e-eab7-40d9-9f79-a0a9ad0239da","status":"finished","class":{"system":"http://terminology.hl7.org/CodeSystem/v3-ActCode","code":"PRENC","display":"pre-admission"},"type":[{"coding":[{"system":"http://terminology.hl7.org/CodeSystem/encounter-type","code":"ADMS"}]}],"subject":{"reference":"Patient/a1572612-4189-40d5-bdba-4fbe5333d734"},"period":{"start":"2022-03-08T00:00:00+00:00","end":"2022-03-16T00:00:00+00:00"}},"request":{"method":"POST","url":"Encounter"}},{"fullUrl":"Encounter/a81b1740-a41a-4772-b284-c9773dade5da","resource":{"resourceType":"Encounter","id":"a81b1740-a41a-4772-b284-c9773dade5da","status":"finished","class":{"system":"http://terminology.hl7.org/CodeSystem/v3-ActCode","code":"IMP","display":"inpatient encounter"},"type":[{"coding":[{"system":"http://terminology.hl7.org/CodeSystem/encounter-type","code":"BD/BM-clin"}]}],"subject":{"reference":"Patient/a1572612-4189-40d5-bdba-4fbe5333d734"},"period":{"start":"2022-05-05T00:00:00+00:00","end":"2022-05-12T00:00:00+00:00"}},"request":{"method":"POST","url":"Encounter"}},{"fullUrl":"Location/42b967f3-fad8-4eca-b7b6-fff4cf5c9c67","resource":{"resourceType":"Location","id":"42b967f3-fad8-4eca-b7b6-fff4cf5c9c67","status":"active","name":"Cooke Group","telecom":[{"system":"phone","value":"001-433-630-4793","use":"work"}],"address":{"use":"work","line":["064 Anthony Park"],"city":"East Sallymouth","state":"AL","postalCode":"52580"}},"request":{"method":"POST","url":"Location"}},{"fullUrl":"Observation/18e9cc39-b269-480d-88c1-fc87725c4c63","resource":{"resourceType":"Observation","id":"18e9cc39-b269-480d-88c1-fc87725c4c63","status":"final","code":{"coding":[{"system":"http://loinc.org","code":"81956-5"}]},"subject":{"reference":"Patient/a1572612-4189-40d5-bdba-4fbe5333d734"},"effectiveDateTime":"2022-12-25T00:00:00+00:00","valueDateTime":"2022-11-01T00:00:00+00:00"},"request":{"method":"POST","url":"Observation"}},{"fullUrl":"Patient/3aacd810-a96f-47de-9494-8a6e8199b2ce","resource":{"resourceType":"Patient","id":"3aacd810-a96f-47de-9494-8a6e8199b2ce","identifier":[{"type":{"coding":[{"system":"http://terminology.hl7.org/CodeSystem/v2-0203","code":"MR"}]},"system":"urn:fhirgen:mrn","value":"214-31-5798"},{"system":"http://hl7.org/fhir/sid/us-ssn","value":"894-83-8680"}],"name":[{"use":"official","family":"Stein","given":["Patrick"]},{"use":"maiden","family":"Torres"}],"telecom":[{"system":"phone","value":"001-430-991-4330x34837","use":"mobile"},{"system":"email","value":"hernandezdenise@hotmail.com","use":"home"}],"gender":"other","birthDate":"1997-12-27","address":[{"use":"home","line":["4371 Fisher Circle Apt. 586"],"city":"Port Brookefurt","state":"KS","postalCode":"39484"},{"use":"old","line":["091 Watson Bypass"],"city":"Jeffreyport","state":"ND","postalCode":"90956"}],"maritalStatus":{"coding":[{"system":"http://terminology.hl7.org/CodeSystem/v3-MaritalStatus","code":"D","display":"Divorced"}]}},"request":{"method":"POST","url":"Patient"}},{"fullUrl":"Observation/3a13e7a5-cea8-4aee-bf12-840f7b572290","resource":{"resourceType":"Observation","id":"3a13e7a5-cea8-4aee-bf12-840f7b572290","status":"final","code":{"coding":[{"system":"http://loinc.org","code":"50690-7"}]},"subject":{"reference":"Patient/3aacd810-a96f-47de-9494-8a6e8199b2ce"},"effectiveDateTime":"2022-08-01T00:00:00+00:00","valueRatio":{"numerator":{"value":1},"denominator":{"value":4}}},"request":{"method":"POST","url":"Observation"}},{"fullUrl":"Observation/4c5abb5e-4867-49d9-9efa-99d27c013c67","resource":{"resourceType":"Observation","id":"4c5abb5e-4867-49d9-9efa-99d27c013c67","status":"final","code":{"coding":[{"system":"http://loinc.org","code":"31147-2"}]},"subject":{"reference":"Patient/3aacd810-a96f-47de-9494-8a6e8199b2ce"},"effectiveDateTime":"2022-12-31T00:00:00+00:00","valueRatio":{"numerator":{"value":1},"denominator":{"value":32}}},"request":{"method":"POST","url":"Observation"}},{"fullUrl":"Condition/c043b688-867e-49c8-a997-cc37de089fb2","resource":{"resourceType":"Condition","id":"c043b688-867e-49c8-a997-cc37de089fb2","code":{"coding":[{"system":"http://snomed.info/sct","code":"297123002"}]},"subject":{"reference":"Patient/3aacd810-a96f-47de-9494-8a6e8199b2ce"},"onsetDateTime":"2022-03-19T00:00:00+00:00"},"request":{"method":"POST","url":"Condition"}},{"fullUrl":"Condition/9daffd30-214d-410f-8002-b570180e08e8","resource":{"resourceType":"Condition","id":"9daffd30-214d-410f-8002-b570180e08e8","code":{"coding":[{"system":"http://snomed.info/sct","code":"3951002"}]},"subject":{"reference":"Patient/3aacd810-a96f-47de-9494-8a6e8199b2ce"},"onsetDateTime":"2022-08-26T00:00:00+00:00"},"request":{"method":"POST","url":"Condition"}},{"fullUrl":"Condition/f4ccfa41-af1b-48c8-9f0d-560b6cd4d84e","resource":{"resourceType":"Condition","id":"f4ccfa41-af1b-48c8-9f0d-560b6cd4d84e","code":{"coding":[{"system":"http://snomed.info/sct","code":"736686006"}]},"subject":{"reference":"Patient/3aacd810-a96f-47de-9494-8a6e8199b2ce"},"onsetDateTime":"2022-05-12T00:00:00+00:00"},"request":{"method":"POST","url":"Condition"}},{"fullUrl":"Observation/792a4f0d-3dbc-4096-a251-98dd58cf78f1","resource":{"resourceType":"Observation","id":"792a4f0d-3dbc-4096-a251-98dd58cf78f1","status":"final","code":{"coding":[{"system":"http://loinc.org","code":"804-5"}]},"subject":{"reference":"Patient/3aacd810-a96f-47de-9494-8a6e8199b2ce"},"effectiveDateTime":"2022-07-11T00:00:00+00:00","valueQuantity":{"value":8.8}},"request":{"method":"POST","url":"Observation"}},{"fullUrl":"Observation/b65efb93-d44b-4052-87cd-0f134d15fafb","resource":{"resourceType":"Observation","id":"b65efb93-d44b-4052-87cd-0f134d15fafb","status":"final","code":{"coding":[{"system":"http://www.ama-assn.org/go/cpt","code":"85048"}]},"subject":{"reference":"Patient/3aacd810-a96f-47de-9494-8a6e8199b2ce"},"effectiveDateTime":"2022-07-26T00:00:00+00:00","valueQuantity":{"value":9.2}},"request":{"method":"POST","url":"Observation"}},{"fullUrl":"Observation/ba8aa1b7-5119-4b97-b971-498cce793536","resource":{"resourceType":"Observation","id":"ba8aa1b7-5119-4b97-b971-498cce793536","status":"final","code":{"coding":[{"system":"http://loinc.org","code":"6690-2"}]},"subject":{"reference":"Patient/3aacd810-a96f-47de-9494-8a6e8199b2ce"},"effectiveDateTime":"2022-03-23T00:00:00+00:00","valueQuantity":{"value":6.9}},"request":{"method":"POST","url":"Observation"}},{"fullUrl":"Observation/7491d36e-34a3-436a-9afe-ab4883f220b3","resource":{"resourceType":"Observation","id":"7491d36e-34a3-436a-9afe-ab4883f220b3","status":"final","code":{"coding":[{"system":"http://loinc.org","code":"26464-8"}]},"subject":{"reference":"Patient/3aacd810-a96f-47de-9494-8a6e8199b2ce"},"effectiveDateTime":"2022-04-18T00:00:00+00:00","valueCodeableConcept":{"coding":[{"system":"snomed","code":"123456","display":"fake snomed"}]}},"request":{"method":"POST","url":"Observation"}},{"fullUrl":"Observation/048cd513-79aa-494d-a4fa-6658f999cfde","resource":{"resourceType":"Observation","id":"048cd513-79aa-494d-a4fa-6658f999cfde","status":"final","code":{"coding":[{"system":"http://loinc.org","code":"26464-8"}]},"subject":{"reference":"Patient/3aacd810-a96f-47de-9494-8a6e8199b2ce"},"effectiveDateTime":"2022-01-17T00:00:00+00:00","valueCodeableConcept":{"coding":[{"system":"snomed","code":"123456","display":"fake snomed"}]}},"request":{"method":"POST","url":"Observation"}},{"fullUrl":"Observation/bdca5acb-0e53-4e2d-a77d-5381febbfaec","resource":{"resourceType":"Observation","id":"bdca5acb-0e53-4e2d-a77d-5381febbfaec","status":"final","code":{"coding":[{"system":"http://loinc.org","code":"49498-9"}]},"subject":{"reference":"Patient/3aacd810-a96f-47de-9494-8a6e8199b2ce"},"effectiveDateTime":"2022-11-06T00:00:00+00:00","valueCodeableConcept":{"coding":[{"system":"snomed","code":"123456","display":"fake snomed"}]}},"request":{"method":"POST","url":"Observation"}},{"fullUrl":"Observation/3ed9a2a2-ab2c-4a48-81c6-8361b34fdc83","resource":{"resourceType":"Observation","id":"3ed9a2a2-ab2c-4a48-81c6-8361b34fdc83","status":"final","code":{"coding":[{"system":"http://loinc.org","code":"49498-9"}]},"subject":{"reference":"Patient/3aacd810-a96f-47de-9494-8a6e8199b2ce"},"effectiveDateTime":"2022-08-09T00:00:00+00:00"},"request":{"method":"POST","url":"Observation"}},{"fullUrl":"Observation/d0841490-446d-473c-a07a-5ef806a30f1d","resource":{"resourceType":"Observation","id":"d0841490-446d-473c-a07a-5ef806a30f1d","status":"final","code":{"coding":[{"system":"http://loinc.org","code":"49498-9"}]},"subject":{"reference":"Patient/3aacd810-a96f-47de-9494-8a6e8199b2ce"},"effectiveDateTime":"2022-03-10T00:00:00+00:00"},"request":{"method":"POST","url":"Observation"}},{"fullUrl":"Procedure/1cb16f66-41fc-47e3-b730-34e35e370592","resource":{"resourceType":"Procedure","id":"1cb16f66-41fc-47e3-b730-34e35e370592","status":"completed","code":{"coding":[{"system":"http://snomed.info/sct","code":"647000"}]},"subject":{"reference":"Patient/3aacd810-a96f-47de-9494-8a6e8199b2ce"},"performedDateTime":"2022-11-19T00:00:00+00:00"},"request":{"method":"POST","url":"Procedure"}},{"fullUrl":"Procedure/7aa969d5-474e-46e8-84e0-57611021e215","resource":{"resourceType":"Procedure","id":"7aa969d5-474e-46e8-84e0-57611021e215","status":"completed","code":{"coding":[{"system":"http://snomed.info/sct","code":"115006"}]},"subject":{"reference":"Patient/3aacd810-a96f-47de-9494-8a6e8199b2ce"},"performedDateTime":"2022-09-06T00:00:00+00:00"},"request":{"method":"POST","url":"Procedure"}},{"fullUrl":"Procedure/613fd48e-ec12-48f8-a68a-96580dd4ac56","resource":{"resourceType":"Procedure","id":"613fd48e-ec12-48f8-a68a-96580dd4ac56","status":"completed","code":{"coding":[{"system":"http://snomed.info/sct","code":"647000"}]},"subject":{"reference":"Patient/3aacd810-a96f-47de-9494-8a6e8199b2ce"},"performedDateTime":"2022-04-29T00:00:00+00:00"},"request":{"method":"POST","url":"Procedure"}},{"fullUrl":"MedicationStatement/81c931e6-1179-473e-af49-3e689378e21f","resource":{"resourceType":"MedicationStatement","id":"81c931e6-1179-473e-af49-3e689378e21f","status":"completed","medicationCodeableConcept":{"coding":[{"system":"http://www.nlm.nih.gov/research/umls/rxnorm","code":"10395"}]},"subject":{"reference":"Patient/3aacd810-a96f-47de-9494-8a6e8199b2ce"},"effectiveDateTime":"2022-08-14T00:00:00+00:00","dosage":[{"doseAndRate":[{"doseQuantity":{"value":1,"unit":"TAB","system":"http://terminology.hl7.org/CodeSystem/v3-orderableDrugForm","code":"TAB"}}]}]},"request":{"method":"POST","url":"MedicationStatement"}},{"fullUrl":"MedicationStatement/06a8afa3-c23d-4c17-8343-86ceba3400eb","resource":{"resourceType":"MedicationStatement","id":"06a8afa3-c23d-4c17-8343-86ceba3400eb","status":"completed","medicationCodeableConcept":{"coding":[{"system":"http://www.nlm.nih.gov/research/umls/rxnorm","code":"10395"}]},"subject":{"reference":"Patient/3aacd810-a96f-47de-9494-8a6e8199b2ce"},"effectiveDateTime":"2022-02-13T00:00:00+00:00","dosage":[{"doseAndRate":[{"doseQuantity":{"value":1,"unit":"TAB","system":"http://terminology.hl7.org/CodeSystem/v3-orderableDrugForm","code":"TAB"}}]}]},"request":{"method":"POST","url":"MedicationStatement"}},{"fullUrl":"MedicationStatement/22986c35-21b2-4242-8cf0-f81f616cfb71","resource":{"resourceType":"MedicationStatement","id":"22986c35-21b2-4242-8cf0-f81f616cfb71","status":"completed","medicationCodeableConcept":{"coding":[{"system":"http://www.nlm.nih.gov/research/umls/rxnorm","code":"3640"}]},"subject":{"reference":"Patient/3aacd810-a96f-47de-9494-8a6e8199b2ce"},"effectiveDateTime":"2022-10-06T00:00:00+00:00","dosage":[{"doseAndRate":[{"doseQuantity":{"value":1,"unit":"TAB","system":"http://terminology.hl7.org/CodeSystem/v3-orderableDrugForm","code":"TAB"}}]}]},"request":{"method":"POST","url":"MedicationStatement"}},{"fullUrl":"MedicationStatement/15242b4c-0c67-48a5-9708-c8fe39f68eec","resource":{"resourceType":"MedicationStatement","id":"15242b4c-0c67-48a5-9708-c8fe39f68eec","status":"completed","medicationCodeableConcept":{"coding":[{"system":"http://www.nlm.nih.gov/research/umls/rxnorm","code":"3640"}]},"subject":{"reference":"Patient/3aacd810-a96f-47de-9494-8a6e8199b2ce"},"effectiveDateTime":"2022-06-16T00:00:00+00:00","dosage":[{"doseAndRate":[{"doseQuantity":{"value":2,"unit":"TAB","system":"http://terminology.hl7.org/CodeSystem/v3-orderableDrugForm","code":"TAB"}}]}]},"request":{"method":"POST","url":"MedicationStatement"}},{"fullUrl":"MedicationStatement/984e47cd-9eac-4551-9774-46d905b122b9","resource":{"resourceType":"MedicationStatement","id":"984e47cd-9eac-4551-9774-46d905b122b9","status":"completed","medicationCodeableConcept":{"coding":[{"system":"http://www.nlm.nih.gov/research/umls/rxnorm","code":"8698"}]},"subject":{"reference":"Patient/3aacd810-a96f-47de-9494-8a6e8199b2ce"},"effectiveDateTime":"2022-08-08T00:00:00+00:00","dosage":[{"doseAndRate":[{"doseQuantity":{"value":1,"unit":"TAB","system":"http://terminology.hl7.org/CodeSystem/v3-orderableDrugForm","code":"TAB"}}]}]},"request":{"method":"POST","url":"MedicationStatement"}},{"fullUrl":"MedicationStatement/548a0072-8319-4a73-a622-1b01b9fc7199","resource":{"resourceType":"MedicationStatement","id":"548a0072-8319-4a73-a622-1b01b9fc7199","status":"completed","medicationCodeableConcept":{"coding":[{"system":"http://www.nlm.nih.gov/research/umls/rxnorm","code":"18631"}]},"subject":{"reference":"Patient/3aacd810-a96f-47de-9494-8a6e8199b2ce"},"effectiveDateTime":"2022-01-23T00:00:00+00:00","dosage":[{"doseAndRate":[{"doseQuantity":{"value":5.9,"unit":"TAB","system":"http://terminology.hl7.org/CodeSystem/v3-orderableDrugForm","code":"TAB"}}]}]},"request":{"method":"POST","url":"MedicationStatement"}},{"fullUrl":"MedicationStatement/14406466-9215-4bb5-845e-615629f1c922","resource":{"resourceType":"MedicationStatement","id":"14406466-9215-4bb5-845e-615629f1c922","status":"completed","medicationCodeableConcept":{"coding":[{"system":"http://www.nlm.nih.gov/research/umls/rxnorm","code":"18631"}]},"subject":{"reference":"Patient/3aacd810-a96f-47de-9494-8a6e8199b2ce"},"effectiveDateTime":"2022-02-04T00:00:00+00:00","dosage":[{"doseAndRate":[{"doseQuantity":{"value":4.2,"unit":"TAB","system":"http://terminology.hl7.org/CodeSystem/v3-orderableDrugForm","code":"TAB"}}]}]},"request":{"method":"POST","url":"MedicationStatement"}},{"fullUrl":"Encounter/6236aec9-565e-4d21-a734-28fb7e50faca","resource":{"resourceType":"Encounter","id":"6236aec9-565e-4d21-a734-28fb7e50faca","status":"finished","class":{"system":"http://terminology.hl7.org/CodeSystem/v3-ActCode","code":"IMP","display":"inpatient encounter"},"type":[{"coding":[{"system":"http://terminology.hl7.org/CodeSystem/encounter-type","code":"BD/BM-clin"}]}],"subject":{"reference":"Patient/3aacd810-a96f-47de-9494-8a6e8199b2ce"},"period":{"start":"2022-05-18T00:00:00+00:00","end":"2022-05-25T00:00:00+00:00"}},"request":{"method":"POST","url":"Encounter"}},{"fullUrl":"Encounter/a3fb7b88-cfb7-461d-87bd-b299098bca8d","resource":{"resourceType":"Encounter","id":"a3fb7b88-cfb7-461d-87bd-b299098bca8d","status":"finished","class":{"system":"http://terminology.hl7.org/CodeSystem/v3-ActCode","code":"IMP","display":"inpatient encounter"},"type":[{"coding":[{"system":"http://terminology.hl7.org/CodeSystem/encounter-type","code":"BD/BM-clin"}]}],"subject":{"reference":"Patient/3aacd810-a96f-47de-9494-8a6e8199b2ce"},"period":{"start":"2022-10-13T00:00:00+00:00","end":"2022-10-17T00:00:00+00:00"}},"request":{"method":"POST","url":"Encounter"}},{"fullUrl":"Encounter/6298b495-56e7-4c1d-9376-cb3077c82ef6","resource":{"resourceType":"Encounter","id":"6298b495-56e7-4c1d-9376-cb3077c82ef6","status":"finished","class":{"system":"http://terminology.hl7.org/CodeSystem/v3-ActCode","code":"NONAC","display":"inpatient non-acute"},"type":[{"coding":[{"system":"http://terminology.hl7.org/CodeSystem/encounter-type","code":"OKI"}]}],"subject":{"reference":"Patient/3aacd810-a96f-47de-9494-8a6e8199b2ce"},"period":{"start":"2022-09-26T00:00:00+00:00","end":"2022-09-26T00:00:00+00:00"}},"request":{"method":"POST","url":"Encounter"}},{"fullUrl":"Encounter/bc3a9b24-930f-46ca-b84d-1be7722867fd","resource":{"resourceType":"Encounter","id":"bc3a9b24-930f-46ca-b84d-1be7722867fd","status":"finished","class":{"system":"http://terminology.hl7.org/CodeSystem/v3-ActCode","code":"ACUTE","display":"inpatient acute"},"type":[{"coding":[{"system":"http://terminology.hl7.org/CodeSystem/encounter-type","code":"BD/BM-clin"}]}],"subject":{"reference":"Patient/3aacd810-a96f-47de-9494-8a6e8199b2ce"},"period":{"start":"2022-06-01T00:00:00+00:00","end":"2022-06-09T00:00:00+00:00"}},"request":{"method":"POST","url":"Encounter"}},{"fullUrl":"Encounter/2e45ccd2-29c1-46e2-b8d7-2c7b41f5b584","resource":{"resourceType":"Encounter","id":"2e45ccd2-29c1-46e2-b8d7-2c7b41f5b584","status":"finished","class":{"system":"http://terminology.hl7.org/CodeSystem/v3-ActCode","code":"VR","display":"virtual"},"type":[{"coding":[{"system":"http://terminology.hl7.org/CodeSystem/encounter-type","code":"ADMS"}]}],"subject":{"reference":"Patient/3aacd810-a96f-47de-9494-8a6e8199b2ce"},"period":{"start":"2022-10-25T00:00:00+00:00","end":"2022-10-25T00:00:00+00:00"}},"request":{"method":"POST","url":"Encounter"}},{"fullUrl":"Location/4942715a-f303-41b2-9e84-7a3a16101e3d","resource":{"resourceType":"Location","id":"4942715a-f303-41b2-9e84-7a3a16101e3d","status":"active","name":"Martin, Moss and Torres","telecom":[{"system":"phone","value":"(093)378-7607","use":"mobile"}],"address":{"use":"work","line":["04413 Lynch Lights"],"city":"New Robertchester","state":"ME","postalCode":"85938"}},"request":{"method":"POST","url":"Location"}},{"fullUrl":"Observation/a3395085-5a6d-4114-9cc3-190dee88ac50","resource":{"resourceType":"Observation","id":"a3395085-5a6d-4114-9cc3-190dee88ac50","status":"final","code":{"coding":[{"system":"http://loinc.org","code":"81956-5"}]},"subject":{"reference":"Patient/3aacd810-a96f-47de-9494-8a6e8199b2ce"},"effectiveDateTime":"2022-10-25T00:00:00+00:00","valueDateTime":"2022-09-19T00:00:00+00:00"},"request":{"method":"POST","url":"Observation"}}]}