{"resourceType":"Bundle","id":"c623cf1c-6b8e-4581-a926-5f61fdfbcf9b","type":"transaction","entry":[{"fullUrl":"Patient/a618eabe-ff26-418d-a4c2-1201611222df","resource":{"resourceType":"Patient","id":"a618eabe-ff26-418d-a4c2-1201611222df","identifier":[{"type":{"coding":[{"system":"http://terminology.hl7.org/CodeSystem/v2-0203","code":"MR"}]},"system":"urn:fhirgen:mrn","value":"403-70-0437"}],"name":[{"use":"official","family":"Sullivan","given":["Johnny"]},{"use":"maiden","family":"Evans"}],"telecom":[{"system":"phone","value":"+1-022-405-2425x724","use":"work"},{"system":"email","value":"bryce28@hotmail.com","use":"work"}],"gender":"male","birthDate":"1970-01-03","address":[{"use":"home","line":["53071 Parks Coves"],"city":"Josephland","state":"IN","postalCode":"26955"},{"use":"old","line":["188 Pratt Streets Apt. 360"],"city":"Butlerburgh","state":"NC","postalCode":"25241"}]},"request":{"method":"POST","url":"Patient"}},{"fullUrl":"Observation/165a1303-fe45-40d1-bef5-728c5b0215be","resource":{"resourceType":"Observation","id":"165a1303-fe45-40d1-bef5-728c5b0215be","status":"final","code":{"coding":[{"system":"http://loinc.org","code":"87925-4"}]},"subject":{"reference":"Patient/a618eabe-ff26-418d-a4c2-1201611222df"},"effectiveDateTime":"2022-06-23T00:00:00+00:00","valueRatio":{"numerator":{"value":1},"denominator":{"value":4}}},"request":{"method":"POST","url":"Observation"}},{"fullUrl":"Observation/3b134794-9cf2-47ee-8110-136575afa703","resource":{"resourceType":"Observation","id":"3b134794-9cf2-47ee-8110-136575afa703","status":"final","code":{"coding":[{"system":"http://loinc.org","code":"31146-4"}]},"subject":{"reference":"Patient/a618eabe-ff26-418d-a4c2-1201611222df"},"effectiveDateTime":"2022-09-04T00:00:00+00:00","valueRatio":{"numerator":{"value":1},"denominator":{"value":4}}},"request":{"method":"POST","url":"Observation"}},{"fullUrl":"Condition/039879fd-5074-4cc8-9b43-467eb82f0a0b","resource":{"resourceType":"Condition","id":"039879fd-5074-4cc8-9b43-467eb82f0a0b","code":{"coding":[{"system":"http://snomed.info/sct","code":"271807003"}]},"subject":{"reference":"Patient/a618eabe-ff26-418d-a4c2-1201611222df"},"onsetDateTime":"2022-11-25T00:00:00+00:00"},"request":{"method":"POST","url":"Condition"}},{"fullUrl":"Condition/3063337b-cb36-4ad0-ad2c-3f5ca4e62c92","resource":{"resourceType":"Condition","id":"3063337b-cb36-4ad0-ad2c-3f5ca4e62c92","code":{"coding":[{"system":"http://snomed.info/sct","code":"248980004"}]},"subject":{"reference":"Patient/a618eabe-ff26-418d-a4c2-1201611222df"},"onsetDateTime":"2022-05-14T00:00:00+00:00"},"request":{"method":"POST","url":"Condition"}},{"fullUrl":"Condition/83c39a2a-6fba-4d96-9dd3-76c83533204d","resource":{"resourceType":"Condition","id":"83c39a2a-6fba-4d96-9dd3-76c83533204d","code":{"coding":[{"system":"http://snomed.info/sct","code":"386661006"}]},"subject":{"reference":"Patient/a618eabe-ff26-418d-a4c2-1201611222df"},"onsetDateTime":"2022-06-15T00:00:00+00:00"},"request":{"method":"POST","url":"Condition"}},{"fullUrl":"Condition/0a2c0edc-8069-482f-bd81-edb5c5c6a409","resource":{"resourceType":"Condition","id":"0a2c0edc-8069-482f-bd81-edb5c5c6a409","code":{"coding":[{"system":"http://snomed.info/sct","code":"31070006"}]},"subject":{"reference":"Patient/a618eabe-ff26-418d-a4c2-1201611222df"},"onsetDateTime":"2022-07-12T00:00:00+00:00"},"request":{"method":"POST","url":"Condition"}},{"fullUrl":"Condition/817a3094-03c2-4c94-b1ab-07157bc19b9f","resource":{"resourceType":"Condition","id":"817a3094-03c2-4c94-b1ab-07157bc19b9f","code":{"coding":[{"system":"http://snomed.info/sct","code":"71315007"}]},"subject":{"reference":"Patient/a618eabe-ff26-418d-a4c2-1201611222df"},"onsetDateTime":"2022-07-14T00:00:00+00:00"},"request":{"method":"POST","url":"Condition"}},{"fullUrl":"Condition/17317176-2505-4448-9823-caf6ec1415f6","resource":{"resourceType":"Condition","id":"17317176-2505-4448-9823-caf6ec1415f6","code":{"coding":[{"system":"http://snomed.info/sct","code":"91554004"}]},"subject":{"reference":"Patient/a618eabe-ff26-418d-a4c2-1201611222df"},"onsetDateTime":"2022-04-06T00:00:00+00:00"},"request":{"method":"POST","url":"Condition"}},{"fullUrl":"Condition/de0672f5-671e-4bf8-b39d-bd660b049df4","resource":{"resourceType":"Condition","id":"de0672f5-671e-4bf8-b39d-bd660b049df4","code":{"coding":[{"system":"http://snomed.info/sct","code":"18165001"}]},"subject":{"reference":"Patient/a618eabe-ff26-418d-a4c2-1201611222df"},"onsetDateTime":"2022-11-09T00:00:00+00:00"},"request":{"method":"POST","url":"Condition"}},{"fullUrl":"Observation/2dcc83c1-3d60-4942-831e-7a027cd0e4e3","resource":{"resourceType":"Observation","id":"2dcc83c1-3d60-4942-831e-7a027cd0e4e3","status":"final","code":{"coding":[{"system":"http://www.ama-assn.org/go/cpt","code":"85048"}]},"subject":{"reference":"Patient/a618eabe-ff26-418d-a4c2-1201611222df"},"effectiveDateTime":"2022-02-06T00:00:00+00:00","valueQuantity":{"value":9.3}},"request":{"method":"POST","url":"Observation"}},{"fullUrl":"Observation/91b1fed5-997d-4e90-8251-e5642676ad3c","resource":{"resourceType":"Observation","id":"91b1fed5-997d-4e90-8251-e5642676ad3c","status":"final","code":{"coding":[{"system":"http://loinc.org","code":"49498-9"}]},"subject":{"reference":"Patient/a618eabe-ff26-418d-a4c2-1201611222df"},"effectiveDateTime":"2022-08-19T00:00:00+00:00","valueQuantity":{"value":6.9}},"request":{"method":"POST","url":"Observation"}},{"fullUrl":"Observation/18f46a26-580b-4364-9ac3-bf488070da57","resource":{"resourceType":"Observation","id":"18f46a26-580b-4364-9ac3-bf488070da57","status":"final","code":{"coding":[{"system":"http://www.ama-assn.org/go/cpt","code":"85048"}]},"subject":{"reference":"Patient/a618eabe-ff26-418d-a4c2-1201611222df"},"effectiveDateTime":"2022-02-16T00:00:00+00:00","valueCodeableConcept":{"coding":[{"system":"snomed","code":"123456","display":"fake snomed"}]}},"request":{"method":"POST","url":"Observation"}},{"fullUrl":"Observation/e86c7671-0e73-4058-b2fd-6e2c373948be","resource":{"resourceType":"Observation","id":"e86c7671-0e73-4058-b2fd-6e2c373948be","status":"final","code":{"coding":[{"system":"http://loinc.org","code":"6690-2"}]},"subject":{"reference":"Patient/a618eabe-ff26-418d-a4c2-1201611222df"},"effectiveDateTime":"2022-08-03T00:00:00+00:00","valueCodeableConcept":{"coding":[{"system":"snomed","code":"123456","display":"fake snomed"}]}},"request":{"method":"POST","url":"Observation"}},{"fullUrl":"Observation/62657fab-7161-48c1-8969-504b2294f5bf","resource":{"resourceType":"Observation","id":"62657fab-7161-48c1-8969-504b2294f5bf","status":"final","code":{"coding":[{"system":"http://loinc.org","code":"49498-9"}]},"subject":{"reference":"Patient/a618eabe-ff26-418d-a4c2-1201611222df"},"effectiveDateTime":"2022-08-23T00:00:00+00:00"},"request":{"method":"POST","url":"Observation"}},{"fullUrl":"Observation/6b7dd92b-f8c8-491e-b2e4-4910c5156872","resource":{"resourceType":"Observation","id":"6b7dd92b-f8c8-491e-b2e4-4910c5156872","status":"final","code":{"coding":[{"system":"http://loinc.org","code":"49498-9"}]},"subject":{"reference":"Patient/a618eabe-ff26-418d-a4c2-1201611222df"},"effectiveDateTime":"2022-03-27T00:00:00+00:00"},"request":{"method":"POST","url":"Observation"}},{"fullUrl":"Observation/e90f410d-b85c-4cf6-8d1d-8aa0c1ef6641","resource":{"resourceType":"Observation","id":"e90f410d-b85c-4cf6-8d1d-8aa0c1ef6641","status":"final","code":{"coding":[{"system":"http://loinc.org","code":"49498-9"}]},"subject":{"reference":"Patient/a618eabe-ff26-418d-a4c2-1201611222df"},"effectiveDateTime":"2022-08-09T00:00:00+00:00"},"request":{"method":"POST","url":"Observation"}},{"fullUrl":"Procedure/7e78d41e-2a70-4e67-a47a-5bc5ec36e1ba","resource":{"resourceType":"Procedure","id":"7e78d41e-2a70-4e67-a47a-5bc5ec36e1ba","status":"completed","code":{"coding":[{"system":"http://snomed.info/sct","code":"146005"}]},"subject":{"reference":"Patient/a618eabe-ff26-418d-a4c2-1201611222df"},"performedDateTime":"2022-09-25T00:00:00+00:00"},"request":{"method":"POST","url":"Procedure"}},{"fullUrl":"Procedure/6c642d9b-0c6e-48a6-85a8-564e0904fdce","resource":{"resourceType":"Procedure","id":"6c642d9b-0c6e-48a6-85a8-564e0904fdce","status":"completed","code":{"coding":[{"system":"http://snomed.info/sct","code":"189009"}]},"subject":{"reference":"Patient/a618eabe-ff26-418d-a4c2-1201611222df"},"performedDateTime":"2022-04-13T00:00:00+00:00"},"request":{"method":"POST","url":"Procedure"}},{"fullUrl":"Procedure/1c9f1715-261b-40d7-b32a-c71401c684a1","resource":{"resourceType":"Procedure","id":"1c9f1715-261b-40d7-b32a-c71401c684a1","status":"completed","code":{"coding":[{"system":"http://snomed.info/sct","code":"115006"}]},"subject":{"reference":"Patient/a618eabe-ff26-418d-a4c2-1201611222df"},"performedDateTime":"2022-09-18T00:00:00+00:00"},"request":{"method":"POST","url":"Procedure"}},{"fullUrl":"MedicationStatement/8aba76a0-1701-4727-8554-b389975152ec","resource":{"resourceType":"MedicationStatement","id":"8aba76a0-1701-4727-8554-b389975152ec","status":"completed","medicationCodeableConcept":{"coding":[{"system":"http://www.nlm.nih.gov/research/umls/rxnorm","code":"7980"}]},"subject":{"reference":"Patient/a618eabe-ff26-418d-a4c2-1201611222df"},"effectiveDateTime":"2022-01-24T00:00:00+00:00","dosage":[{"doseAndRate":[{"doseQuantity":{"value":1,"unit":"TAB","system":"http://terminology.hl7.org/CodeSystem/v3-orderableDrugForm","code":"TAB"}}]}]},"request":{"method":"POST","url":"MedicationStatement"}},{"fullUrl":"MedicationStatement/712d3ee9-227f-4876-8b5f-4a678ddd4e3b","resource":{"resourceType":"MedicationStatement","id":"712d3ee9-227f-4876-8b5f-4a678ddd4e3b","status":"completed","medicationCodeableConcept":{"coding":[{"system":"http://www.nlm.nih.gov/research/umls/rxnorm","code":"3640"}]},"subject":{"reference":"Patient/a618eabe-ff26-418d-a4c2-1201611222df"},"effectiveDateTime":"2022-01-08T00:00:00+00:00","dosage":[{"doseAndRate":[{"doseQuantity":{"value":1,"unit":"TAB","system":"http://terminology.hl7.org/CodeSystem/v3-orderableDrugForm","code":"TAB"}}]}]},"request":{"method":"POST","url":"MedicationStatement"}},{"fullUrl":"MedicationStatement/fd3873ef-c521-4867-af89-1bf37cc50dc2","resource":{"resourceType":"MedicationStatement","id":"fd3873ef-c521-4867-af89-1bf37cc50dc2","status":"completed","medicationCodeableConcept":{"coding":[{"system":"http://www.nlm.nih.gov/research/umls/rxnorm","code":"8698"}]},"subject":{"reference":"Patient/a618eabe-ff26-418d-a4c2-1201611222df"},"effectiveDateTime":"2022-08-19T00:00:00+00:00","dosage":[{"doseAndRate":[{"doseQuantity":{"value":3.5,"unit":"TAB","system":"http://terminology.hl7.org/CodeSystem/v3-orderableDrugForm","code":"TAB"}}]}]},"request":{"method":"POST","url":"MedicationStatement"}},{"fullUrl":"MedicationStatement/7c6ea658-c657-4f57-9b73-eb5c958cad61","resource":{"resourceType":"MedicationStatement","id":"7c6ea658-c657-4f57-9b73-eb5c958cad61","status":"completed","medicationCodeableConcept":{"coding":[{"system":"http://www.nlm.nih.gov/research/umls/rxnorm","code":"10395"}]},"subject":{"reference":"Patient/a618eabe-ff26-418d-a4c2-1201611222df"},"effectiveDateTime":"2022-12-07T00:00:00+00:00","dosage":[{"doseAndRate":[{"doseQuantity":{"value":7,"unit":"TAB","system":"http://terminology.hl7.org/CodeSystem/v3-orderableDrugForm","code":"TAB"}}]}]},"request":{"method":"POST","url":"MedicationStatement"}},{"fullUrl":"MedicationStatement/7ddb6de4-040d-4527-865c-d4860ba59c2e","resource":{"resourceType":"MedicationStatement","id":"7ddb6de4-040d-4527-865c-d4860ba59c2e","status":"completed","medicationCodeableConcept":{"coding":[{"system":"http://www.nlm.nih.gov/research/umls/rxnorm","code":"7984"}]},"subject":{"reference":"Patient/a618eabe-ff26-418d-a4c2-1201611222df"},"effectiveDateTime":"2022-12-29T00:00:00+00:00","dosage":[{"doseAndRate":[{"doseQuantity":{"value":6.8,"unit":"TAB","system":"http://terminology.hl7.org/CodeSystem/v3-orderableDrugForm","code":"TAB"}}]}]},"request":{"method":"POST","url":"MedicationStatement"}},{"fullUrl":"MedicationStatement/a8485b64-baaf-445d-afba-cac9297db3b8","resource":{"resourceType":"MedicationStatement","id":"a8485b64-baaf-445d-afba-cac9297db3b8","status":"completed","medicationCodeableConcept":{"coding":[{"system":"http://www.nlm.nih.gov/research/umls/rxnorm","code":"7984"}]},"subject":{"reference":"Patient/a618eabe-ff26-418d-a4c2-1201611222df"},"effectiveDateTime":"2022-02-05T00:00:00+00:00","dosage":[{"doseAndRate":[{"doseQuantity":{"value":6.5,"unit":"TAB","system":"http://terminology.hl7.org/CodeSystem/v3-orderableDrugForm","code":"TAB"}}]}]},"request":{"method":"POST","url":"MedicationStatement"}},{"fullUrl":"MedicationStatement/c6aa9382-dc9a-4910-a9d4-c12af7ef1f19","resource":{"resourceType":"MedicationStatement","id":"c6aa9382-dc9a-4910-a9d4-c12af7ef1f19","status":"completed","medicationCodeableConcept":{"coding":[{"system":"http://www.nlm.nih.gov/research/umls/rxnorm","code":"2193"}]},"subject":{"reference":"Patient/a618eabe-ff26-418d-a4c2-1201611222df"},"effectiveDateTime":"2022-06-27T00:00:00+00:00","dosage":[{"doseAndRate":[{"doseQuantity":{"value":4.8,"unit":"TAB","system":"http://terminology.hl7.org/CodeSystem/v3-orderableDrugForm","code":"TAB"}}]}]},"request":{"method":"POST","url":"MedicationStatement"}},{"fullUrl":"MedicationStatement/05f4e2d6-77a6-4b33-8391-39c31baf576f","resource":{"resourceType":"MedicationStatement","id":"05f4e2d6-77a6-4b33-8391-39c31baf576f","status":"completed","medicationCodeableConcept":{"coding":[{"system":"http://www.nlm.nih.gov/research/umls/rxnorm","code":"18631"}]},"subject":{"reference":"Patient/a618eabe-ff26-418d-a4c2-1201611222df"},"effectiveDateTime":"2022-11-28T00:00:00+00:00","dosage":[{"doseAndRate":[{"doseQuantity":{"value":4.3,"unit":"TAB","system":"http://terminology.hl7.org/CodeSystem/v3-orderableDrugForm","code":"TAB"}}]}]},"request":{"method":"POST","url":"MedicationStatement"}},{"fullUrl":"MedicationStatement/6f034bb4-5148-4cd5-b26d-568043724eb4","resource":{"resourceType":"MedicationStatement","id":"6f034bb4-5148-4cd5-b26d-568043724eb4","status":"completed","medicationCodeableConcept":{"coding":[{"system":"http://www.nlm.nih.gov/research/umls/rxnorm","code":"18631"}]},"subject":{"reference":"Patient/a618eabe-ff26-418d-a4c2-1201611222df"},"effectiveDateTime":"2022-07-25T00:00:00+00:00","dosage":[{"doseAndRate":[{"doseQuantity":{"value":4.1,"unit":"TAB","system":"http://terminology.hl7.org/CodeSystem/v3-orderableDrugForm","code":"TAB"}}]}]},"request":{"method":"POST","url":"MedicationStatement"}},{"fullUrl":"Encounter/f7e286b1-bd2d-4c7f-826c-7bcf3e4c5883","resource":{"resourceType":"Encounter","id":"f7e286b1-bd2d-4c7f-826c-7bcf3e4c5883","status":"finished","class":{"system":"http://terminology.hl7.org/CodeSystem/v3-ActCode","code":"IMP","display":"inpatient encounter"},"type":[{"coding":[{"system":"http://terminology.hl7.org/CodeSystem/encounter-type","code":"ADMS"}]}],"subject":{"reference":"Patient/a618eabe-ff26-418d-a4c2-1201611222df"},"period":{"start":"2022-01-29T00:00:00+00:00","end":"2022-02-05T00:00:00+00:00"}},"request":{"method":"POST","url":"Encounter"}},{"fullUrl":"Encounter/968e8474-6a7c-4159-9189-4f41abc621e7","resource":{"resourceType":"Encounter","id":"968e8474-6a7c-4159-9189-4f41abc621e7","status":"finished","class":{"system":"http://terminology.hl7.org/CodeSystem/v3-ActCode","code":"IMP","display":"inpatient encounter"},"type":[{"coding":[{"system":"http://terminology.hl7.org/CodeSystem/encounter-type","code":"ADMS"}]}],"subject":{"reference":"Patient/a618eabe-ff26-418d-a4c2-1201611222df"},"period":{"start":"2022-02-09T00:00:00+00:00","end":"2022-02-14T00:00:00+00:00"}},"request":{"method":"POST","url":"Encounter"}},{"fullUrl":"Encounter/bcea8957-3ec9-4ce2-8284-607982cbe6b5","resource":{"resourceType":"Encounter","id":"bcea8957-3ec9-4ce2-8284-607982cbe6b5","status":"finished","class":{"system":"http://terminology.hl7.org/CodeSystem/v3-ActCode","code":"IMP","display":"inpatient encounter"},"type":[{"coding":[{"system":"http://terminology.hl7.org/CodeSystem/encounter-type","code":"BD/BM-clin"}]}],"subject":{"reference":"Patient/a618eabe-ff26-418d-a4c2-1201611222df"},"period":{"start":"2022-06-30T00:00:00+00:00","end":"2022-07-05T00:00:00+00:00"}},"request":{"method":"POST","url":"Encounter"}},{"fullUrl":"Encounter/4549f2c1-1523-4826-aac6-8240e703d0b9","resource":{"resourceType":"Encounter","id":"4549f2c1-1523-4826-aac6-8240e703d0b9","status":"finished","class":{"system":"http://terminology.hl7.org/CodeSystem/v3-ActCode","code":"SS","display":"short-stay"},"type":[{"coding":[{"system":"http://terminology.hl7.org/CodeSystem/encounter-type","code":"CCS60"}]}],"subject":{"reference":"Patient/a618eabe-ff26-418d-a4c2-1201611222df"},"period":{"start":"2022-07-08T00:00:00+00:00","end":"2022-07-16T00:00:00+00:00"}},"request":{"method":"POST","url":"Encounter"}},{"fullUrl":"Encounter/e3425972-aac9-4634-9b2e-83e725cef258","resource":{"resourceType":"Encounter","id":"e3425972-aac9-4634-9b2e-83e725cef258","status":"finished","class":{"system":"http://terminology.hl7.org/CodeSystem/v3-ActCode","code":"EMER","display":"emergency"},"type":[{"coding":[{"system":"http://terminology.hl7.org/CodeSystem/encounter-type","code":"CCS60"}]}],"subject":{"reference":"Patient/a618eabe-ff26-418d-a4c2-1201611222df"},"period":{"start":"2022-05-08T00:00:00+00:00","end":"2022-05-10T00:00:00+00:00"}},"request":{"method":"POST","url":"Encounter"}},{"fullUrl":"Patient/9c77d862-5355-40b0-8881-4ca238b73ffc","resource":{"resourceType":"Patient","id":"9c77d862-5355-40b0-8881-4ca238b73ffc","identifier":[{"type":{"coding":[{"system":"http://terminology.hl7.org/CodeSystem/v2-0203","code":"MR"}]},"system":"urn:fhirgen:mrn","value":"788-09-8401"}],"name":[{"use":"official","family":"Burke","given":["Gene"]},{"use":"maiden","family":"Vance"}],"telecom":[{"system":"phone","value":"+1-844-003-5598","use":"home"},{"system":"email","value":"nathancook@hotmail.com","use":"home"}],"gender":"male","birthDate":"1945-07-20","address":[{"use":"home","line":["261 Robert Pass"],"city":"Haydenchester","state":"WY","postalCode":"87745"},{"use":"old","line":["41539 Collier Spurs"],"city":"Meganmouth","state":"TN","postalCode":"02532"}]},"request":{"method":"POST","url":"Patient"}},{"fullUrl":"Observation/37f27605-f431-450e-8520-89aadd9b3684","resource":{"resourceType":"Observation","id":"37f27605-f431-450e-8520-89aadd9b3684","status":"final","code":{"coding":[{"system":"http://loinc.org","code":"22590-4"}]},"subject":{"reference":"Patient/9c77d862-5355-40b0-8881-4ca238b73ffc"},"effectiveDateTime":"2022-12-27T00:00:00+00:00","valueRatio":{"numerator":{"value":1},"denominator":{"value":32}}},"request":{"method":"POST","url":"Observation"}},{"fullUrl":"Observation/d2bab68a-a8ee-4c8b-879e-fde4490222cb","resource":{"resourceType":"Observation","id":"d2bab68a-a8ee-4c8b-879e-fde4490222cb","status":"final","code":{"coding":[{"system":"http://loinc.org","code":"71793-4"}]},"subject":{"reference":"Patient/9c77d862-5355-40b0-8881-4ca238b73ffc"},"effectiveDateTime":"2022-03-01T00:00:00+00:00","valueRatio":{"numerator":{"value":1},"denominator":{"value":32}}},"request":{"method":"POST","url":"Observation"}},{"fullUrl":"Observation/5a5f12b3-c97d-4a45-b65a-0d7a4f74d8f6","resource":{"resourceType":"Observation","id":"5a5f12b3-c97d-4a45-b65a-0d7a4f74d8f6","status":"final","code":{"coding":[{"system":"http://loinc.org","code":"11084-1"}]},"subject":{"reference":"Patient/9c77d862-5355-40b0-8881-4ca238b73ffc"},"effectiveDateTime":"2022-03-30T00:00:00+00:00","valueRatio":{"numerator":{"value":1},"denominator":{"value":4}}},"request":{"method":"POST","url":"Observation"}},{"fullUrl":"Condition/9c079d83-734c-4627-9318-4f9e602eb857","resource":{"resourceType":"Condition","id":"9c079d83-734c-4627-9318-4f9e602eb857","code":{"coding":[{"system":"http://snomed.info/sct","code":"248980004"}]},"subject":{"reference":"Patient/9c77d862-5355-40b0-8881-4ca238b73ffc"},"onsetDateTime":"2022-05-24T00:00:00+00:00"},"request":{"method":"POST","url":"Condition"}},{"fullUrl":"Condition/5130a39a-342a-406d-922c-c47e72f46316","resource":{"resourceType":"Condition","id":"5130a39a-342a-406d-922c-c47e72f46316","code":{"coding":[{"system":"http://snomed.info/sct","code":"271807003"}]},"subject":{"reference":"Patient/9c77d862-5355-40b0-8881-4ca238b73ffc"},"onsetDateTime":"2022-07-27T00:00:00+00:00"},"request":{"method":"POST","url":"Condition"}},{"fullUrl":"Condition/398726e6-1792-4715-a757-c9b979ad6a59","resource":{"resourceType":"Condition","id":"398726e6-1792-4715-a757-c9b979ad6a59","code":{"coding":[{"system":"http://snomed.info/sct","code":"30746006"}]},"subject":{"reference":"Patient/9c77d862-5355-40b0-8881-4ca238b73ffc"},"onsetDateTime":"2022-01-15T00:00:00+00:00"},"request":{"method":"POST","url":"Condition"}},{"fullUrl":"Observation/8d0920ab-430e-4560-a18a-805459b2f711","resource":{"resourceType":"Observation","id":"8d0920ab-430e-4560-a18a-805459b2f711","status":"final","code":{"coding":[{"system":"http://www.ama-assn.org/go/cpt","code":"85048"}]},"subject":{"reference":"Patient/9c77d862-5355-40b0-8881-4ca238b73ffc"},"effectiveDateTime":"2022-03-02T00:00:00+00:00","valueQuantity":{"value":4.5}},"request":{"method":"POST","url":"Observation"}},{"fullUrl":"Observation/b15d12e3-8973-4c05-8d26-79d4d7ace68e","resource":{"resourceType":"Observation","id":"b15d12e3-8973-4c05-8d26-79d4d7ace68e","status":"final","code":{"coding":[{"system":"http://loinc.org","code":"804-5"}]},"subject":{"reference":"Patient/9c77d862-5355-40b0-8881-4ca238b73ffc"},"effectiveDateTime":"2022-08-19T00:00:00+00:00","valueQuantity":{"value":9.2}},"request":{"method":"POST","url":"Observation"}},{"fullUrl":"Observation/6f20fcaf-67f1-4f37-9364-451bd807323e","resource":{"resourceType":"Observation","id":"6f20fcaf-67f1-4f37-9364-451bd807323e","status":"final","code":{"coding":[{"system":"http://loinc.org","code":"49498-9"}]},"subject":{"reference":"Patient/9c77d862-5355-40b0-8881-4ca238b73ffc"},"effectiveDateTime":"2022-04-14T00:00:00+00:00","valueCodeableConcept":{"coding":[{"system":"snomed","code":"123456","display":"fake snomed"}]}},"request":{"method":"POST","url":"Observation"}},{"fullUrl":"Observation/b8a30fe0-3db7-4295-bd85-8d1ad6b6efc2","resource":{"resourceType":"Observation","id":"b8a30fe0-3db7-4295-bd85-8d1ad6b6efc2","status":"final","code":{"coding":[{"system":"http://loinc.org","code":"49498-9"}]},"subject":{"reference":"Patient/9c77d862-5355-40b0-8881-4ca238b73ffc"},"effectiveDateTime":"2022-09-27T00:00:00+00:00","valueCodeableConcept":{"coding":[{"system":"snomed","code":"123456","display":"fake snomed"}]}},"request":{"method":"POST","url":"Observation"}},{"fullUrl":"Observation/d0fbbfbf-5c19-4b9f-93ec-8c6ab02beee0","resource":{"resourceType":"Observation","id":"d0fbbfbf-5c19-4b9f-93ec-8c6ab02beee0","status":"final","code":{"coding":[{"system":"http://www.ama-assn.org/go/cpt","code":"85048"}]},"subject":{"reference":"Patient/9c77d862-5355-40b0-8881-4ca238b73ffc"},"effectiveDateTime":"2022-01-18T00:00:00+00:00","valueCodeableConcept":{"coding":[{"system":"snomed","code":"123456","display":"fake snomed"}]}},"request":{"method":"POST","url":"Observation"}},{"fullUrl":"Observation/0e659804-da96-4471-a0f8-65742a53ff83","resource":{"resourceType":"Observation","id":"0e659804-da96-4471-a0f8-65742a53ff83","status":"final","code":{"coding":[{"system":"http://loinc.org","code":"49498-9"}]},"subject":{"reference":"Patient/9c77d862-5355-40b0-8881-4ca238b73ffc"},"effectiveDateTime":"2022-03-18T00:00:00+00:00"},"request":{"method":"POST","url":"Observation"}},{"fullUrl":"Observation/b428dbe3-2ccc-48b4-80bd-af9a7af5526c","resource":{"resourceType":"Observation","id":"b428dbe3-2ccc-48b4-80bd-af9a7af5526c","status":"final","code":{"coding":[{"system":"http://loinc.org","code":"49498-9"}]},"subject":{"reference":"Patient/9c77d862-5355-40b0-8881-4ca238b73ffc"},"effectiveDateTime":"2022-01-12T00:00:00+00:00"},"request":{"method":"POST","url":"Observation"}},{"fullUrl":"Observation/3967c3e9-5cec-4f8a-89ca-2c1673bdccbe","resource":{"resourceType":"Observation","id":"3967c3e9-5cec-4f8a-89ca-2c1673bdccbe","status":"final","code":{"coding":[{"system":"http://loinc.org","code":"49498-9"}]},"subject":{"reference":"Patient/9c77d862-5355-40b0-8881-4ca238b73ffc"},"effectiveDateTime":"2022-04-20T00:00:00+00:00"},"request":{"method":"POST","url":"Observation"}},{"fullUrl":"Procedure/a34ddd2c-a208-4dd6-ac8e-68edee145063","resource":{"resourceType":"Procedure","id":"a34ddd2c-a208-4dd6-ac8e-68edee145063","status":"completed","code":{"coding":[{"system":"http://snomed.info/sct","code":"647000"}]},"subject":{"reference":"Patient/9c77d862-5355-40b0-8881-4ca238b73ffc"},"performedDateTime":"2022-01-29T00:00:00+00:00"},"request":{"method":"POST","url":"Procedure"}},{"fullUrl":"Procedure/d4c5fbc3-13f7-41fc-8580-3f332526e787","resource":{"resourceType":"Procedure","id":"d4c5fbc3-13f7-41fc-8580-3f332526e787","status":"completed","code":{"coding":[{"system":"http://snomed.info/sct","code":"104001"}]},"subject":{"reference":"Patient/9c77d862-5355-40b0-8881-4ca238b73ffc"},"performedDateTime":"2022-11-21T00:00:00+00:00"},"request":{"method":"POST","url":"Procedure"}},{"fullUrl":"Procedure/0bc24472-eb61-4b5b-9bc6-840c7d06522a","resource":{"resourceType":"Procedure","id":"0bc24472-eb61-4b5b-9bc6-840c7d06522a","status":"completed","code":{"coding":[{"system":"http://snomed.info/sct","code":"146005"}]},"subject":{"reference":"Patient/9c77d862-5355-40b0-8881-4ca238b73ffc"},"performedDateTime":"2022-08-04T00:00:00+00:00"},"request":{"method":"POST","url":"Procedure"}},{"fullUrl":"MedicationStatement/a4dba570-7907-409c-9fb6-4583f51cd732","resource":{"resourceType":"MedicationStatement","id":"a4dba570-7907-409c-9fb6-4583f51cd732","status":"completed","medicationCodeableConcept":{"coding":[{"system":"http://www.nlm.nih.gov/research/umls/rxnorm","code":"3640"}]},"subject":{"reference":"Patient/9c77d862-5355-40b0-8881-4ca238b73ffc"},"effectiveDateTime":"2022-01-04T00:00:00+00:00","dosage":[{"doseAndRate":[{"doseQuantity":{"value":1,"unit":"TAB","system":"http://terminology.hl7.org/CodeSystem/v3-orderableDrugForm","code":"TAB"}}]}]},"request":{"method":"POST","url":"MedicationStatement"}},{"fullUrl":"MedicationStatement/0fab2c40-745a-41dc-b326-23f101fd8e74","resource":{"resourceType":"MedicationStatement","id":"0fab2c40-745a-41dc-b326-23f101fd8e74","status":"completed","medicationCodeableConcept":{"coding":[{"system":"http://www.nlm.nih.gov/research/umls/rxnorm","code":"10395"}]},"subject":{"reference":"Patient/9c77d862-5355-40b0-8881-4ca238b73ffc"},"effectiveDateTime":"2022-08-19T00:00:00+00:00","dosage":[{"doseAndRate":[{"doseQuantity":{"value":2,"unit":"TAB","system":"http://terminology.hl7.org/CodeSystem/v3-orderableDrugForm","code":"TAB"}}]}]},"request":{"method":"POST","url":"MedicationStatement"}},{"fullUrl":"MedicationStatement/71446742-9cfe-43c6-9252-ee0cbbc0c031","resource":{"resourceType":"MedicationStatement","id":"71446742-9cfe-43c6-9252-ee0cbbc0c031","status":"completed","medicationCodeableConcept":{"coding":[{"system":"http://www.nlm.nih.gov/research/umls/rxnorm","code":"7984"}]},"subject":{"reference":"Patient/9c77d862-5355-40b0-8881-4ca238b73ffc"},"effectiveDateTime":"2022-05-21T00:00:00+00:00","dosage":[{"doseAndRate":[{"doseQuantity":{"value":2,"unit":"TAB","system":"http://terminology.hl7.org/CodeSystem/v3-orderableDrugForm","code":"TAB"}}]}]},"request":{"method":"POST","url":"MedicationStatement"}},{"fullUrl":"MedicationStatement/8ae153c7-f621-4f7b-b3f1-87c8129dcd46","resource":{"resourceType":"MedicationStatement","id":"8ae153c7-f621-4f7b-b3f1-87c8129dcd46","status":"completed","medicationCodeableConcept":{"coding":[{"system":"http://www.nlm.nih.gov/research/umls/rxnorm","code":"2193"}]},"subject":{"reference":"Patient/9c77d862-5355-40b0-8881-4ca238b73ffc"},"effectiveDateTime":"2022-05-17T00:00:00+00:00","dosage":[{"doseAndRate":[{"doseQuantity":{"value":2,"unit":"TAB","system":"http://terminology.hl7.org/CodeSystem/v3-orderableDrugForm","code":"TAB"}}]}]},"request":{"method":"POST","url":"MedicationStatement"}},{"fullUrl":"MedicationStatement/6f64b5c1-7b79-44b0-a286-2df65403e033","resource":{"resourceType":"MedicationStatement","id":"6f64b5c1-7b79-44b0-a286-2df65403e033","status":"completed","medicationCodeableConcept":{"coding":[{"system":"http://www.nlm.nih.gov/research/umls/rxnorm","code":"2193"}]},"subject":{"reference":"Patient/9c77d862-5355-40b0-8881-4ca238b73ffc"},"effectiveDateTime":"2022-05-12T00:00:00+00:00","dosage":[{"doseAndRate":[{"doseQuantity":{"value":2,"unit":"TAB","system":"http://terminology.hl7.org/CodeSystem/v3-orderableDrugForm","code":"TAB"}}]}]},"request":{"method":"POST","url":"MedicationStatement"}},{"fullUrl":"MedicationStatement/fe1b1826-71fb-41f6-b9d4-d9d8fab8c48d","resource":{"resourceType":"MedicationStatement","id":"fe1b1826-71fb-41f6-b9d4-d9d8fab8c48d","status":"completed","medicationCodeableConcept":{"coding":[{"system":"http://www.nlm.nih.gov/research/umls/rxnorm","code":"3640"}]},"subject":{"reference":"Patient/9c77d862-5355-40b0-8881-4ca238b73ffc"},"effectiveDateTime":"2022-08-07T00:00:00+00:00","dosage":[{"doseAndRate":[{"doseQuantity":{"value":1,"unit":"TAB","system":"http://terminology.hl7.org/CodeSystem/v3-orderableDrugForm","code":"TAB"}}]}]},"request":{"method":"POST","url":"MedicationStatement"}},{"fullUrl":"MedicationStatement/f9691b3d-a995-455a-8327-eb0b5b5b5183","resource":{"resourceType":"MedicationStatement","id":"f9691b3d-a995-455a-8327-eb0b5b5b5183","status":"completed","medicationCodeableConcept":{"coding":[{"system":"http://www.nlm.nih.gov/research/umls/rxnorm","code":"10395"}]},"subject":{"reference":"Patient/9c77d862-5355-40b0-8881-4ca238b73ffc"},"effectiveDateTime":"2022-05-05T00:00:00+00:00","dosage":[{"doseAndRate":[{"doseQuantity":{"value":2,"unit":"TAB","system":"http://terminology.hl7.org/CodeSystem/v3-orderableDrugForm","code":"TAB"}}]}]},"request":{"method":"POST","url":"MedicationStatement"}},{"fullUrl":"MedicationStatement/6b070d6c-6e60-4b6e-b7b9-058c433926e0","resource":{"resourceType":"MedicationStatement","id":"6b070d6c-6e60-4b6e-b7b9-058c433926e0","status":"completed","medicationCodeableConcept":{"coding":[{"system":"http://www.nlm.nih.gov/research/umls/rxnorm","code":"2193"}]},"subject":{"reference":"Patient/9c77d862-5355-40b0-8881-4ca238b73ffc"},"effectiveDateTime":"2022-08-13T00:00:00+00:00","dosage":[{"doseAndRate":[{"doseQuantity":{"value":7,"unit":"TAB","system":"http://terminology.hl7.org/CodeSystem/v3-orderableDrugForm","code":"TAB"}}]}]},"request":{"method":"POST","url":"MedicationStatement"}},{"fullUrl":"MedicationStatement/cfceecd7-c06e-478a-90f4-be2df67e5a20","resource":{"resourceType":"MedicationStatement","id":"cfceecd7-c06e-478a-90f4-be2df67e5a20","status":"completed","medicationCodeableConcept":{"coding":[{"system":"http://www.nlm.nih.gov/research/umls/rxnorm","code":"18631"}]},"subject":{"reference":"Patient/9c77d862-5355-40b0-8881-4ca238b73ffc"},"effectiveDateTime":"2022-03-20T00:00:00+00:00","dosage":[{"doseAndRate":[{"doseQuantity":{"value":3.6,"unit":"TAB","system":"http://terminology.hl7.org/CodeSystem/v3-orderableDrugForm","code":"TAB"}}]}]},"request":{"method":"POST","url":"MedicationStatement"}},{"fullUrl":"MedicationStatement/9a0dbc1f-3c78-4fc6-b1a6-a67b09852466","resource":{"resourceType":"MedicationStatement","id":"9a0dbc1f-3c78-4fc6-b1a6-a67b09852466","status":"completed","medicationCodeableConcept":{"coding":[{"system":"http://www.nlm.nih.gov/research/umls/rxnorm","code":"3640"}]},"subject":{"reference":"Patient/9c77d862-5355-40b0-8881-4ca238b73ffc"},"effectiveDateTime":"2022-06-30T00:00:00+00:00","dosage":[{"doseAndRate":[{"doseQuantity":{"value":6.9,"unit":"TAB","system":"http://terminology.hl7.org/CodeSystem/v3-orderableDrugForm","code":"TAB"}}]}]},"request":{"method":"POST","url":"MedicationStatement"}},{"fullUrl":"MedicationStatement/208d3f5c-9736-48d0-88ad-03a880fba16f","resource":{"resourceType":"MedicationStatement","id":"208d3f5c-9736-48d0-88ad-03a880fba16f","status":"completed","medicationCodeableConcept":{"coding":[{"system":"http://www.nlm.nih.gov/research/umls/rxnorm","code":"3640"}]},"subject":{"reference":"Patient/9c77d862-5355-40b0-8881-4ca238b73ffc"},"effectiveDateTime":"2022-11-12T00:00:00+00:00","dosage":[{"doseAndRate":[{"doseQuantity":{"value":6.4,"unit":"TAB","system":"http://terminology.hl7.org/CodeSystem/v3-orderableDrugForm","code":"TAB"}}]}]},"request":{"method":"POST","url":"MedicationStatement"}},{"fullUrl":"MedicationStatement/9c9913ac-4971-4205-84db-f73053f91696","resource":{"resourceType":"MedicationStatement","id":"9c9913ac-4971-4205-84db-f73053f91696","status":"completed","medicationCodeableConcept":{"coding":[{"system":"http://www.nlm.nih.gov/research/umls/rxnorm","code":"2193"}]},"subject":{"reference":"Patient/9c77d862-5355-40b0-8881-4ca238b73ffc"},"effectiveDateTime":"2022-02-21T00:00:00+00:00","dosage":[{"doseAndRate":[{"doseQuantity":{"value":3.2,"unit":"TAB","system":"http://terminology.hl7.org/CodeSystem/v3-orderableDrugForm","code":"TAB"}}]}]},"request":{"method":"POST","url":"MedicationStatement"}},{"fullUrl":"MedicationStatement/245aa40d-1b2a-48a9-9163-18366e9c95dc","resource":{"resourceType":"MedicationStatement","id":"245aa40d-1b2a-48a9-9163-18366e9c95dc","status":"completed","medicationCodeableConcept":{"coding":[{"system":"http://www.nlm.nih.gov/research/umls/rxnorm","code":"2193"}]},"subject":{"reference":"Patient/9c77d862-5355-40b0-8881-4ca238b73ffc"},"effectiveDateTime":"2022-05-23T00:00:00+00:00","dosage":[{"doseAndRate":[{"doseQuantity":{"value":4.6,"unit":"TAB","system":"http://terminology.hl7.org/CodeSystem/v3-orderableDrugForm","code":"TAB"}}]}]},"request":{"method":"POST","url":"MedicationStatement"}},{"fullUrl":"MedicationStatement/aca52c39-7498-49af-a887-0a7b92606515","resource":{"resourceType":"MedicationStatement","id":"aca52c39-7498-49af-a887-0a7b92606515","status":"completed","medicationCodeableConcept":{"coding":[{"system":"http://www.nlm.nih.gov/research/umls/rxnorm","code":"18631"}]},"subject":{"reference":"Patient/9c77d862-5355-40b0-8881-4ca238b73ffc"},"effectiveDateTime":"2022-08-01T00:00:00+00:00","dosage":[{"doseAndRate":[{"doseQuantity":{"value":4.5,"unit":"TAB","system":"http://terminology.hl7.org/CodeSystem/v3-orderableDrugForm","code":"TAB"}}]}]},"request":{"method":"POST","url":"MedicationStatement"}},{"fullUrl":"MedicationStatement/17e5eeb2-34ca-4ced-a46a-564033aa4cb8","resource":{"resourceType":"MedicationStatement","id":"17e5eeb2-34ca-4ced-a46a-564033aa4cb8","status":"completed","medicationCodeableConcept":{"coding":[{"system":"http://www.nlm.nih.gov/research/umls/rxnorm","code":"18631"}]},"subject":{"reference":"Patient/9c77d862-5355-40b0-8881-4ca238b73ffc"},"effectiveDateTime":"2022-02-28T00:00:00+00:00","dosage":[{"doseAndRate":[{"doseQuantity":{"value":5.1,"unit":"TAB","system":"http://terminology.hl7.org/CodeSystem/v3-orderableDrugForm","code":"TAB"}}]}]},"request":{"method":"POST","url":"MedicationStatement"}},{"fullUrl":"Encounter/44c26b70-c923-4b61-b6fe-6e93277587f3","resource":{"resourceType":"Encounter","id":"44c26b70-c923-4b61-b6fe-6e93277587f3","status":"finished","class":{"system":"http://terminology.hl7.org/CodeSystem/v3-ActCode","code":"IMP","display":"inpatient encounter"},"type":[{"coding":[{"system":"http://terminology.hl7.org/CodeSystem/encounter-type","code":"ADMS"}]}],"subject":{"reference":"Patient/9c77d862-5355-40b0-8881-4ca238b73ffc"},"period":{"start":"2022-10-23T00:00:00+00:00","end":"2022-10-28T00:00:00+00:00"}},"request":{"method":"POST","url":"Encounter"}},{"fullUrl":"Encounter/b5d938a6-98e0-4f9b-b35c-6b5031c18bff","resource":{"resourceType":"Encounter","id":"b5d938a6-98e0-4f9b-b35c-6b5031c18bff","status":"finished","class":{"system":"http://terminology.hl7.org/CodeSystem/v3-ActCode","code":"IMP","display":"inpatient encounter"},"type":[{"coding":[{"system":"http://terminology.hl7.org/CodeSystem/encounter-type","code":"BD/BM-clin"}]}],"subject":{"reference":"Patient/9c77d862-5355-40b0-8881-4ca238b73ffc"},"period":{"start":"2022-05-04T00:00:00+00:00","end":"2022-05-05T00:00:00+00:00"}},"request":{"method":"POST","url":"Encounter"}},{"fullUrl":"Encounter/36b197f6-56d8-47e1-bedd-7d332ac41350","resource":{"resourceType":"Encounter","id":"36b197f6-56d8-47e1-bedd-7d332ac41350","status":"finished","class":{"system":"http://terminology.hl7.org/CodeSystem/v3-ActCode","code":"AMB","display":"ambulatory"},"type":[{"coding":[{"system":"http://terminology.hl7.org/CodeSystem/encounter-type","code":"BD/BM-clin"}]}],"subject":{"reference":"Patient/9c77d862-5355-40b0-8881-4ca238b73ffc"},"period":{"start":"2022-04-05T00:00:00+00:00","end":"2022-04-08T00:00:00+00:00"}},"request":{"method":"POST","url":"Encounter"}},{"fullUrl":"Encounter/d65b541d-b7c5-4fdf-a7e4-1c3cbed63311","resource":{"resourceType":"Encounter","id":"d65b541d-b7c5-4fdf-a7e4-1c3cbed63311","status":"finished","class":{"system":"http://terminology.hl7.org/CodeSystem/v3-ActCode","code":"VR","display":"virtual"},"type":[{"coding":[{"system":"http://terminology.hl7.org/CodeSystem/encounter-type","code":"BD/BM-clin"}]}],"subject":{"reference":"Patient/9c77d862-5355-40b0-8881-4ca238b73ffc"},"period":{"start":"2022-01-04T00:00:00+00:00","end":"2022-01-08T00:00:00+00:00"}},"request":{"method":"POST","url":"Encounter"}},{"fullUrl":"Encounter/b41feda1-fce0-436a-902b-984fa593694d","resource":{"resourceType":"Encounter","id":"b41feda1-fce0-436a-902b-984fa593694d","status":"finished","class":{"system":"http://terminology.hl7.org/CodeSystem/v3-ActCode","code":"FLD","display":"field"},"type":[{"coding":[{"system":"http://terminology.hl7.org/CodeSystem/encounter-type","code":"OKI"}]}],"subject":{"reference":"Patient/9c77d862-5355-40b0-8881-4ca238b73ffc"},"period":{"start":"2022-05-23T00:00:00+00:00","end":"2022-05-27T00:00:00+00:00"}},"request":{"method":"POST","url":"Encounter"}},{"fullUrl":"Patient/7bc548d8-6960-4281-8edc-6d98355e45be","resource":{"resourceType":"Patient","id":"7bc548d8-6960-4281-8edc-6d98355e45be","identifier":[{"type":{"coding":[{"system":"http://terminology.hl7.org/CodeSystem/v2-0203","code":"MR"}]},"system":"urn:fhirgen:mrn","value":"873-69-0752"}],"name":[{"use":"official","family":"Reese","given":["Erin"]},{"use":"maiden","family":"Shah"}],"telecom":[{"system":"phone","value":"0596454641","use":"home"},{"system":"email","value":"ryanwhite@hotmail.com","use":"home"}],"gender":"female","birthDate":"1946-07-28","address":[{"use":"home","line":["090 Kimberly Views Apt. 541"],"city":"South Mark","state":"RI","postalCode":"68329"},{"use":"old","line":["640 Weber Circle"],"city":"East Yolanda","state":"AK","postalCode":"74140"}]},"request":{"method":"POST","url":"Patient"}},{"fullUrl":"Observation/954e0379-e4b0-4c10-bb11-7f2a3eee2c89","resource":{"resourceType":"Observation","id":"954e0379-e4b0-4c10-bb11-7f2a3eee2c89","status":"final","code":{"coding":[{"system":"http://loinc.org","code":"34382-2"}]},"subject":{"reference":"Patient/7bc548d8-6960-4281-8edc-6d98355e45be"},"effectiveDateTime":"2022-05-10T00:00:00+00:00","valueRatio":{"numerator":{"value":1},"denominator":{"value":64}}},"request":{"method":"POST","url":"Observation"}},{"fullUrl":"Observation/4565e7e7-dff2-48f9-a725-cb8bafa8dbb5","resource":{"resourceType":"Observation","id":"4565e7e7-dff2-48f9-a725-cb8bafa8dbb5","status":"final","code":{"coding":[{"system":"http://loinc.org","code":"87925-4"}]},"subject":{"reference":"Patient/7bc548d8-6960-4281-8edc-6d98355e45be"},"effectiveDateTime":"2022-07-07T00:00:00+00:00","valueRatio":{"numerator":{"value":1},"denominator":{"value":4}}},"request":{"method":"POST","url":"Observation"}},{"fullUrl":"Condition/dd7302b4-2673-4886-90db-f3a4d858ab79","resource":{"resourceType":"Condition","id":"dd7302b4-2673-4886-90db-f3a4d858ab79","code":{"coding":[{"system":"http://snomed.info/sct","code":"297123002"}]},"subject":{"reference":"Patient/7bc548d8-6960-4281-8edc-6d98355e45be"},"onsetDateTime":"2022-12-27T00:00:00+00:00"},"request":{"method":"POST","url":"Condition"}},{"fullUrl":"Condition/af13bfe1-5423-4aa2-b382-2c392f7c8220","resource":{"resourceType":"Condition","id":"af13bfe1-5423-4aa2-b382-2c392f7c8220","code":{"coding":[{"system":"http://snomed.info/sct","code":"18165001"}]},"subject":{"reference":"Patient/7bc548d8-6960-4281-8edc-6d98355e45be"},"onsetDateTime":"2022-05-15T00:00:00+00:00"},"request":{"method":"POST","url":"Condition"}},{"fullUrl":"Condition/cce248bd-2ade-4173-81b9-7ad21d41d20c","resource":{"resourceType":"Condition","id":"cce248bd-2ade-4173-81b9-7ad21d41d20c","code":{"coding":[{"system":"http://snomed.info/sct","code":"18165001"}]},"subject":{"reference":"Patient/7bc548d8-6960-4281-8edc-6d98355e45be"},"onsetDateTime":"2022-01-29T00:00:00+00:00"},"request":{"method":"POST","url":"Condition"}},{"fullUrl":"Condition/4c3e67d6-ad98-45b9-9a7b-3e695fa63716","resource":{"resourceType":"Condition","id":"4c3e67d6-ad98-45b9-9a7b-3e695fa63716","code":{"coding":[{"system":"http://snomed.info/sct","code":"30746006"}]},"subject":{"reference":"Patient/7bc548d8-6960-4281-8edc-6d98355e45be"},"onsetDateTime":"2022-05-03T00:00:00+00:00"},"request":{"method":"POST","url":"Condition"}},{"fullUrl":"Condition/478e422b-9a28-43dc-8fcf-c174364394e9","resource":{"resourceType":"Condition","id":"478e422b-9a28-43dc-8fcf-c174364394e9","code":{"coding":[{"system":"http://snomed.info/sct","code":"30746006"}]},"subject":{"reference":"Patient/7bc548d8-6960-4281-8edc-6d98355e45be"},"onsetDateTime":"2022-03-15T00:00:00+00:00"},"request":{"method":"POST","url":"Condition"}},{"fullUrl":"Condition/8a4ee06c-5f8b-4045-80ba-8066f1bb836f","resource":{"resourceType":"Condition","id":"8a4ee06c-5f8b-4045-80ba-8066f1bb836f","code":{"coding":[{"system":"http://snomed.info/sct","code":"31070006"}]},"subject":{"reference":"Patient/7bc548d8-6960-4281-8edc-6d98355e45be"},"onsetDateTime":"2022-04-04T00:00:00+00:00"},"request":{"method":"POST","url":"Condition"}},{"fullUrl":"Condition/058f5bac-97df-459e-8622-86911802838f","resource":{"resourceType":"Condition","id":"058f5bac-97df-459e-8622-86911802838f","code":{"coding":[{"system":"http://snomed.info/sct","code":"18165001"}]},"subject":{"reference":"Patient/7bc548d8-6960-4281-8edc-6d98355e45be"},"onsetDateTime":"2022-07-18T00:00:00+00:00"},"request":{"method":"POST","url":"Condition"}},{"fullUrl":"Observation/ba65805d-7562-4699-8996-df7e9c3f5596","resource":{"resourceType":"Observation","id":"ba65805d-7562-4699-8996-df7e9c3f5596","status":"final","code":{"coding":[{"system":"http://www.ama-assn.org/go/cpt","code":"85048"}]},"subject":{"reference":"Patient/7bc548d8-6960-4281-8edc-6d98355e45be"},"effectiveDateTime":"2022-02-03T00:00:00+00:00","valueQuantity":{"value":9.3}},"request":{"method":"POST","url":"Observation"}},{"fullUrl":"Observation/847880c3-f75f-484f-bba7-e9ade0890f7f","resource":{"resourceType":"Observation","id":"847880c3-f75f-484f-bba7-e9ade0890f7f","status":"final","code":{"coding":[{"system":"http://loinc.org","code":"6690-2"}]},"subject":{"reference":"Patient/7bc548d8-6960-4281-8edc-6d98355e45be"},"effectiveDateTime":"2022-03-30T00:00:00+00:00","valueQuantity":{"value":7.9}},"request":{"method":"POST","url":"Observation"}},{"fullUrl":"Observation/ccc5b7fa-232f-4b1e-9efb-98360c04cf0c","resource":{"resourceType":"Observation","id":"ccc5b7fa-232f-4b1e-9efb-98360c04cf0c","status":"final","code":{"coding":[{"system":"http://loinc.org","code":"6690-2"}]},"subject":{"reference":"Patient/7bc548d8-6960-4281-8edc-6d98355e45be"},"effectiveDateTime":"2022-05-12T00:00:00+00:00","valueCodeableConcept":{"coding":[{"system":"snomed","code":"123456","display":"fake snomed"}]}},"request":{"method":"POST","url":"Observation"}},{"fullUrl":"Observation/213ac2a8-cb5f-44fa-99b0-f70bc1767df1","resource":{"resourceType":"Observation","id":"213ac2a8-cb5f-44fa-99b0-f70bc1767df1","status":"final","code":{"coding":[{"system":"http://www.ama-assn.org/go/cpt","code":"85048"}]},"subject":{"reference":"Patient/7bc548d8-6960-4281-8edc-6d98355e45be"},"effectiveDateTime":"2022-04-03T00:00:00+00:00","valueCodeableConcept":{"coding":[{"system":"snomed","code":"123456","display":"fake snomed"}]}},"request":{"method":"POST","url":"Observation"}},{"fullUrl":"Observation/08a6c361-0cea-402c-9adb-5296cca42235","resource":{"resourceType":"Observation","id":"08a6c361-0cea-402c-9adb-5296cca42235","status":"final","code":{"coding":[{"system":"http://loinc.org","code":"49498-9"}]},"subject":{"reference":"Patient/7bc548d8-6960-4281-8edc-6d98355e45be"},"effectiveDateTime":"2022-04-14T00:00:00+00:00"},"request":{"method":"POST","url":"Observation"}},{"fullUrl":"Observation/d9d10e1c-b406-4e54-aaf3-8e12563b8dd4","resource":{"resourceType":"Observation","id":"d9d10e1c-b406-4e54-aaf3-8e12563b8dd4","status":"final","code":{"coding":[{"system":"http://loinc.org","code":"49498-9"}]},"subject":{"reference":"Patient/7bc548d8-6960-4281-8edc-6d98355e45be"},"effectiveDateTime":"2022-02-05T00:00:00+00:00"},"request":{"method":"POST","url":"Observation"}},{"fullUrl":"Procedure/cf5389c2-1f3a-40fb-be47-923d17bae41e","resource":{"resourceType":"Procedure","id":"cf5389c2-1f3a-40fb-be47-923d17bae41e","status":"completed","code":{"coding":[{"system":"http://snomed.info/sct","code":"104001"}]},"subject":{"reference":"Patient/7bc548d8-6960-4281-8edc-6d98355e45be"},"performedDateTime":"2022-03-02T00:00:00+00:00"},"request":{"method":"POST","url":"Procedure"}},{"fullUrl":"Procedure/3b9340b9-21a3-480c-b36b-d85d690e9433","resource":{"resourceType":"Procedure","id":"3b9340b9-21a3-480c-b36b-d85d690e9433","status":"completed","code":{"coding":[{"system":"http://snomed.info/sct","code":"189009"}]},"subject":{"reference":"Patient/7bc548d8-6960-4281-8edc-6d98355e45be"},"performedDateTime":"2022-05-29T00:00:00+00:00"},"request":{"method":"POST","url":"Procedure"}},{"fullUrl":"Procedure/e3b535b7-b6e2-4b31-8ec4-1618663b5c36","resource":{"resourceType":"Procedure","id":"e3b535b7-b6e2-4b31-8ec4-1618663b5c36","status":"completed","code":{"coding":[{"system":"http://snomed.info/sct","code":"104001"}]},"subject":{"reference":"Patient/7bc548d8-6960-4281-8edc-6d98355e45be"},"performedDateTime":"2022-08-12T00:00:00+00:00"},"request":{"method":"POST","url":"Procedure"}},{"fullUrl":"MedicationStatement/df28f94a-df18-4a92-a34e-4259654849e4","resource":{"resourceType":"MedicationStatement","id":"df28f94a-df18-4a92-a34e-4259654849e4","status":"completed","medicationCodeableConcept":{"coding":[{"system":"http://www.nlm.nih.gov/research/umls/rxnorm","code":"2193"}]},"subject":{"reference":"Patient/7bc548d8-6960-4281-8edc-6d98355e45be"},"effectiveDateTime":"2022-08-05T00:00:00+00:00","dosage":[{"doseAndRate":[{"doseQuantity":{"value":1,"unit":"TAB","system":"http://terminology.hl7.org/CodeSystem/v3-orderableDrugForm","code":"TAB"}}]}]},"request":{"method":"POST","url":"MedicationStatement"}},{"fullUrl":"MedicationStatement/0993bb53-2aa8-477c-8bea-bc26d536510c","resource":{"resourceType":"MedicationStatement","id":"0993bb53-2aa8-477c-8bea-bc26d536510c","status":"completed","medicationCodeableConcept":{"coding":[{"system":"http://www.nlm.nih.gov/research/umls/rxnorm","code":"2193"}]},"subject":{"reference":"Patient/7bc548d8-6960-4281-8edc-6d98355e45be"},"effectiveDateTime":"2022-09-24T00:00:00+00:00","dosage":[{"doseAndRate":[{"doseQuantity":{"value":2,"unit":"TAB","system":"http://terminology.hl7.org/CodeSystem/v3-orderableDrugForm","code":"TAB"}}]}]},"request":{"method":"POST","url":"MedicationStatement"}},{"fullUrl":"MedicationStatement/36f74b5b-c3d6-4792-a48e-2ecd946acbdd","resource":{"resourceType":"MedicationStatement","id":"36f74b5b-c3d6-4792-a48e-2ecd946acbdd","status":"completed","medicationCodeableConcept":{"coding":[{"system":"http://www.nlm.nih.gov/research/umls/rxnorm","code":"2193"}]},"subject":{"reference":"Patient/7bc548d8-6960-4281-8edc-6d98355e45be"},"effectiveDateTime":"2022-09-08T00:00:00+00:00","dosage":[{"doseAndRate":[{"doseQuantity":{"value":1,"unit":"TAB","system":"http://terminology.hl7.org/CodeSystem/v3-orderableDrugForm","code":"TAB"}}]}]},"request":{"method":"POST","url":"MedicationStatement"}},{"fullUrl":"MedicationStatement/6faef691-ff04-45d7-ac5b-e09773c883d0","resource":{"resourceType":"MedicationStatement","id":"6faef691-ff04-45d7-ac5b-e09773c883d0","status":"completed","medicationCodeableConcept":{"coding":[{"system":"http://www.nlm.nih.gov/research/umls/rxnorm","code":"8698"}]},"subject":{"reference":"Patient/7bc548d8-6960-4281-8edc-6d98355e45be"},"effectiveDateTime":"2022-04-14T00:00:00+00:00","dosage":[{"doseAndRate":[{"doseQuantity":{"value":1,"unit":"TAB","system":"http://terminology.hl7.org/CodeSystem/v3-orderableDrugForm","code":"TAB"}}]}]},"request":{"method":"POST","url":"MedicationStatement"}},{"fullUrl":"MedicationStatement/6d74ab25-a6ca-4109-93e2-4a09899b41a7","resource":{"resourceType":"MedicationStatement","id":"6d74ab25-a6ca-4109-93e2-4a09899b41a7","status":"completed","medicationCodeableConcept":{"coding":[{"system":"http://www.nlm.nih.gov/research/umls/rxnorm","code":"2193"}]},"subject":{"reference":"Patient/7bc548d8-6960-4281-8edc-6d98355e45be"},"effectiveDateTime":"2022-04-08T00:00:00+00:00","dosage":[{"doseAndRate":[{"doseQuantity":{"value":1,"unit":"TAB","system":"http://terminology.hl7.org/CodeSystem/v3-orderableDrugForm","code":"TAB"}}]}]},"request":{"method":"POST","url":"MedicationStatement"}},{"fullUrl":"MedicationStatement/0f49c24c-dace-4036-9994-d4f807e4bff7","resource":{"resourceType":"MedicationStatement","id":"0f49c24c-dace-4036-9994-d4f807e4bff7","status":"completed","medicationCodeableConcept":{"coding":[{"system":"http://www.nlm.nih.gov/research/umls/rxnorm","code":"8698"}]},"subject":{"reference":"Patient/7bc548d8-6960-4281-8edc-6d98355e45be"},"effectiveDateTime":"2022-10-07T00:00:00+00:00","dosage":[{"doseAndRate":[{"doseQuantity":{"value":2,"unit":"TAB","system":"http://terminology.hl7.org/CodeSystem/v3-orderableDrugForm","code":"TAB"}}]}]},"request":{"method":"POST","url":"MedicationStatement"}},{"fullUrl":"MedicationStatement/0419c6d4-9233-43f6-9e17-63e7fb7a421f","resource":{"resourceType":"MedicationStatement","id":"0419c6d4-9233-43f6-9e17-63e7fb7a421f","status":"completed","medicationCodeableConcept":{"coding":[{"system":"http://www.nlm.nih.gov/research/umls/rxnorm","code":"8698"}]},"subject":{"reference":"Patient/7bc548d8-6960-4281-8edc-6d98355e45be"},"effectiveDateTime":"2022-05-21T00:00:00+00:00","dosage":[{"doseAndRate":[{"doseQuantity":{"value":2,"unit":"TAB","system":"http://terminology.hl7.org/CodeSystem/v3-orderableDrugForm","code":"TAB"}}]}]},"request":{"method":"POST","url":"MedicationStatement"}},{"fullUrl":"MedicationStatement/768990e9-dff1-4ca2-b25d-8c36ebc9491f","resource":{"resourceType":"MedicationStatement","id":"768990e9-dff1-4ca2-b25d-8c36ebc9491f","status":"completed","medicationCodeableConcept":{"coding":[{"system":"http://www.nlm.nih.gov/research/umls/rxnorm","code":"2193"}]},"subject":{"reference":"Patient/7bc548d8-6960-4281-8edc-6d98355e45be"},"effectiveDateTime":"2022-08-30T00:00:00+00:00","dosage":[{"doseAndRate":[{"doseQuantity":{"value":1,"unit":"TAB","system":"http://terminology.hl7.org/CodeSystem/v3-orderableDrugForm","code":"TAB"}}]}]},"request":{"method":"POST","url":"MedicationStatement"}},{"fullUrl":"MedicationStatement/88a18624-66a5-487a-a99b-d9fa3a01bee4","resource":{"resourceType":"MedicationStatement","id":"88a18624-66a5-487a-a99b-d9fa3a01bee4","status":"completed","medicationCodeableConcept":{"coding":[{"system":"http://www.nlm.nih.gov/research/umls/rxnorm","code":"2193"}]},"subject":{"reference":"Patient/7bc548d8-6960-4281-8edc-6d98355e45be"},"effectiveDateTime":"2022-09-07T00:00:00+00:00","dosage":[{"doseAndRate":[{"doseQuantity":{"value":5.1,"unit":"TAB","system":"http://terminology.hl7.org/CodeSystem/v3-orderableDrugForm","code":"TAB"}}]}]},"request":{"method":"POST","url":"MedicationStatement"}},{"fullUrl":"MedicationStatement/c1ce134d-d00a-4671-abc1-955e6088d6d0","resource":{"resourceType":"MedicationStatement","id":"c1ce134d-d00a-4671-abc1-955e6088d6d0","status":"completed","medicationCodeableConcept":{"coding":[{"system":"http://www.nlm.nih.gov/research/umls/rxnorm","code":"7980"}]},"subject":{"reference":"Patient/7bc548d8-6960-4281-8edc-6d98355e45be"},"effectiveDateTime":"2022-01-12T00:00:00+00:00","dosage":[{"doseAndRate":[{"doseQuantity":{"value":4.1,"unit":"TAB","system":"http://terminology.hl7.org/CodeSystem/v3-orderableDrugForm","code":"TAB"}}]}]},"request":{"method":"POST","url":"MedicationStatement"}},{"fullUrl":"MedicationStatement/02d1da9d-c5d4-45e4-a355-a8e82424e664","resource":{"resourceType":"MedicationStatement","id":"02d1da9d-c5d4-45e4-a355-a8e82424e664","status":"completed","medicationCodeableConcept":{"coding":[{"system":"http://www.nlm.nih.gov/research/umls/rxnorm","code":"18631"}]},"subject":{"reference":"Patient/7bc548d8-6960-4281-8edc-6d98355e45be"},"effectiveDateTime":"2022-03-15T00:00:00+00:00","dosage":[{"doseAndRate":[{"doseQuantity":{"value":4.1,"unit":"TAB","system":"http://terminology.hl7.org/CodeSystem/v3-orderableDrugForm","code":"TAB"}}]}]},"request":{"method":"POST","url":"MedicationStatement"}},{"fullUrl":"MedicationStatement/92a907e5-ae89-4918-b71a-3ee32de3ebef","resource":{"resourceType":"MedicationStatement","id":"92a907e5-ae89-4918-b71a-3ee32de3ebef","status":"completed","medicationCodeableConcept":{"coding":[{"system":"http://www.nlm.nih.gov/research/umls/rxnorm","code":"7984"}]},"subject":{"reference":"Patient/7bc548d8-6960-4281-8edc-6d98355e45be"},"effectiveDateTime":"2022-08-31T00:00:00+00:00","dosage":[{"doseAndRate":[{"doseQuantity":{"value":4.1,"unit":"TAB","system":"http://terminology.hl7.org/CodeSystem/v3-orderableDrugForm","code":"TAB"}}]}]},"request":{"method":"POST","url":"MedicationStatement"}},{"fullUrl":"MedicationStatement/17f09eef-9410-4d05-873b-5da96e08f532","resource":{"resourceType":"MedicationStatement","id":"17f09eef-9410-4d05-873b-5da96e08f532","status":"completed","medicationCodeableConcept":{"coding":[{"system":"http://www.nlm.nih.gov/research/umls/rxnorm","code":"7984"}]},"subject":{"reference":"Patient/7bc548d8-6960-4281-8edc-6d98355e45be"},"effectiveDateTime":"2022-10-16T00:00:00+00:00","dosage":[{"doseAndRate":[{"doseQuantity":{"value":3.2,"unit":"TAB","system":"http://terminology.hl7.org/CodeSystem/v3-orderableDrugForm","code":"TAB"}}]}]},"request":{"method":"POST","url":"MedicationStatement"}},{"fullUrl":"MedicationStatement/a0281e40-b3dc-4085-8f5f-31e981812744","resource":{"resourceType":"MedicationStatement","id":"a0281e40-b3dc-4085-8f5f-31e981812744","status":"completed","medicationCodeableConcept":{"coding":[{"system":"http://www.nlm.nih.gov/research/umls/rxnorm","code":"7980"}]},"subject":{"reference":"Patient/7bc548d8-6960-4281-8edc-6d98355e45be"},"effectiveDateTime":"2022-05-19T00:00:00+00:00","dosage":[{"doseAndRate":[{"doseQuantity":{"value":5.7,"unit":"TAB","system":"http://terminology.hl7.org/CodeSystem/v3-orderableDrugForm","code":"TAB"}}]}]},"request":{"method":"POST","url":"MedicationStatement"}},{"fullUrl":"Encounter/e071bbd1-6717-47ad-b09d-466bb42b78d4","resource":{"resourceType":"Encounter","id":"e071bbd1-6717-47ad-b09d-466bb42b78d4","status":"finished","class":{"system":"http://terminology.hl7.org/CodeSystem/v3-ActCode","code":"IMP","display":"inpatient encounter"},"type":[{"coding":[{"system":"http://terminology.hl7.org/CodeSystem/encounter-type","code":"ADMS"}]}],"subject":{"reference":"Patient/7bc548d8-6960-4281-8edc-6d98355e45be"},"period":{"start":"2022-07-12T00:00:00+00:00","end":"2022-07-20T00:00:00+00:00"}},"request":{"method":"POST","url":"Encounter"}},{"fullUrl":"Encounter/d6835da6-d998-41fd-969d-2e0161981653","resource":{"resourceType":"Encounter","id":"d6835da6-d998-41fd-969d-2e0161981653","status":"finished","class":{"system":"http://terminology.hl7.org/CodeSystem/v3-ActCode","code":"IMP","display":"inpatient encounter"},"type":[{"coding":[{"system":"http://terminology.hl7.org/CodeSystem/encounter-type","code":"OKI"}]}],"subject":{"reference":"Patient/7bc548d8-6960-4281-8edc-6d98355e45be"},"period":{"start":"2022-08-04T00:00:00+00:00","end":"2022-08-08T00:00:00+00:00"}},"request":{"method":"POST","url":"Encounter"}},{"fullUrl":"Encounter/a22a2511-e9be-4f99-bb97-500d58a39718","resource":{"resourceType":"Encounter","id":"a22a2511-e9be-4f99-bb97-500d58a39718","status":"finished","class":{"system":"http://terminology.hl7.org/CodeSystem/v3-ActCode","code":"NONAC","display":"inpatient non-acute"},"type":[{"coding":[{"system":"http://terminology.hl7.org/CodeSystem/encounter-type","code":"ADMS"}]}],"subject":{"reference":"Patient/7bc548d8-6960-4281-8edc-6d98355e45be"},"period":{"start":"2022-10-19T00:00:00+00:00","end":"2022-10-24T00:00:00+00:00"}},"request":{"method":"POST","url":"Encounter"}},{"fullUrl":"Encounter/74243850-0a91-4dd6-8eaa-994fcba24f2e","resource":{"resourceType":"Encounter","id":"74243850-0a91-4dd6-8eaa-994fcba24f2e","status":"finished","class":{"system":"http://terminology.hl7.org/CodeSystem/v3-ActCode","code":"OBSENC","display":"observation encounter"},"type":[{"coding":[{"system":"http://terminology.hl7.org/CodeSystem/encounter-type","code":"CCS60"}]}],"subject":{"reference":"Patient/7bc548d8-6960-4281-8edc-6d98355e45be"},"period":{"start":"2022-10-20T00:00:00+00:00","end":"2022-10-21T00:00:00+00:00"}},"request":{"method":"POST","url":"Encounter"}},{"fullUrl":"Patient/578c2448-7234-4c2e-a4ab-595759e2befb","resource":{"resourceType":"Patient","id":"578c2448-7234-4c2e-a4ab-595759e2befb","identifier":[{"type":{"coding":[{"system":"http://terminology.hl7.org/CodeSystem/v2-0203","code":"MR"}]},"system":"urn:fhirgen:mrn","value":"393-12-5330"}],"name":[{"use":"official","family":"Kent","given":["Denise"]},{"use":"maiden","family":"Cross"}],"telecom":[{"system":"phone","value":"303-090-8862x6398","use":"mobile"},{"system":"email","value":"kellytaylor@yahoo.com","use":"work"}],"gender":"female","birthDate":"1972-09-10","address":[{"use":"home","line":["762 Gregory Harbors"],"city":"Lake Kennethberg","state":"PA","postalCode":"27406"},{"use":"old","line":["67705 Hickman Passage"],"city":"Lake Jenniferhaven","state":"HI","postalCode":"39458"}]},"request":{"method":"POST","url":"Patient"}},{"fullUrl":"Observation/f30c8a75-6588-4107-8324-33c0c9a059d5","resource":{"resourceType":"Observation","id":"f30c8a75-6588-4107-8324-33c0c9a059d5","status":"final","code":{"coding":[{"system":"http://loinc.org","code":"71793-4"}]},"subject":{"reference":"Patient/578c2448-7234-4c2e-a4ab-595759e2befb"},"effectiveDateTime":"2022-10-21T00:00:00+00:00","valueRatio":{"numerator":{"value":1},"denominator":{"value":32}}},"request":{"method":"POST","url":"Observation"}},{"fullUrl":"Observation/774c2c6e-085b-4083-b2d6-9db4b5576298","resource":{"resourceType":"Observation","id":"774c2c6e-085b-4083-b2d6-9db4b5576298","status":"final","code":{"coding":[{"system":"http://loinc.org","code":"26009-1"}]},"subject":{"reference":"Patient/578c2448-7234-4c2e-a4ab-595759e2befb"},"effectiveDateTime":"2022-11-20T00:00:00+00:00","valueRatio":{"numerator":{"value":1},"denominator":{"value":4}}},"request":{"method":"POST","url":"Observation"}},{"fullUrl":"Condition/8d8f559a-8282-4d78-80d7-cc4f3b8d83a3","resource":{"resourceType":"Condition","id":"8d8f559a-8282-4d78-80d7-cc4f3b8d83a3","code":{"coding":[{"system":"http://snomed.info/sct","code":"44882003"}]},"subject":{"reference":"Patient/578c2448-7234-4c2e-a4ab-595759e2befb"},"onsetDateTime":"2022-08-18T00:00:00+00:00"},"request":{"method":"POST","url":"Condition"}},{"fullUrl":"Condition/769c0252-822b-427b-ab4c-6003a792e0b1","resource":{"resourceType":"Condition","id":"769c0252-822b-427b-ab4c-6003a792e0b1","code":{"coding":[{"system":"http://snomed.info/sct","code":"386661006"}]},"subject":{"reference":"Patient/578c2448-7234-4c2e-a4ab-595759e2befb"},"onsetDateTime":"2022-05-31T00:00:00+00:00"},"request":{"method":"POST","url":"Condition"}},{"fullUrl":"Condition/a7d63ea0-c3cd-4470-8a41-d75a4a4fb83e","resource":{"resourceType":"Condition","id":"a7d63ea0-c3cd-4470-8a41-d75a4a4fb83e","code":{"coding":[{"system":"http://snomed.info/sct","code":"30746006"}]},"subject":{"reference":"Patient/578c2448-7234-4c2e-a4ab-595759e2befb"},"onsetDateTime":"2022-06-17T00:00:00+00:00"},"request":{"method":"POST","url":"Condition"}},{"fullUrl":"Condition/68dbf9d0-b7c5-4868-b42e-99dddfe0d7a4","resource":{"resourceType":"Condition","id":"68dbf9d0-b7c5-4868-b42e-99dddfe0d7a4","code":{"coding":[{"system":"http://snomed.info/sct","code":"91554004"}]},"subject":{"reference":"Patient/578c2448-7234-4c2e-a4ab-595759e2befb"},"onsetDateTime":"2022-04-26T00:00:00+00:00"},"request":{"method":"POST","url":"Condition"}},{"fullUrl":"Condition/7f83965c-8914-4d3d-ba23-c00d993e5028","resource":{"resourceType":"Condition","id":"7f83965c-8914-4d3d-ba23-c00d993e5028","code":{"coding":[{"system":"http://snomed.info/sct","code":"248980004"}]},"subject":{"reference":"Patient/578c2448-7234-4c2e-a4ab-595759e2befb"},"onsetDateTime":"2022-05-19T00:00:00+00:00"},"request":{"method":"POST","url":"Condition"}},{"fullUrl":"Condition/9af73225-97c7-44c8-a76b-f8cd5cd95398","resource":{"resourceType":"Condition","id":"9af73225-97c7-44c8-a76b-f8cd5cd95398","code":{"coding":[{"system":"http://snomed.info/sct","code":"709977002"}]},"subject":{"reference":"Patient/578c2448-7234-4c2e-a4ab-595759e2befb"},"onsetDateTime":"2022-09-06T00:00:00+00:00"},"request":{"method":"POST","url":"Condition"}},{"fullUrl":"Observation/63ae4497-f91d-42fa-8418-7abe1196859d","resource":{"resourceType":"Observation","id":"63ae4497-f91d-42fa-8418-7abe1196859d","status":"final","code":{"coding":[{"system":"http://loinc.org","code":"26464-8"}]},"subject":{"reference":"Patient/578c2448-7234-4c2e-a4ab-595759e2befb"},"effectiveDateTime":"2022-03-01T00:00:00+00:00","valueQuantity":{"value":10.2}},"request":{"method":"POST","url":"Observation"}},{"fullUrl":"Observation/c6800813-bc9a-4b19-ab01-7ce3d2f4f6ae","resource":{"resourceType":"Observation","id":"c6800813-bc9a-4b19-ab01-7ce3d2f4f6ae","status":"final","code":{"coding":[{"system":"http://loinc.org","code":"804-5"}]},"subject":{"reference":"Patient/578c2448-7234-4c2e-a4ab-595759e2befb"},"effectiveDateTime":"2022-08-07T00:00:00+00:00","valueQuantity":{"value":9.4}},"request":{"method":"POST","url":"Observation"}},{"fullUrl":"Observation/169565a6-25c8-4c3f-b646-51c2d4a7eb88","resource":{"resourceType":"Observation","id":"169565a6-25c8-4c3f-b646-51c2d4a7eb88","status":"final","code":{"coding":[{"system":"http://loinc.org","code":"804-5"}]},"subject":{"reference":"Patient/578c2448-7234-4c2e-a4ab-595759e2befb"},"effectiveDateTime":"2022-05-29T00:00:00+00:00","valueQuantity":{"value":8.8}},"request":{"method":"POST","url":"Observation"}},{"fullUrl":"Observation/abf4fba2-f238-47cc-9f6d-26d26df3e8a1","resource":{"resourceType":"Observation","id":"abf4fba2-f238-47cc-9f6d-26d26df3e8a1","status":"final","code":{"coding":[{"system":"http://loinc.org","code":"26464-8"}]},"subject":{"reference":"Patient/578c2448-7234-4c2e-a4ab-595759e2befb"},"effectiveDateTime":"2022-07-01T00:00:00+00:00","valueCodeableConcept":{"coding":[{"system":"snomed","code":"123456","display":"fake snomed"}]}},"request":{"method":"POST","url":"Observation"}},{"fullUrl":"Observation/2a20fb2f-cd73-4928-88e0-6dd277287558","resource":{"resourceType":"Observation","id":"2a20fb2f-cd73-4928-88e0-6dd277287558","status":"final","code":{"coding":[{"system":"http://loinc.org","code":"49498-9"}]},"subject":{"reference":"Patient/578c2448-7234-4c2e-a4ab-595759e2befb"},"effectiveDateTime":"2022-10-08T00:00:00+00:00","valueCodeableConcept":{"coding":[{"system":"snomed","code":"123456","display":"fake snomed"}]}},"request":{"method":"POST","url":"Observation"}},{"fullUrl":"Observation/ef387bf0-b831-4332-8d5d-79570543b88a","resource":{"resourceType":"Observation","id":"ef387bf0-b831-4332-8d5d-79570543b88a","status":"final","code":{"coding":[{"system":"http://loinc.org","code":"49498-9"}]},"subject":{"reference":"Patient/578c2448-7234-4c2e-a4ab-595759e2befb"},"effectiveDateTime":"2022-10-01T00:00:00+00:00","valueCodeableConcept":{"coding":[{"system":"snomed","code":"123456","display":"fake snomed"}]}},"request":{"method":"POST","url":"Observation"}},{"fullUrl":"Observation/85c8ea44-6931-4d15-9cd0-f16f8e3c8cea","resource":{"resourceType":"Observation","id":"85c8ea44-6931-4d15-9cd0-f16f8e3c8cea","status":"final","code":{"coding":[{"system":"http://loinc.org","code":"49498-9"}]},"subject":{"reference":"Patient/578c2448-7234-4c2e-a4ab-595759e2befb"},"effectiveDateTime":"2022-01-10T00:00:00+00:00"},"request":{"method":"POST","url":"Observation"}},{"fullUrl":"Observation/386ae497-8ef1-40ee-a257-f044430c861a","resource":{"resourceType":"Observation","id":"386ae497-8ef1-40ee-a257-f044430c861a","status":"final","code":{"coding":[{"system":"http://loinc.org","code":"49498-9"}]},"subject":{"reference":"Patient/578c2448-7234-4c2e-a4ab-595759e2befb"},"effectiveDateTime":"2022-11-01T00:00:00+00:00"},"request":{"method":"POST","url":"Observation"}},{"fullUrl":"Observation/73fe8f07-1a99-4ba0-ab4f-a84acb931a76","resource":{"resourceType":"Observation","id":"73fe8f07-1a99-4ba0-ab4f-a84acb931a76","status":"final","code":{"coding":[{"system":"http://loinc.org","code":"49498-9"}]},"subject":{"reference":"Patient/578c2448-7234-4c2e-a4ab-595759e2befb"},"effectiveDateTime":"2022-07-21T00:00:00+00:00"},"request":{"method":"POST","url":"Observation"}},{"fullUrl":"Procedure/126417e5-ffc9-486f-b200-ce01e35bd268","resource":{"resourceType":"Procedure","id":"126417e5-ffc9-486f-b200-ce01e35bd268","status":"completed","code":{"coding":[{"system":"http://snomed.info/sct","code":"647000"}]},"subject":{"reference":"Patient/578c2448-7234-4c2e-a4ab-595759e2befb"},"performedDateTime":"2022-12-16T00:00:00+00:00"},"request":{"method":"POST","url":"Procedure"}},{"fullUrl":"Procedure/453d88e2-e388-4bc6-9e4b-64d588e243e8","resource":{"resourceType":"Procedure","id":"453d88e2-e388-4bc6-9e4b-64d588e243e8","status":"completed","code":{"coding":[{"system":"http://snomed.info/sct","code":"189009"}]},"subject":{"reference":"Patient/578c2448-7234-4c2e-a4ab-595759e2befb"},"performedDateTime":"2022-03-28T00:00:00+00:00"},"request":{"method":"POST","url":"Procedure"}},{"fullUrl":"Procedure/c61909c0-d33f-4d41-8cdd-05a8e8103eeb","resource":{"resourceType":"Procedure","id":"c61909c0-d33f-4d41-8cdd-05a8e8103eeb","status":"completed","code":{"coding":[{"system":"http://snomed.info/sct","code":"115006"}]},"subject":{"reference":"Patient/578c2448-7234-4c2e-a4ab-595759e2befb"},"performedDateTime":"2022-08-13T00:00:00+00:00"},"request":{"method":"POST","url":"Procedure"}},{"fullUrl":"MedicationStatement/e3bec8d0-bf29-4ef0-82dc-423acec0a87b","resource":{"resourceType":"MedicationStatement","id":"e3bec8d0-bf29-4ef0-82dc-423acec0a87b","status":"completed","medicationCodeableConcept":{"coding":[{"system":"http://www.nlm.nih.gov/research/umls/rxnorm","code":"8698"}]},"subject":{"reference":"Patient/578c2448-7234-4c2e-a4ab-595759e2befb"},"effectiveDateTime":"2022-07-27T00:00:00+00:00","dosage":[{"doseAndRate":[{"doseQuantity":{"value":1,"unit":"TAB","system":"http://terminology.hl7.org/CodeSystem/v3-orderableDrugForm","code":"TAB"}}]}]},"request":{"method":"POST","url":"MedicationStatement"}},{"fullUrl":"MedicationStatement/26f39119-1f7c-497c-82e6-01288375617f","resource":{"resourceType":"MedicationStatement","id":"26f39119-1f7c-497c-82e6-01288375617f","status":"completed","medicationCodeableConcept":{"coding":[{"system":"http://www.nlm.nih.gov/research/umls/rxnorm","code":"7984"}]},"subject":{"reference":"Patient/578c2448-7234-4c2e-a4ab-595759e2befb"},"effectiveDateTime":"2022-05-14T00:00:00+00:00","dosage":[{"doseAndRate":[{"doseQuantity":{"value":1,"unit":"TAB","system":"http://terminology.hl7.org/CodeSystem/v3-orderableDrugForm","code":"TAB"}}]}]},"request":{"method":"POST","url":"MedicationStatement"}},{"fullUrl":"MedicationStatement/f4f1aa0c-6eaf-4fd7-8c0c-f7b92c705508","resource":{"resourceType":"MedicationStatement","id":"f4f1aa0c-6eaf-4fd7-8c0c-f7b92c705508","status":"completed","medicationCodeableConcept":{"coding":[{"system":"http://www.nlm.nih.gov/research/umls/rxnorm","code":"3640"}]},"subject":{"reference":"Patient/578c2448-7234-4c2e-a4ab-595759e2befb"},"effectiveDateTime":"2022-05-23T00:00:00+00:00","dosage":[{"doseAndRate":[{"doseQuantity":{"value":2,"unit":"TAB","system":"http://terminology.hl7.org/CodeSystem/v3-orderableDrugForm","code":"TAB"}}]}]},"request":{"method":"POST","url":"MedicationStatement"}},{"fullUrl":"MedicationStatement/0b2d9e02-79ae-4a75-a921-969b0b149deb","resource":{"resourceType":"MedicationStatement","id":"0b2d9e02-79ae-4a75-a921-969b0b149deb","status":"completed","medicationCodeableConcept":{"coding":[{"system":"http://www.nlm.nih.gov/research/umls/rxnorm","code":"2193"}]},"subject":{"reference":"Patient/578c2448-7234-4c2e-a4ab-595759e2befb"},"effectiveDateTime":"2022-10-24T00:00:00+00:00","dosage":[{"doseAndRate":[{"doseQuantity":{"value":2,"unit":"TAB","system":"http://terminology.hl7.org/CodeSystem/v3-orderableDrugForm","code":"TAB"}}]}]},"request":{"method":"POST","url":"MedicationStatement"}},{"fullUrl":"MedicationStatement/a3ec62de-1f4b-4df7-93eb-31895916768b","resource":{"resourceType":"MedicationStatement","id":"a3ec62de-1f4b-4df7-93eb-31895916768b","status":"completed","medicationCodeableConcept":{"coding":[{"system":"http://www.nlm.nih.gov/research/umls/rxnorm","code":"8698"}]},"subject":{"reference":"Patient/578c2448-7234-4c2e-a4ab-595759e2befb"},"effectiveDateTime":"2022-12-15T00:00:00+00:00","dosage":[{"doseAndRate":[{"doseQuantity":{"value":1,"unit":"TAB","system":"http://terminology.hl7.org/CodeSystem/v3-orderableDrugForm","code":"TAB"}}]}]},"request":{"method":"POST","url":"MedicationStatement"}},{"fullUrl":"MedicationStatement/55c4c1dd-7d8a-401e-9cde-2dfb7e9776a0","resource":{"resourceType":"MedicationStatement","id":"55c4c1dd-7d8a-401e-9cde-2dfb7e9776a0","status":"completed","medicationCodeableConcept":{"coding":[{"system":"http://www.nlm.nih.gov/research/umls/rxnorm","code":"3640"}]},"subject":{"reference":"Patient/578c2448-7234-4c2e-a4ab-595759e2befb"},"effectiveDateTime":"2022-02-04T00:00:00+00:00","dosage":[{"doseAndRate":[{"doseQuantity":{"value":3.9,"unit":"TAB","system":"http://terminology.hl7.org/CodeSystem/v3-orderableDrugForm","code":"TAB"}}]}]},"request":{"method":"POST","url":"MedicationStatement"}},{"fullUrl":"MedicationStatement/b5499e00-406d-4c94-aeda-f4fed43c4a11","resource":{"resourceType":"MedicationStatement","id":"b5499e00-406d-4c94-aeda-f4fed43c4a11","status":"completed","medicationCodeableConcept":{"coding":[{"system":"http://www.nlm.nih.gov/research/umls/rxnorm","code":"18631"}]},"subject":{"reference":"Patient/578c2448-7234-4c2e-a4ab-595759e2befb"},"effectiveDateTime":"2022-02-26T00:00:00+00:00","dosage":[{"doseAndRate":[{"doseQuantity":{"value":5.8,"unit":"TAB","system":"http://terminology.hl7.org/CodeSystem/v3-orderableDrugForm","code":"TAB"}}]}]},"request":{"method":"POST","url":"MedicationStatement"}},{"fullUrl":"MedicationStatement/12e9dbac-dd36-4064-8f34-3404a4c770ee","resource":{"resourceType":"MedicationStatement","id":"12e9dbac-dd36-4064-8f34-3404a4c770ee","status":"completed","medicationCodeableConcept":{"coding":[{"system":"http://www.nlm.nih.gov/research/umls/rxnorm","code":"18631"}]},"subject":{"reference":"Patient/578c2448-7234-4c2e-a4ab-595759e2befb"},"effectiveDateTime":"2022-01-23T00:00:00+00:00","dosage":[{"doseAndRate":[{"doseQuantity":{"value":6,"unit":"TAB","system":"http://terminology.hl7.org/CodeSystem/v3-orderableDrugForm","code":"TAB"}}]}]},"request":{"method":"POST","url":"MedicationStatement"}},{"fullUrl":"MedicationStatement/24b28188-9eb4-4a48-b4a7-bff80ccc9334","resource":{"resourceType":"MedicationStatement","id":"24b28188-9eb4-4a48-b4a7-bff80ccc9334","status":"completed","medicationCodeableConcept":{"coding":[{"system":"http://www.nlm.nih.gov/research/umls/rxnorm","code":"2193"}]},"subject":{"reference":"Patient/578c2448-7234-4c2e-a4ab-595759e2befb"},"effectiveDateTime":"2022-01-24T00:00:00+00:00","dosage":[{"doseAndRate":[{"doseQuantity":{"value":6.9,"unit":"TAB","system":"http://terminology.hl7.org/CodeSystem/v3-orderableDrugForm","code":"TAB"}}]}]},"request":{"method":"POST","url":"MedicationStatement"}},{"fullUrl":"MedicationStatement/ff48b936-58ee-431c-9493-8204e9bc7b9b","resource":{"resourceType":"MedicationStatement","id":"ff48b936-58ee-431c-9493-8204e9bc7b9b","status":"completed","medicationCodeableConcept":{"coding":[{"system":"http://www.nlm.nih.gov/research/umls/rxnorm","code":"7984"}]},"subject":{"reference":"Patient/578c2448-7234-4c2e-a4ab-595759e2befb"},"effectiveDateTime":"2022-03-05T00:00:00+00:00","dosage":[{"doseAndRate":[{"doseQuantity":{"value":5.9,"unit":"TAB","system":"http://terminology.hl7.org/CodeSystem/v3-orderableDrugForm","code":"TAB"}}]}]},"request":{"method":"POST","url":"MedicationStatement"}},{"fullUrl":"Encounter/fe4f779b-a781-4cdc-ba6b-cfa3e5735894","resource":{"resourceType":"Encounter","id":"fe4f779b-a781-4cdc-ba6b-cfa3e5735894","status":"finished","class":{"system":"http://terminology.hl7.org/CodeSystem/v3-ActCode","code":"IMP","display":"inpatient encounter"},"type":[{"coding":[{"system":"http://terminology.hl7.org/CodeSystem/encounter-type","code":"CCS60"}]}],"subject":{"reference":"Patient/578c2448-7234-4c2e-a4ab-595759e2befb"},"period":{"start":"2022-10-26T00:00:00+00:00","end":"2022-11-03T00:00:00+00:00"}},"request":{"method":"POST","url":"Encounter"}},{"fullUrl":"Encounter/31670eb1-c729-421d-830a-ab0c7e802c74","resource":{"resourceType":"Encounter","id":"31670eb1-c729-421d-830a-ab0c7e802c74","status":"finished","class":{"system":"http://terminology.hl7.org/CodeSystem/v3-ActCode","code":"IMP","display":"inpatient encounter"},"type":[{"coding":[{"system":"http://terminology.hl7.org/CodeSystem/encounter-type","code":"OKI"}]}],"subject":{"reference":"Patient/578c2448-7234-4c2e-a4ab-595759e2befb"},"period":{"start":"2022-01-17T00:00:00+00:00","end":"2022-01-18T00:00:00+00:00"}},"request":{"method":"POST","url":"Encounter"}},{"fullUrl":"Encounter/cab59eb5-95e5-47bd-816f-082cb6072ec7","resource":{"resourceType":"Encounter","id":"cab59eb5-95e5-47bd-816f-082cb6072ec7","status":"finished","class":{"system":"http://terminology.hl7.org/CodeSystem/v3-ActCode","code":"EMER","display":"emergency"},"type":[{"coding":[{"system":"http://terminology.hl7.org/CodeSystem/encounter-type","code":"OKI"}]}],"subject":{"reference":"Patient/578c2448-7234-4c2e-a4ab-595759e2befb"},"period":{"start":"2022-12-24T00:00:00+00:00","end":"2022-12-27T00:00:00+00:00"}},"request":{"method":"POST","url":"Encounter"}},{"fullUrl":"Encounter/4d0df712-1edf-4adb-b56d-3409077f0ede","resource":{"resourceType":"Encounter","id":"4d0df712-1edf-4adb-b56d-3409077f0ede","status":"finished","class":{"system":"http://terminology.hl7.org/CodeSystem/v3-ActCode","code":"AMB","display":"ambulatory"},"type":[{"coding":[{"system":"http://terminology.hl7.org/CodeSystem/encounter-type","code":"ADMS"}]}],"subject":{"reference":"Patient/578c2448-7234-4c2e-a4ab-595759e2befb"},"period":{"start":"2022-12-18T00:00:00+00:00","end":"2022-12-20T00:00:00+00:00"}},"request":{"method":"POST","url":"Encounter"}},{"fullUrl":"Patient/4080c49f-d717-4e3f-8d36-bcfdc0079234","resource":{"resourceType":"Patient","id":"4080c49f-d717-4e3f-8d36-bcfdc0079234","identifier":[{"type":{"coding":[{"system":"http://terminology.hl7.org/CodeSystem/v2-0203","code":"MR"}]},"system":"urn:fhirgen:mrn","value":"468-91-3332"}],"name":[{"use":"official","family":"Alexander","given":["Jeffery"]},{"use":"maiden","family":"White"}],"telecom":[{"system":"phone","value":"387.478.3553x810","use":"mobile"},{"system":"email","value":"psmith@yahoo.com","use":"work"}],"gender":"other","birthDate":"1966-08-09","address":[{"use":"home","line":["650 Ryan Canyon Apt. 588"],"city":"North Johnathan","state":"NC","postalCode":"48820"},{"use":"old","line":["552 Mendez Parkway"],"city":"Rothborough","state":"OH","postalCode":"64795"}]},"request":{"method":"POST","url":"Patient"}},{"fullUrl":"Observation/6e17fa47-0cd7-4c6d-8716-4b919a8fb958","resource":{"resourceType":"Observation","id":"6e17fa47-0cd7-4c6d-8716-4b919a8fb958","status":"final","code":{"coding":[{"system":"http://loinc.org","code":"47476-7"}]},"subject":{"reference":"Patient/4080c49f-d717-4e3f-8d36-bcfdc0079234"},"effectiveDateTime":"2022-08-11T00:00:00+00:00","valueRatio":{"numerator":{"value":1},"denominator":{"value":64}}},"request":{"method":"POST","url":"Observation"}},{"fullUrl":"Observation/a50a6ff1-67a1-42ed-a3aa-510035666f74","resource":{"resourceType":"Observation","id":"a50a6ff1-67a1-42ed-a3aa-510035666f74","status":"final","code":{"coding":[{"system":"http://loinc.org","code":"34382-2"}]},"subject":{"reference":"Patient/4080c49f-d717-4e3f-8d36-bcfdc0079234"},"effectiveDateTime":"2022-08-14T00:00:00+00:00","valueRatio":{"numerator":{"value":1},"denominator":{"value":32}}},"request":{"method":"POST","url":"Observation"}},{"fullUrl":"Condition/ef71aa81-da55-4e61-856d-5b56557db520","resource":{"resourceType":"Condition","id":"ef71aa81-da55-4e61-856d-5b56557db520","code":{"coding":[{"system":"http://snomed.info/sct","code":"21522001"}]},"subject":{"reference":"Patient/4080c49f-d717-4e3f-8d36-bcfdc0079234"},"onsetDateTime":"2022-11-16T00:00:00+00:00"},"request":{"method":"POST","url":"Condition"}},{"fullUrl":"Condition/f8910aa1-4b18-4e86-88a7-d65a491b99ac","resource":{"resourceType":"Condition","id":"f8910aa1-4b18-4e86-88a7-d65a491b99ac","code":{"coding":[{"system":"http://snomed.info/sct","code":"91554004"}]},"subject":{"reference":"Patient/4080c49f-d717-4e3f-8d36-bcfdc0079234"},"onsetDateTime":"2022-03-06T00:00:00+00:00"},"request":{"method":"POST","url":"Condition"}},{"fullUrl":"Condition/5a627c2a-9a65-419e-92d0-28cd9b452900","resource":{"resourceType":"Condition","id":"5a627c2a-9a65-419e-92d0-28cd9b452900","code":{"coding":[{"system":"http://snomed.info/sct","code":"248980004"}]},"subject":{"reference":"Patient/4080c49f-d717-4e3f-8d36-bcfdc0079234"},"onsetDateTime":"2022-02-14T00:00:00+00:00"},"request":{"method":"POST","url":"Condition"}},{"fullUrl":"Condition/2a60d39e-1a2e-4abe-ba75-a5da62c5689b","resource":{"resourceType":"Condition","id":"2a60d39e-1a2e-4abe-ba75-a5da62c5689b","code":{"coding":[{"system":"http://snomed.info/sct","code":"18165001"}]},"subject":{"reference":"Patient/4080c49f-d717-4e3f-8d36-bcfdc0079234"},"onsetDateTime":"2022-01-17T00:00:00+00:00"},"request":{"method":"POST","url":"Condition"}},{"fullUrl":"Condition/109e9a52-9986-4f16-8eec-985a58e62704","resource":{"resourceType":"Condition","id":"109e9a52-9986-4f16-8eec-985a58e62704","code":{"coding":[{"system":"http://snomed.info/sct","code":"31070006"}]},"subject":{"reference":"Patient/4080c49f-d717-4e3f-8d36-bcfdc0079234"},"onsetDateTime":"2022-11-14T00:00:00+00:00"},"request":{"method":"POST","url":"Condition"}},{"fullUrl":"Observation/c2a9ee80-60d7-480f-9e9d-6ac00d8e27be","resource":{"resourceType":"Observation","id":"c2a9ee80-60d7-480f-9e9d-6ac00d8e27be","status":"final","code":{"coding":[{"system":"http://loinc.org","code":"804-5"}]},"subject":{"reference":"Patient/4080c49f-d717-4e3f-8d36-bcfdc0079234"},"effectiveDateTime":"2022-10-30T00:00:00+00:00","valueQuantity":{"value":4.7}},"request":{"method":"POST","url":"Observation"}},{"fullUrl":"Observation/cf71684b-a663-4406-8998-b142619aa8a6","resource":{"resourceType":"Observation","id":"cf71684b-a663-4406-8998-b142619aa8a6","status":"final","code":{"coding":[{"system":"http://loinc.org","code":"804-5"}]},"subject":{"reference":"Patient/4080c49f-d717-4e3f-8d36-bcfdc0079234"},"effectiveDateTime":"2022-11-28T00:00:00+00:00","valueQuantity":{"value":8.7}},"request":{"method":"POST","url":"Observation"}},{"fullUrl":"Observation/1fde5ae7-8842-4a25-a727-c4279ab26761","resource":{"resourceType":"Observation","id":"1fde5ae7-8842-4a25-a727-c4279ab26761","status":"final","code":{"coding":[{"system":"http://loinc.org","code":"804-5"}]},"subject":{"reference":"Patient/4080c49f-d717-4e3f-8d36-bcfdc0079234"},"effectiveDateTime":"2022-11-15T00:00:00+00:00","valueQuantity":{"value":4.9}},"request":{"method":"POST","url":"Observation"}},{"fullUrl":"Observation/6e9a1ceb-cebe-40bb-9c4a-8997649caa94","resource":{"resourceType":"Observation","id":"6e9a1ceb-cebe-40bb-9c4a-8997649caa94","status":"final","code":{"coding":[{"system":"http://loinc.org","code":"6690-2"}]},"subject":{"reference":"Patient/4080c49f-d717-4e3f-8d36-bcfdc0079234"},"effectiveDateTime":"2022-07-04T00:00:00+00:00","valueCodeableConcept":{"coding":[{"system":"snomed","code":"123456","display":"fake snomed"}]}},"request":{"method":"POST","url":"Observation"}},{"fullUrl":"Observation/74a17494-fc86-498e-a480-e433f67f82e3","resource":{"resourceType":"Observation","id":"74a17494-fc86-498e-a480-e433f67f82e3","status":"final","code":{"coding":[{"system":"http://loinc.org","code":"49498-9"}]},"subject":{"reference":"Patient/4080c49f-d717-4e3f-8d36-bcfdc0079234"},"effectiveDateTime":"2022-07-05T00:00:00+00:00","valueCodeableConcept":{"coding":[{"system":"snomed","code":"123456","display":"fake snomed"}]}},"request":{"method":"POST","url":"Observation"}},{"fullUrl":"Observation/62c77f57-e310-4808-9e37-c8d532effac2","resource":{"resourceType":"Observation","id":"62c77f57-e310-4808-9e37-c8d532effac2","status":"final","code":{"coding":[{"system":"http://www.ama-assn.org/go/cpt","code":"85048"}]},"subject":{"reference":"Patient/4080c49f-d717-4e3f-8d36-bcfdc0079234"},"effectiveDateTime":"2022-09-10T00:00:00+00:00","valueCodeableConcept":{"coding":[{"system":"snomed","code":"123456","display":"fake snomed"}]}},"request":{"method":"POST","url":"Observation"}},{"fullUrl":"Observation/79862d78-c2fa-4bb0-ab23-9a9ff3584430","resource":{"resourceType":"Observation","id":"79862d78-c2fa-4bb0-ab23-9a9ff3584430","status":"final","code":{"coding":[{"system":"http://loinc.org","code":"49498-9"}]},"subject":{"reference":"Patient/4080c49f-d717-4e3f-8d36-bcfdc0079234"},"effectiveDateTime":"2022-07-26T00:00:00+00:00"},"request":{"method":"POST","url":"Observation"}},{"fullUrl":"Observation/741a0add-e9f9-4e80-b5e5-6eef5e5d3784","resource":{"resourceType":"Observation","id":"741a0add-e9f9-4e80-b5e5-6eef5e5d3784","status":"final","code":{"coding":[{"system":"http://loinc.org","code":"49498-9"}]},"subject":{"reference":"Patient/4080c49f-d717-4e3f-8d36-bcfdc0079234"},"effectiveDateTime":"2022-10-22T00:00:00+00:00"},"request":{"method":"POST","url":"Observation"}},{"fullUrl":"Observation/9d24fde5-0d7d-4ce4-bf8b-1783cd569cb6","resource":{"resourceType":"Observation","id":"9d24fde5-0d7d-4ce4-bf8b-1783cd569cb6","status":"final","code":{"coding":[{"system":"http://loinc.org","code":"49498-9"}]},"subject":{"reference":"Patient/4080c49f-d717-4e3f-8d36-bcfdc0079234"},"effectiveDateTime":"2022-04-20T00:00:00+00:00"},"request":{"method":"POST","url":"Observation"}},{"fullUrl":"Procedure/16cbc1f7-e75e-4fd9-9b38-080067013e4b","resource":{"resourceType":"Procedure","id":"16cbc1f7-e75e-4fd9-9b38-080067013e4b","status":"completed","code":{"coding":[{"system":"http://snomed.info/sct","code":"115006"}]},"subject":{"reference":"Patient/4080c49f-d717-4e3f-8d36-bcfdc0079234"},"performedDateTime":"2022-10-27T00:00:00+00:00"},"request":{"method":"POST","url":"Procedure"}},{"fullUrl":"Procedure/32613405-b69a-4d78-a8c4-e4b89a3bf331","resource":{"resourceType":"Procedure","id":"32613405-b69a-4d78-a8c4-e4b89a3bf331","status":"completed","code":{"coding":[{"system":"http://snomed.info/sct","code":"189009"}]},"subject":{"reference":"Patient/4080c49f-d717-4e3f-8d36-bcfdc0079234"},"performedDateTime":"2022-04-26T00:00:00+00:00"},"request":{"method":"POST","url":"Procedure"}},{"fullUrl":"Procedure/a59eb403-46b4-4803-b927-81bbcca53768","resource":{"resourceType":"Procedure","id":"a59eb403-46b4-4803-b927-81bbcca53768","status":"completed","code":{"coding":[{"system":"http://snomed.info/sct","code":"189009"}]},"subject":{"reference":"Patient/4080c49f-d717-4e3f-8d36-bcfdc0079234"},"performedDateTime":"2022-06-27T00:00:00+00:00"},"request":{"method":"POST","url":"Procedure"}},{"fullUrl":"MedicationStatement/c4bf7d37-2096-4c3a-aac1-56b40c0d9eb3","resource":{"resourceType":"MedicationStatement","id":"c4bf7d37-2096-4c3a-aac1-56b40c0d9eb3","status":"completed","medicationCodeableConcept":{"coding":[{"system":"http://www.nlm.nih.gov/research/umls/rxnorm","code":"10395"}]},"subject":{"reference":"Patient/4080c49f-d717-4e3f-8d36-bcfdc0079234"},"effectiveDateTime":"2022-05-13T00:00:00+00:00","dosage":[{"doseAndRate":[{"doseQuantity":{"value":1,"unit":"TAB","system":"http://terminology.hl7.org/CodeSystem/v3-orderableDrugForm","code":"TAB"}}]}]},"request":{"method":"POST","url":"MedicationStatement"}},{"fullUrl":"MedicationStatement/1b9a7bc6-e6a8-4ecc-9ffc-3869c69b6724","resource":{"resourceType":"MedicationStatement","id":"1b9a7bc6-e6a8-4ecc-9ffc-3869c69b6724","status":"completed","medicationCodeableConcept":{"coding":[{"system":"http://www.nlm.nih.gov/research/umls/rxnorm","code":"10395"}]},"subject":{"reference":"Patient/4080c49f-d717-4e3f-8d36-bcfdc0079234"},"effectiveDateTime":"2022-07-13T00:00:00+00:00","dosage":[{"doseAndRate":[{"doseQuantity":{"value":1,"unit":"TAB","system":"http://terminology.hl7.org/CodeSystem/v3-orderableDrugForm","code":"TAB"}}]}]},"request":{"method":"POST","url":"MedicationStatement"}},{"fullUrl":"MedicationStatement/7b79dcc5-d836-4159-909a-51d7684584c2","resource":{"resourceType":"MedicationStatement","id":"7b79dcc5-d836-4159-909a-51d7684584c2","status":"completed","medicationCodeableConcept":{"coding":[{"system":"http://www.nlm.nih.gov/research/umls/rxnorm","code":"18631"}]},"subject":{"reference":"Patient/4080c49f-d717-4e3f-8d36-bcfdc0079234"},"effectiveDateTime":"2022-07-07T00:00:00+00:00","dosage":[{"doseAndRate":[{"doseQuantity":{"value":5.8,"unit":"TAB","system":"http://terminology.hl7.org/CodeSystem/v3-orderableDrugForm","code":"TAB"}}]}]},"request":{"method":"POST","url":"MedicationStatement"}},{"fullUrl":"MedicationStatement/d5972667-6fab-4578-913e-dac389b37d37","resource":{"resourceType":"MedicationStatement","id":"d5972667-6fab-4578-913e-dac389b37d37","status":"completed","medicationCodeableConcept":{"coding":[{"system":"http://www.nlm.nih.gov/research/umls/rxnorm","code":"8698"}]},"subject":{"reference":"Patient/4080c49f-d717-4e3f-8d36-bcfdc0079234"},"effectiveDateTime":"2022-02-16T00:00:00+00:00","dosage":[{"doseAndRate":[{"doseQuantity":{"value":3.2,"unit":"TAB","system":"http://terminology.hl7.org/CodeSystem/v3-orderableDrugForm","code":"TAB"}}]}]},"request":{"method":"POST","url":"MedicationStatement"}},{"fullUrl":"MedicationStatement/1cfce085-0694-4807-8851-3e81e97858f6","resource":{"resourceType":"MedicationStatement","id":"1cfce085-0694-4807-8851-3e81e97858f6","status":"completed","medicationCodeableConcept":{"coding":[{"system":"http://www.nlm.nih.gov/research/umls/rxnorm","code":"7984"}]},"subject":{"reference":"Patient/4080c49f-d717-4e3f-8d36-bcfdc0079234"},"effectiveDateTime":"2022-09-02T00:00:00+00:00","dosage":[{"doseAndRate":[{"doseQuantity":{"value":6.6,"unit":"TAB","system":"http://terminology.hl7.org/CodeSystem/v3-orderableDrugForm","code":"TAB"}}]}]},"request":{"method":"POST","url":"MedicationStatement"}},{"fullUrl":"MedicationStatement/0e965a8b-3021-4904-a223-182cf1881891","resource":{"resourceType":"MedicationStatement","id":"0e965a8b-3021-4904-a223-182cf1881891","status":"completed","medicationCodeableConcept":{"coding":[{"system":"http://www.nlm.nih.gov/research/umls/rxnorm","code":"2193"}]},"subject":{"reference":"Patient/4080c49f-d717-4e3f-8d36-bcfdc0079234"},"effectiveDateTime":"2022-05-28T00:00:00+00:00","dosage":[{"doseAndRate":[{"doseQuantity":{"value":3,"unit":"TAB","system":"http://terminology.hl7.org/CodeSystem/v3-orderableDrugForm","code":"TAB"}}]}]},"request":{"method":"POST","url":"MedicationStatement"}},{"fullUrl":"MedicationStatement/55891247-348d-43ef-bf84-d3cc1432e479","resource":{"resourceType":"MedicationStatement","id":"55891247-348d-43ef-bf84-d3cc1432e479","status":"completed","medicationCodeableConcept":{"coding":[{"system":"http://www.nlm.nih.gov/research/umls/rxnorm","code":"7984"}]},"subject":{"reference":"Patient/4080c49f-d717-4e3f-8d36-bcfdc0079234"},"effectiveDateTime":"2022-08-07T00:00:00+00:00","dosage":[{"doseAndRate":[{"doseQuantity":{"value":4.8,"unit":"TAB","system":"http://terminology.hl7.org/CodeSystem/v3-orderableDrugForm","code":"TAB"}}]}]},"request":{"method":"POST","url":"MedicationStatement"}},{"fullUrl":"MedicationStatement/fa8eec67-a3e6-4be0-a1f9-191acf164966","resource":{"resourceType":"MedicationStatement","id":"fa8eec67-a3e6-4be0-a1f9-191acf164966","status":"completed","medicationCodeableConcept":{"coding":[{"system":"http://www.nlm.nih.gov/research/umls/rxnorm","code":"7984"}]},"subject":{"reference":"Patient/4080c49f-d717-4e3f-8d36-bcfdc0079234"},"effectiveDateTime":"2022-05-31T00:00:00+00:00","dosage":[{"doseAndRate":[{"doseQuantity":{"value":6.9,"unit":"TAB","system":"http://terminology.hl7.org/CodeSystem/v3-orderableDrugForm","code":"TAB"}}]}]},"request":{"method":"POST","url":"MedicationStatement"}},{"fullUrl":"MedicationStatement/f6284974-6d2d-4b81-b267-c8eda6a2083d","resource":{"resourceType":"MedicationStatement","id":"f6284974-6d2d-4b81-b267-c8eda6a2083d","status":"completed","medicationCodeableConcept":{"coding":[{"system":"http://www.nlm.nih.gov/research/umls/rxnorm","code":"10395"}]},"subject":{"reference":"Patient/4080c49f-d717-4e3f-8d36-bcfdc0079234"},"effectiveDateTime":"2022-09-07T00:00:00+00:00","dosage":[{"doseAndRate":[{"doseQuantity":{"value":5.1,"unit":"TAB","system":"http://terminology.hl7.org/CodeSystem/v3-orderableDrugForm","code":"TAB"}}]}]},"request":{"method":"POST","url":"MedicationStatement"}},{"fullUrl":"MedicationStatement/9fbfe59d-86fc-4e77-9c99-2e4b4220c7a3","resource":{"resourceType":"MedicationStatement","id":"9fbfe59d-86fc-4e77-9c99-2e4b4220c7a3","status":"completed","medicationCodeableConcept":{"coding":[{"system":"http://www.nlm.nih.gov/research/umls/rxnorm","code":"8698"}]},"subject":{"reference":"Patient/4080c49f-d717-4e3f-8d36-bcfdc0079234"},"effectiveDateTime":"2022-07-30T00:00:00+00:00","dosage":[{"doseAndRate":[{"doseQuantity":{"value":6.9,"unit":"TAB","system":"http://terminology.hl7.org/CodeSystem/v3-orderableDrugForm","code":"TAB"}}]}]},"request":{"method":"POST","url":"MedicationStatement"}},{"fullUrl":"Encounter/03aea7b6-2693-4dd3-a36e-87d84ac8fde2","resource":{"resourceType":"Encounter","id":"03aea7b6-2693-4dd3-a36e-87d84ac8fde2","status":"finished","class":{"system":"http://terminology.hl7.org/CodeSystem/v3-ActCode","code":"IMP","display":"inpatient encounter"},"type":[{"coding":[{"system":"http://terminology.hl7.org/CodeSystem/encounter-type","code":"ADMS"}]}],"subject":{"reference":"Patient/4080c49f-d717-4e3f-8d36-bcfdc0079234"},"period":{"start":"2022-11-25T00:00:00+00:00","end":"2022-12-04T00:00:00+00:00"}},"request":{"method":"POST","url":"Encounter"}},{"fullUrl":"Encounter/9d3ccdca-2519-428e-88a3-46ad452c55b0","resource":{"resourceType":"Encounter","id":"9d3ccdca-2519-428e-88a3-46ad452c55b0","status":"finished","class":{"system":"http://terminology.hl7.org/CodeSystem/v3-ActCode","code":"IMP","display":"inpatient encounter"},"type":[{"coding":[{"system":"http://terminology.hl7.org/CodeSystem/encounter-type","code":"OKI"}]}],"subject":{"reference":"Patient/4080c49f-d717-4e3f-8d36-bcfdc0079234"},"period":{"start":"2022-03-23T00:00:00+00:00","end":"2022-03-30T00:00:00+00:00"}},"request":{"method":"POST","url":"Encounter"}},{"fullUrl":"Encounter/f8b86fb5-8241-4acc-8e6b-29f56bb694ab","resource":{"resourceType":"Encounter","id":"f8b86fb5-8241-4acc-8e6b-29f56bb694ab","status":"finished","class":{"system":"http://terminology.hl7.org/CodeSystem/v3-ActCode","code":"IMP","display":"inpatient encounter"},"type":[{"coding":[{"system":"http://terminology.hl7.org/CodeSystem/encounter-type","code":"CCS60"}]}],"subject":{"reference":"Patient/4080c49f-d717-4e3f-8d36-bcfdc0079234"},"period":{"start":"2022-09-26T00:00:00+00:00","end":"2022-09-29T00:00:00+00:00"}},"request":{"method":"POST","url":"Encounter"}},{"fullUrl":"Encounter/be7cc957-18bf-43a4-a71d-b6ce5ad14602","resource":{"resourceType":"Encounter","id":"be7cc957-18bf-43a4-a71d-b6ce5ad14602","status":"finished","class":{"system":"http://terminology.hl7.org/CodeSystem/v3-ActCode","code":"OBSENC","display":"observation encounter"},"type":[{"coding":[{"system":"http://terminology.hl7.org/CodeSystem/encounter-type","code":"OKI"}]}],"subject":{"reference":"Patient/4080c49f-d717-4e3f-8d36-bcfdc0079234"},"period":{"start":"2022-01-10T00:00:00+00:00","end":"2022-01-11T00:00:00+00:00"}},"request":{"method":"POST","url":"Encounter"}},{"fullUrl":"Encounter/551b86f0-4862-44c8-bcde-f226b344caad","resource":{"resourceType":"Encounter","id":"551b86f0-4862-44c8-bcde-f226b344caad","status":"finished","class":{"system":"http://terminology.hl7.org/CodeSystem/v3-ActCode","code":"IMP","display":"inpatient encounter"},"type":[{"coding":[{"system":"http://terminology.hl7.org/CodeSystem/encounter-type","code":"BD/BM-clin"}]}],"subject":{"reference":"Patient/4080c49f-d717-4e3f-8d36-bcfdc0079234"},"period":{"start":"2022-05-23T00:00:00+00:00","end":"2022-06-01T00:00:00+00:00"}},"request":{"method":"POST","url":"Encounter"}},{"fullUrl":"Encounter/1d1ae750-9e27-45d8-bf69-9fee862f276d","resource":{"resourceType":"Encounter","id":"1d1ae750-9e27-45d8-bf69-9fee862f276d","status":"finished","class":{"system":"http://terminology.hl7.org/CodeSystem/v3-ActCode","code":"IMP","display":"inpatient encounter"},"type":[{"coding":[{"system":"http://terminology.hl7.org/CodeSystem/encounter-type","code":"OKI"}]}],"subject":{"reference":"Patient/4080c49f-d717-4e3f-8d36-bcfdc0079234"},"period":{"start":"2022-07-24T00:00:00+00:00","end":"2022-07-30T00:00:00+00:00"}},"request":{"method":"POST","url":"Encounter"}}]}