{"resourceType":"Bundle","id":"8dc06780-d1c5-47fc-9543-5f71529e8038","type":"collection","entry":[{"fullUrl":"Patient/971a68d4-83fe-4e4a-a9f0-e78ce84545ae","resource":{"resourceType":"Patient","id":"971a68d4-83fe-4e4a-a9f0-e78ce84545ae","meta":{"profile":["http://hl7.org/fhir/us/core/StructureDefinition/us-core-patient"]},"extension":[{"extension":[{"url":"ombCategory","valueCoding":{"system":"urn:oid:2.16.840.1.113883.6.238","code":"2106-3","display":"White"}},{"url":"text","valueString":"White"}],"url":"http://hl7.org/fhir/us/core/StructureDefinition/us-core-race"},{"extension":[{"url":"ombCategory","valueCoding":{"system":"urn:oid:2.16.840.1.113883.6.238","code":"2135-2","display":"Hispanic or Latino"}},{"url":"text","valueString":"Hispanic or Latino"}],"url":"http://hl7.org/fhir/us/core/StructureDefinition/us-core-ethnicity"}],"identifier":[{"type":{"coding":[{"system":"http://terminology.hl7.org/CodeSystem/v2-0203","code":"MR"}]},"system":"urn:fhirgen:mrn","value":"180-45-0887"}],"name":[{"use":"official","family":"Nelson","given":["Richard"]},{"use":"maiden","family":"Davis"}],"telecom":[{"system":"phone","value":"953.003.8230","use":"work"},{"system":"email","value":"zherrera@hotmail.com","use":"work"}],"gender":"male","birthDate":"1958-07-29","address":[{"use":"home","line":["40812 Thomas Rapids"],"city":"South Willieside","state":"WI","postalCode":"61104"},{"use":"old","line":["72021 Hill Bypass"],"city":"New Billy","state":"PA","postalCode":"94947"}]}},{"fullUrl":"Observation/60bf5937-c9d9-4835-8f85-7c364c95aa2a","resource":{"resourceType":"Observation","id":"60bf5937-c9d9-4835-8f85-7c364c95aa2a","meta":{"profile":["http://hl7.org/fhir/us/core/StructureDefinition/us-core-observation-lab"]},"status":"final","category":[{"coding":[{"system":"http://terminology.hl7.org/CodeSystem/observation-category","code":"laboratory","display":"Laboratory"}]}],"code":{"coding":[{"system":"http://loinc.org","code":"5394-2"}]},"subject":{"reference":"Patient/971a68d4-83fe-4e4a-a9f0-e78ce84545ae"},"effectiveDateTime":"2022-05-29T00:00:00+00:00","valueRatio":{"numerator":{"value":1},"denominator":{"value":64}}}},{"fullUrl":"Observation/ad74b697-1eb6-40c7-9885-4d0218bc4518","resource":{"resourceType":"Observation","id":"ad74b697-1eb6-40c7-9885-4d0218bc4518","meta":{"profile":["http://hl7.org/fhir/us/core/StructureDefinition/us-core-observation-lab"]},"status":"final","category":[{"coding":[{"system":"http://terminology.hl7.org/CodeSystem/observation-category","code":"laboratory","display":"Laboratory"}]}],"code":{"coding":[{"system":"http://loinc.org","code":"71793-4"}]},"subject":{"reference":"Patient/971a68d4-83fe-4e4a-a9f0-e78ce84545ae"},"effectiveDateTime":"2022-05-05T00:00:00+00:00","valueRatio":{"numerator":{"value":1},"denominator":{"value":64}}}},{"fullUrl":"Observation/37dca390-b763-4307-be68-d6e459fff852","resource":{"resourceType":"Observation","id":"37dca390-b763-4307-be68-d6e459fff852","meta":{"profile":["http://hl7.org/fhir/us/core/StructureDefinition/us-core-observation-lab"]},"status":"final","category":[{"coding":[{"system":"http://terminology.hl7.org/CodeSystem/observation-category","code":"laboratory","display":"Laboratory"}]}],"code":{"coding":[{"system":"http://loinc.org","code":"47476-7"}]},"subject":{"reference":"Patient/971a68d4-83fe-4e4a-a9f0-e78ce84545ae"},"effectiveDateTime":"2022-06-03T00:00:00+00:00","valueRatio":{"numerator":{"value":1},"denominator":{"value":64}}}},{"fullUrl":"Condition/d2851099-e590-4990-bf3f-70ae65dd127b","resource":{"resourceType":"Condition","id":"d2851099-e590-4990-bf3f-70ae65dd127b","meta":{"profile":["http://hl7.org/fhir/us/core/StructureDefinition/us-core-condition"]},"clinicalStatus":{"coding":[{"system":"http://terminology.hl7.org/CodeSystem/condition-clinical","code":"active","display":"Active"}]},"category":[{"coding":[{"system":"http://terminology.hl7.org/CodeSystem/condition-category","code":"problem-list-item"}]}],"code":{"coding":[{"system":"http://snomed.info/sct","code":"44882003"}]},"subject":{"reference":"Patient/971a68d4-83fe-4e4a-a9f0-e78ce84545ae"},"onsetDateTime":"2022-04-14T00:00:00+00:00"}},{"fullUrl":"Condition/beecbbe1-af21-4f57-9934-63b7d0ca3818","resource":{"resourceType":"Condition","id":"beecbbe1-af21-4f57-9934-63b7d0ca3818","meta":{"profile":["http://hl7.org/fhir/us/core/StructureDefinition/us-core-condition"]},"clinicalStatus":{"coding":[{"system":"http://terminology.hl7.org/CodeSystem/condition-clinical","code":"active","display":"Active"}]},"category":[{"coding":[{"system":"http://terminology.hl7.org/CodeSystem/condition-category","code":"problem-list-item"}]}],"code":{"coding":[{"system":"http://snomed.info/sct","code":"709977002"}]},"subject":{"reference":"Patient/971a68d4-83fe-4e4a-a9f0-e78ce84545ae"},"onsetDateTime":"2022-09-18T00:00:00+00:00"}},{"fullUrl":"Condition/49db0064-c848-48ab-a65d-9fc9d1ed442b","resource":{"resourceType":"Condition","id":"49db0064-c848-48ab-a65d-9fc9d1ed442b","meta":{"profile":["http://hl7.org/fhir/us/core/StructureDefinition/us-core-condition"]},"clinicalStatus":{"coding":[{"system":"http://terminology.hl7.org/CodeSystem/condition-clinical","code":"active","display":"Active"}]},"category":[{"coding":[{"system":"http://terminology.hl7.org/CodeSystem/condition-category","code":"problem-list-item"}]}],"code":{"coding":[{"system":"http://snomed.info/sct","code":"418290006"}]},"subject":{"reference":"Patient/971a68d4-83fe-4e4a-a9f0-e78ce84545ae"},"onsetDateTime":"2022-04-29T00:00:00+00:00"}},{"fullUrl":"Condition/781ddc12-44bc-4f23-9a1b-8e734c3fdb17","resource":{"resourceType":"Condition","id":"781ddc12-44bc-4f23-9a1b-8e734c3fdb17","meta":{"profile":["http://hl7.org/fhir/us/core/StructureDefinition/us-core-condition"]},"clinicalStatus":{"coding":[{"system":"http://terminology.hl7.org/CodeSystem/condition-clinical","code":"active","display":"Active"}]},"category":[{"coding":[{"system":"http://terminology.hl7.org/CodeSystem/condition-category","code":"problem-list-item"}]}],"code":{"coding":[{"system":"http://snomed.info/sct","code":"736686006"}]},"subject":{"reference":"Patient/971a68d4-83fe-4e4a-a9f0-e78ce84545ae"},"onsetDateTime":"2022-06-07T00:00:00+00:00"}},{"fullUrl":"Condition/9da6b6a5-6de7-4bd4-ad31-4a45237cdf48","resource":{"resourceType":"Condition","id":"9da6b6a5-6de7-4bd4-ad31-4a45237cdf48","meta":{"profile":["http://hl7.org/fhir/us/core/StructureDefinition/us-core-condition"]},"clinicalStatus":{"coding":[{"system":"http://terminology.hl7.org/CodeSystem/condition-clinical","code":"active","display":"Active"}]},"category":[{"coding":[{"system":"http://terminology.hl7.org/CodeSystem/condition-category","code":"problem-list-item"}]}],"code":{"coding":[{"system":"http://snomed.info/sct","code":"736686006"}]},"subject":{"reference":"Patient/971a68d4-83fe-4e4a-a9f0-e78ce84545ae"},"onsetDateTime":"2022-07-23T00:00:00+00:00"}},{"fullUrl":"Observation/6123d0df-4384-429d-b606-2a8b8b9092c3","resource":{"resourceType":"Observation","id":"6123d0df-4384-429d-b606-2a8b8b9092c3","meta":{"profile":["http://hl7.org/fhir/us/core/StructureDefinition/us-core-observation-lab"]},"status":"final","category":[{"coding":[{"system":"http://terminology.hl7.org/CodeSystem/observation-category","code":"laboratory","display":"Laboratory"}]}],"code":{"coding":[{"system":"http://loinc.org","code":"49498-9"}]},"subject":{"reference":"Patient/971a68d4-83fe-4e4a-a9f0-e78ce84545ae"},"effectiveDateTime":"2022-09-23T00:00:00+00:00","valueQuantity":{"value":9.9}}},{"fullUrl":"Observation/df2e7f05-52b0-4abe-a440-228550d6ac33","resource":{"resourceType":"Observation","id":"df2e7f05-52b0-4abe-a440-228550d6ac33","meta":{"profile":["http://hl7.org/fhir/us/core/StructureDefinition/us-core-observation-lab"]},"status":"final","category":[{"coding":[{"system":"http://terminology.hl7.org/CodeSystem/observation-category","code":"laboratory","display":"Laboratory"}]}],"code":{"coding":[{"system":"http://loinc.org","code":"49498-9"}]},"subject":{"reference":"Patient/971a68d4-83fe-4e4a-a9f0-e78ce84545ae"},"effectiveDateTime":"2022-08-14T00:00:00+00:00","valueQuantity":{"value":5.8}}},{"fullUrl":"Observation/ee9ff2c7-76f4-4847-b54b-7bcbcf979f96","resource":{"resourceType":"Observation","id":"ee9ff2c7-76f4-4847-b54b-7bcbcf979f96","meta":{"profile":["http://hl7.org/fhir/us/core/StructureDefinition/us-core-observation-lab"]},"status":"final","category":[{"coding":[{"system":"http://terminology.hl7.org/CodeSystem/observation-category","code":"laboratory","display":"Laboratory"}]}],"code":{"coding":[{"system":"http://loinc.org","code":"6690-2"}]},"subject":{"reference":"Patient/971a68d4-83fe-4e4a-a9f0-e78ce84545ae"},"effectiveDateTime":"2022-06-29T00:00:00+00:00","valueQuantity":{"value":10.1}}},{"fullUrl":"Observation/7dd2a407-3970-4d4e-b145-7b9ac1a8d0c6","resource":{"resourceType":"Observation","id":"7dd2a407-3970-4d4e-b145-7b9ac1a8d0c6","meta":{"profile":["http://hl7.org/fhir/us/core/StructureDefinition/us-core-bmi"]},"status":"final","category":[{"coding":[{"system":"http://terminology.hl7.org/CodeSystem/observation-category","code":"vital-signs","display":"Vital Signs"}]}],"code":{"coding":[{"system":"http://loinc.org","code":"39156-5"}]},"subject":{"reference":"Patient/971a68d4-83fe-4e4a-a9f0-e78ce84545ae"},"effectiveDateTime":"2022-05-11T00:00:00+00:00","valueQuantity":{"value":27.37,"unit":"kg/m2","system":"http://unitsofmeasure.org","code":"kg/m2"}}},{"fullUrl":"Observation/bd69fe34-7b99-4c97-8ffd-f71c8c2fcd7d","resource":{"resourceType":"Observation","id":"bd69fe34-7b99-4c97-8ffd-f71c8c2fcd7d","meta":{"profile":["http://hl7.org/fhir/us/core/StructureDefinition/us-core-bmi"]},"status":"final","category":[{"coding":[{"system":"http://terminology.hl7.org/CodeSystem/observation-category","code":"vital-signs","display":"Vital Signs"}]}],"code":{"coding":[{"system":"http://loinc.org","code":"39156-5"}]},"subject":{"reference":"Patient/971a68d4-83fe-4e4a-a9f0-e78ce84545ae"},"effectiveDateTime":"2022-08-14T00:00:00+00:00","valueQuantity":{"value":28.86,"unit":"kg/m2","system":"http://unitsofmeasure.org","code":"kg/m2"}}},{"fullUrl":"Observation/29fb9780-42a7-49b3-b2a1-6eb23b4850a2","resource":{"resourceType":"Observation","id":"29fb9780-42a7-49b3-b2a1-6eb23b4850a2","meta":{"profile":["http://hl7.org/fhir/us/core/StructureDefinition/us-core-head-circumference"]},"status":"final","category":[{"coding":[{"system":"http://terminology.hl7.org/CodeSystem/observation-category","code":"vital-signs","display":"Vital Signs"}]}],"code":{"coding":[{"system":"http://loinc.org","code":"9843-4"}]},"subject":{"reference":"Patient/971a68d4-83fe-4e4a-a9f0-e78ce84545ae"},"effectiveDateTime":"2022-08-04T00:00:00+00:00","valueQuantity":{"value":3.5,"unit":"Inch","system":"http://unitsofmeasure.org","code":"[in_i]"}}},{"fullUrl":"Observation/21cc65f7-327e-4766-afbf-6dda9dab655e","resource":{"resourceType":"Observation","id":"21cc65f7-327e-4766-afbf-6dda9dab655e","meta":{"profile":["http://hl7.org/fhir/us/core/StructureDefinition/us-core-head-circumference"]},"status":"final","category":[{"coding":[{"system":"http://terminology.hl7.org/CodeSystem/observation-category","code":"vital-signs","display":"Vital Signs"}]}],"code":{"coding":[{"system":"http://loinc.org","code":"9843-4"}]},"subject":{"reference":"Patient/971a68d4-83fe-4e4a-a9f0-e78ce84545ae"},"effectiveDateTime":"2022-05-19T00:00:00+00:00","valueQuantity":{"value":7.5,"unit":"Inch","system":"http://unitsofmeasure.org","code":"[in_i]"}}},{"fullUrl":"Observation/3b720bba-176f-4224-89ff-0d15a8d9eac7","resource":{"resourceType":"Observation","id":"3b720bba-176f-4224-89ff-0d15a8d9eac7","meta":{"profile":["http://hl7.org/fhir/us/core/StructureDefinition/us-core-body-height"]},"status":"final","category":[{"coding":[{"system":"http://terminology.hl7.org/CodeSystem/observation-category","code":"vital-signs","display":"Vital Signs"}]}],"code":{"coding":[{"system":"http://loinc.org","code":"8302-2"}]},"subject":{"reference":"Patient/971a68d4-83fe-4e4a-a9f0-e78ce84545ae"},"effectiveDateTime":"2022-11-14T00:00:00+00:00","valueQuantity":{"value":73.3,"unit":"Inch","system":"http://unitsofmeasure.org","code":"[in_i]"}}},{"fullUrl":"Observation/2146c5c2-2605-4f27-b94c-fb14b0b3e366","resource":{"resourceType":"Observation","id":"2146c5c2-2605-4f27-b94c-fb14b0b3e366","meta":{"profile":["http://hl7.org/fhir/us/core/StructureDefinition/us-core-body-height"]},"status":"final","category":[{"coding":[{"system":"http://terminology.hl7.org/CodeSystem/observation-category","code":"vital-signs","display":"Vital Signs"}]}],"code":{"coding":[{"system":"http://loinc.org","code":"8302-2"}]},"subject":{"reference":"Patient/971a68d4-83fe-4e4a-a9f0-e78ce84545ae"},"effectiveDateTime":"2022-09-11T00:00:00+00:00","valueQuantity":{"value":78.4,"unit":"Inch","system":"http://unitsofmeasure.org","code":"[in_i]"}}},{"fullUrl":"Observation/91dff8ea-0e6e-4fdb-8e0a-5781dd4ef08f","resource":{"resourceType":"Observation","id":"91dff8ea-0e6e-4fdb-8e0a-5781dd4ef08f","meta":{"profile":["http://hl7.org/fhir/us/core/StructureDefinition/us-core-body-weight"]},"status":"final","category":[{"coding":[{"system":"http://terminology.hl7.org/CodeSystem/observation-category","code":"vital-signs","display":"Vital Signs"}]}],"code":{"coding":[{"system":"http://loinc.org","code":"29463-7"}]},"subject":{"reference":"Patient/971a68d4-83fe-4e4a-a9f0-e78ce84545ae"},"effectiveDateTime":"2022-02-23T00:00:00+00:00","valueQuantity":{"value":126.2,"unit":"kilogram","system":"http://unitsofmeasure.org","code":"kg"}}},{"fullUrl":"Observation/17bd9d1f-3a24-4262-9730-f2a839ce425a","resource":{"resourceType":"Observation","id":"17bd9d1f-3a24-4262-9730-f2a839ce425a","meta":{"profile":["http://hl7.org/fhir/us/core/StructureDefinition/us-core-body-weight"]},"status":"final","category":[{"coding":[{"system":"http://terminology.hl7.org/CodeSystem/observation-category","code":"vital-signs","display":"Vital Signs"}]}],"code":{"coding":[{"system":"http://loinc.org","code":"29463-7"}]},"subject":{"reference":"Patient/971a68d4-83fe-4e4a-a9f0-e78ce84545ae"},"effectiveDateTime":"2022-09-18T00:00:00+00:00","valueQuantity":{"value":54.42,"unit":"kilogram","system":"http://unitsofmeasure.org","code":"kg"}}},{"fullUrl":"Observation/9d887ed3-c365-4c4c-a6a8-762ad5e9cf24","resource":{"resourceType":"Observation","id":"9d887ed3-c365-4c4c-a6a8-762ad5e9cf24","meta":{"profile":["http://hl7.org/fhir/us/core/StructureDefinition/us-core-body-temperature"]},"status":"final","category":[{"coding":[{"system":"http://terminology.hl7.org/CodeSystem/observation-category","code":"vital-signs","display":"Vital Signs"}]}],"code":{"coding":[{"system":"http://loinc.org","code":"8310-5"}]},"subject":{"reference":"Patient/971a68d4-83fe-4e4a-a9f0-e78ce84545ae"},"effectiveDateTime":"2022-09-28T00:00:00+00:00","valueQuantity":{"value":24.05,"unit":"Degrees Fahrenheit","system":"http://unitsofmeasure.org","code":"[degF]"}}},{"fullUrl":"Observation/ca457bf5-b560-4d93-8fe1-cc6670c2527c","resource":{"resourceType":"Observation","id":"ca457bf5-b560-4d93-8fe1-cc6670c2527c","meta":{"profile":["http://hl7.org/fhir/us/core/StructureDefinition/us-core-body-temperature"]},"status":"final","category":[{"coding":[{"system":"http://terminology.hl7.org/CodeSystem/observation-category","code":"vital-signs","display":"Vital Signs"}]}],"code":{"coding":[{"system":"http://loinc.org","code":"8310-5"}]},"subject":{"reference":"Patient/971a68d4-83fe-4e4a-a9f0-e78ce84545ae"},"effectiveDateTime":"2022-07-02T00:00:00+00:00","valueQuantity":{"value":66.69,"unit":"Degrees Fahrenheit","system":"http://unitsofmeasure.org","code":"[degF]"}}},{"fullUrl":"Observation/c973bde2-dc88-4bfe-92fa-8c0d20f2c01c","resource":{"resourceType":"Observation","id":"c973bde2-dc88-4bfe-92fa-8c0d20f2c01c","meta":{"profile":["http://hl7.org/fhir/us/core/StructureDefinition/us-core-heart-rate"]},"status":"final","category":[{"coding":[{"system":"http://terminology.hl7.org/CodeSystem/observation-category","code":"vital-signs","display":"Vital Signs"}]}],"code":{"coding":[{"system":"http://loinc.org","code":"8867-4"}]},"subject":{"reference":"Patient/971a68d4-83fe-4e4a-a9f0-e78ce84545ae"},"effectiveDateTime":"2022-11-27T00:00:00+00:00","valueQuantity":{"value":99.1,"unit":"Per Minute","system":"http://unitsofmeasure.org","code":"/min"}}},{"fullUrl":"Patient/7d9e2c43-f48e-4a3c-9dc9-07af494c92a8","resource":{"resourceType":"Patient","id":"7d9e2c43-f48e-4a3c-9dc9-07af494c92a8","meta":{"profile":["http://hl7.org/fhir/us/core/StructureDefinition/us-core-patient"]},"extension":[{"extension":[{"url":"ombCategory","valueCoding":{"system":"urn:oid:2.16.840.1.113883.6.238","code":"2054-5","display":"Black or African American"}},{"url":"text","valueString":"Black or African American"}],"url":"http://hl7.org/fhir/us/core/StructureDefinition/us-core-race"},{"extension":[{"url":"ombCategory","valueCoding":{"system":"urn:oid:2.16.840.1.113883.6.238","code":"2186-5","display":"Non Hispanic or Latino"}},{"url":"text","valueString":"Non Hispanic or Latino"}],"url":"http://hl7.org/fhir/us/core/StructureDefinition/us-core-ethnicity"}],"identifier":[{"type":{"coding":[{"system":"http://terminology.hl7.org/CodeSystem/v2-0203","code":"MR"}]},"system":"urn:fhirgen:mrn","value":"613-30-5640"}],"name":[{"use":"official","family":"Collins","given":["Juan"]},{"use":"maiden","family":"Munoz"}],"telecom":[{"system":"phone","value":"0901212948","use":"home"},{"system":"email","value":"agonzales@yahoo.com","use":"work"}],"gender":"male","birthDate":"1998-05-29","address":[{"use":"home","line":["071 Jonathan Park"],"city":"Annetown","state":"SD","postalCode":"45094"},{"use":"old","line":["80806 Johnson Glen"],"city":"New Dawnchester","state":"KY","postalCode":"31749"}]}},{"fullUrl":"Observation/19746eac-b925-4679-858f-5c7af9944666","resource":{"resourceType":"Observation","id":"19746eac-b925-4679-858f-5c7af9944666","meta":{"profile":["http://hl7.org/fhir/us/core/StructureDefinition/us-core-observation-lab"]},"status":"final","category":[{"coding":[{"system":"http://terminology.hl7.org/CodeSystem/observation-category","code":"laboratory","display":"Laboratory"}]}],"code":{"coding":[{"system":"http://loinc.org","code":"46203-6"}]},"subject":{"reference":"Patient/7d9e2c43-f48e-4a3c-9dc9-07af494c92a8"},"effectiveDateTime":"2022-08-25T00:00:00+00:00","valueRatio":{"numerator":{"value":1},"denominator":{"value":64}}}},{"fullUrl":"Observation/bf3c3e24-e6d6-45b3-9077-fd40d3334f34","resource":{"resourceType":"Observation","id":"bf3c3e24-e6d6-45b3-9077-fd40d3334f34","meta":{"profile":["http://hl7.org/fhir/us/core/StructureDefinition/us-core-observation-lab"]},"status":"final","category":[{"coding":[{"system":"http://terminology.hl7.org/CodeSystem/observation-category","code":"laboratory","display":"Laboratory"}]}],"code":{"coding":[{"system":"http://loinc.org","code":"71793-4"}]},"subject":{"reference":"Patient/7d9e2c43-f48e-4a3c-9dc9-07af494c92a8"},"effectiveDateTime":"2022-03-09T00:00:00+00:00","valueRatio":{"numerator":{"value":1},"denominator":{"value":64}}}},{"fullUrl":"Condition/e561279d-bdd0-438a-b386-3eed76b5da48","resource":{"resourceType":"Condition","id":"e561279d-bdd0-438a-b386-3eed76b5da48","meta":{"profile":["http://hl7.org/fhir/us/core/StructureDefinition/us-core-condition"]},"clinicalStatus":{"coding":[{"system":"http://terminology.hl7.org/CodeSystem/condition-clinical","code":"active","display":"Active"}]},"category":[{"coding":[{"system":"http://terminology.hl7.org/CodeSystem/condition-category","code":"problem-list-item"}]}],"code":{"coding":[{"system":"http://snomed.info/sct","code":"91554004"}]},"subject":{"reference":"Patient/7d9e2c43-f48e-4a3c-9dc9-07af494c92a8"},"onsetDateTime":"2022-11-06T00:00:00+00:00"}},{"fullUrl":"Condition/940d5cfc-e169-4946-a5d9-d26c212f5e60","resource":{"resourceType":"Condition","id":"940d5cfc-e169-4946-a5d9-d26c212f5e60","meta":{"profile":["http://hl7.org/fhir/us/core/StructureDefinition/us-core-condition"]},"clinicalStatus":{"coding":[{"system":"http://terminology.hl7.org/CodeSystem/condition-clinical","code":"active","display":"Active"}]},"category":[{"coding":[{"system":"http://terminology.hl7.org/CodeSystem/condition-category","code":"problem-list-item"}]}],"code":{"coding":[{"system":"http://snomed.info/sct","code":"91554004"}]},"subject":{"reference":"Patient/7d9e2c43-f48e-4a3c-9dc9-07af494c92a8"},"onsetDateTime":"2022-05-19T00:00:00+00:00"}},{"fullUrl":"Condition/203225b7-710e-4beb-ab21-52ebd0dbdddd","resource":{"resourceType":"Condition","id":"203225b7-710e-4beb-ab21-52ebd0dbdddd","meta":{"profile":["http://hl7.org/fhir/us/core/StructureDefinition/us-core-condition"]},"clinicalStatus":{"coding":[{"system":"http://terminology.hl7.org/CodeSystem/condition-clinical","code":"active","display":"Active"}]},"category":[{"coding":[{"system":"http://terminology.hl7.org/CodeSystem/condition-category","code":"problem-list-item"}]}],"code":{"coding":[{"system":"http://snomed.info/sct","code":"44882003"}]},"subject":{"reference":"Patient/7d9e2c43-f48e-4a3c-9dc9-07af494c92a8"},"onsetDateTime":"2022-06-15T00:00:00+00:00"}},{"fullUrl":"Condition/e0c4cd1c-c636-481e-bbdc-96dba30c0fea","resource":{"resourceType":"Condition","id":"e0c4cd1c-c636-481e-bbdc-96dba30c0fea","meta":{"profile":["http://hl7.org/fhir/us/core/StructureDefinition/us-core-condition"]},"clinicalStatus":{"coding":[{"system":"http://terminology.hl7.org/CodeSystem/condition-clinical","code":"active","display":"Active"}]},"category":[{"coding":[{"system":"http://terminology.hl7.org/CodeSystem/condition-category","code":"problem-list-item"}]}],"code":{"coding":[{"system":"http://snomed.info/sct","code":"91554004"}]},"subject":{"reference":"Patient/7d9e2c43-f48e-4a3c-9dc9-07af494c92a8"},"onsetDateTime":"2022-09-23T00:00:00+00:00"}},{"fullUrl":"Condition/1f572c37-836b-41b4-a384-c1ab43c83624","resource":{"resourceType":"Condition","id":"1f572c37-836b-41b4-a384-c1ab43c83624","meta":{"profile":["http://hl7.org/fhir/us/core/StructureDefinition/us-core-condition"]},"clinicalStatus":{"coding":[{"system":"http://terminology.hl7.org/CodeSystem/condition-clinical","code":"active","display":"Active"}]},"category":[{"coding":[{"system":"http://terminology.hl7.org/CodeSystem/condition-category","code":"problem-list-item"}]}],"code":{"coding":[{"system":"http://snomed.info/sct","code":"418290006"}]},"subject":{"reference":"Patient/7d9e2c43-f48e-4a3c-9dc9-07af494c92a8"},"onsetDateTime":"2022-11-13T00:00:00+00:00"}},{"fullUrl":"Condition/963c70a4-5fe8-4fc0-81f8-fdabeb0e66b0","resource":{"resourceType":"Condition","id":"963c70a4-5fe8-4fc0-81f8-fdabeb0e66b0","meta":{"profile":["http://hl7.org/fhir/us/core/StructureDefinition/us-core-condition"]},"clinicalStatus":{"coding":[{"system":"http://terminology.hl7.org/CodeSystem/condition-clinical","code":"active","display":"Active"}]},"category":[{"coding":[{"system":"http://terminology.hl7.org/CodeSystem/condition-category","code":"problem-list-item"}]}],"code":{"coding":[{"system":"http://snomed.info/sct","code":"44882003"}]},"subject":{"reference":"Patient/7d9e2c43-f48e-4a3c-9dc9-07af494c92a8"},"onsetDateTime":"2022-03-03T00:00:00+00:00"}},{"fullUrl":"Condition/22c09648-d931-4fdb-b41d-586b8094610e","resource":{"resourceType":"Condition","id":"22c09648-d931-4fdb-b41d-586b8094610e","meta":{"profile":["http://hl7.org/fhir/us/core/StructureDefinition/us-core-condition"]},"clinicalStatus":{"coding":[{"system":"http://terminology.hl7.org/CodeSystem/condition-clinical","code":"active","display":"Active"}]},"category":[{"coding":[{"system":"http://terminology.hl7.org/CodeSystem/condition-category","code":"problem-list-item"}]}],"code":{"coding":[{"system":"http://snomed.info/sct","code":"709977002"}]},"subject":{"reference":"Patient/7d9e2c43-f48e-4a3c-9dc9-07af494c92a8"},"onsetDateTime":"2022-01-18T00:00:00+00:00"}},{"fullUrl":"Condition/39ecfd6d-472c-48e3-99c4-aaa5b75e8697","resource":{"resourceType":"Condition","id":"39ecfd6d-472c-48e3-99c4-aaa5b75e8697","meta":{"profile":["http://hl7.org/fhir/us/core/StructureDefinition/us-core-condition"]},"clinicalStatus":{"coding":[{"system":"http://terminology.hl7.org/CodeSystem/condition-clinical","code":"active","display":"Active"}]},"category":[{"coding":[{"system":"http://terminology.hl7.org/CodeSystem/condition-category","code":"problem-list-item"}]}],"code":{"coding":[{"system":"http://snomed.info/sct","code":"418290006"}]},"subject":{"reference":"Patient/7d9e2c43-f48e-4a3c-9dc9-07af494c92a8"},"onsetDateTime":"2022-01-23T00:00:00+00:00"}},{"fullUrl":"Observation/19af67b0-d9f7-4d15-8f51-3c716a1c9955","resource":{"resourceType":"Observation","id":"19af67b0-d9f7-4d15-8f51-3c716a1c9955","meta":{"profile":["http://hl7.org/fhir/us/core/StructureDefinition/us-core-observation-lab"]},"status":"final","category":[{"coding":[{"system":"http://terminology.hl7.org/CodeSystem/observation-category","code":"laboratory","display":"Laboratory"}]}],"code":{"coding":[{"system":"http://loinc.org","code":"6690-2"}]},"subject":{"reference":"Patient/7d9e2c43-f48e-4a3c-9dc9-07af494c92a8"},"effectiveDateTime":"2022-11-16T00:00:00+00:00","valueQuantity":{"value":8.5}}},{"fullUrl":"Observation/7328b831-c49f-4a25-90f1-2e6330758b76","resource":{"resourceType":"Observation","id":"7328b831-c49f-4a25-90f1-2e6330758b76","meta":{"profile":["http://hl7.org/fhir/us/core/StructureDefinition/us-core-observation-lab"]},"status":"final","category":[{"coding":[{"system":"http://terminology.hl7.org/CodeSystem/observation-category","code":"laboratory","display":"Laboratory"}]}],"code":{"coding":[{"system":"http://loinc.org","code":"49498-9"}]},"subject":{"reference":"Patient/7d9e2c43-f48e-4a3c-9dc9-07af494c92a8"},"effectiveDateTime":"2022-05-01T00:00:00+00:00","valueQuantity":{"value":8.9}}},{"fullUrl":"Observation/e074eaf9-7a6c-47df-b245-b633710395a1","resource":{"resourceType":"Observation","id":"e074eaf9-7a6c-47df-b245-b633710395a1","meta":{"profile":["http://hl7.org/fhir/us/core/StructureDefinition/us-core-observation-lab"]},"status":"final","category":[{"coding":[{"system":"http://terminology.hl7.org/CodeSystem/observation-category","code":"laboratory","display":"Laboratory"}]}],"code":{"coding":[{"system":"http://loinc.org","code":"6690-2"}]},"subject":{"reference":"Patient/7d9e2c43-f48e-4a3c-9dc9-07af494c92a8"},"effectiveDateTime":"2022-05-10T00:00:00+00:00","valueQuantity":{"value":4.7}}},{"fullUrl":"Observation/cd1101a2-8570-41bb-83a8-7d643b70b653","resource":{"resourceType":"Observation","id":"cd1101a2-8570-41bb-83a8-7d643b70b653","meta":{"profile":["http://hl7.org/fhir/us/core/StructureDefinition/us-core-bmi"]},"status":"final","category":[{"coding":[{"system":"http://terminology.hl7.org/CodeSystem/observation-category","code":"vital-signs","display":"Vital Signs"}]}],"code":{"coding":[{"system":"http://loinc.org","code":"39156-5"}]},"subject":{"reference":"Patient/7d9e2c43-f48e-4a3c-9dc9-07af494c92a8"},"effectiveDateTime":"2022-01-03T00:00:00+00:00","valueQuantity":{"value":20.57,"unit":"kg/m2","system":"http://unitsofmeasure.org","code":"kg/m2"}}},{"fullUrl":"Observation/87231748-23d2-499a-af58-344277bd1d4f","resource":{"resourceType":"Observation","id":"87231748-23d2-499a-af58-344277bd1d4f","meta":{"profile":["http://hl7.org/fhir/us/core/StructureDefinition/us-core-head-circumference"]},"status":"final","category":[{"coding":[{"system":"http://terminology.hl7.org/CodeSystem/observation-category","code":"vital-signs","display":"Vital Signs"}]}],"code":{"coding":[{"system":"http://loinc.org","code":"9843-4"}]},"subject":{"reference":"Patient/7d9e2c43-f48e-4a3c-9dc9-07af494c92a8"},"effectiveDateTime":"2022-02-07T00:00:00+00:00","valueQuantity":{"value":4.5,"unit":"Inch","system":"http://unitsofmeasure.org","code":"[in_i]"}}},{"fullUrl":"Observation/3ca2a6ce-1e34-444d-ae1f-e243c0b89bb5","resource":{"resourceType":"Observation","id":"3ca2a6ce-1e34-444d-ae1f-e243c0b89bb5","meta":{"profile":["http://hl7.org/fhir/us/core/StructureDefinition/us-core-body-height"]},"status":"final","category":[{"coding":[{"system":"http://terminology.hl7.org/CodeSystem/observation-category","code":"vital-signs","display":"Vital Signs"}]}],"code":{"coding":[{"system":"http://loinc.org","code":"8302-2"}]},"subject":{"reference":"Patient/7d9e2c43-f48e-4a3c-9dc9-07af494c92a8"},"effectiveDateTime":"2022-02-05T00:00:00+00:00","valueQuantity":{"value":69.7,"unit":"Inch","system":"http://unitsofmeasure.org","code":"[in_i]"}}},{"fullUrl":"Observation/cfa7d87c-34b9-47e1-98ff-bfa1a778bc3a","resource":{"resourceType":"Observation","id":"cfa7d87c-34b9-47e1-98ff-bfa1a778bc3a","meta":{"profile":["http://hl7.org/fhir/us/core/StructureDefinition/us-core-body-height"]},"status":"final","category":[{"coding":[{"system":"http://terminology.hl7.org/CodeSystem/observation-category","code":"vital-signs","display":"Vital Signs"}]}],"code":{"coding":[{"system":"http://loinc.org","code":"8302-2"}]},"subject":{"reference":"Patient/7d9e2c43-f48e-4a3c-9dc9-07af494c92a8"},"effectiveDateTime":"2022-12-24T00:00:00+00:00","valueQuantity":{"value":80.6,"unit":"Inch","system":"http://unitsofmeasure.org","code":"[in_i]"}}},{"fullUrl":"Observation/b5fa0850-dd1f-4bb8-a2fd-07e0a4cb0544","resource":{"resourceType":"Observation","id":"b5fa0850-dd1f-4bb8-a2fd-07e0a4cb0544","meta":{"profile":["http://hl7.org/fhir/us/core/StructureDefinition/us-core-body-weight"]},"status":"final","category":[{"coding":[{"system":"http://terminology.hl7.org/CodeSystem/observation-category","code":"vital-signs","display":"Vital Signs"}]}],"code":{"coding":[{"system":"http://loinc.org","code":"29463-7"}]},"subject":{"reference":"Patient/7d9e2c43-f48e-4a3c-9dc9-07af494c92a8"},"effectiveDateTime":"2022-06-05T00:00:00+00:00","valueQuantity":{"value":85.78,"unit":"kilogram","system":"http://unitsofmeasure.org","code":"kg"}}},{"fullUrl":"Observation/3457999e-ed87-462a-95aa-ac9efb1df87f","resource":{"resourceType":"Observation","id":"3457999e-ed87-462a-95aa-ac9efb1df87f","meta":{"profile":["http://hl7.org/fhir/us/core/StructureDefinition/us-core-body-temperature"]},"status":"final","category":[{"coding":[{"system":"http://terminology.hl7.org/CodeSystem/observation-category","code":"vital-signs","display":"Vital Signs"}]}],"code":{"coding":[{"system":"http://loinc.org","code":"8310-5"}]},"subject":{"reference":"Patient/7d9e2c43-f48e-4a3c-9dc9-07af494c92a8"},"effectiveDateTime":"2022-06-27T00:00:00+00:00","valueQuantity":{"value":119.82,"unit":"Degrees Fahrenheit","system":"http://unitsofmeasure.org","code":"[degF]"}}},{"fullUrl":"Observation/baa4fe91-cc87-4377-989d-594ca03d1b1d","resource":{"resourceType":"Observation","id":"baa4fe91-cc87-4377-989d-594ca03d1b1d","meta":{"profile":["http://hl7.org/fhir/us/core/StructureDefinition/us-core-heart-rate"]},"status":"final","category":[{"coding":[{"system":"http://terminology.hl7.org/CodeSystem/observation-category","code":"vital-signs","display":"Vital Signs"}]}],"code":{"coding":[{"system":"http://loinc.org","code":"8867-4"}]},"subject":{"reference":"Patient/7d9e2c43-f48e-4a3c-9dc9-07af494c92a8"},"effectiveDateTime":"2022-08-23T00:00:00+00:00","valueQuantity":{"value":96.8,"unit":"Per Minute","system":"http://unitsofmeasure.org","code":"/min"}}},{"fullUrl":"Observation/c1d5f23c-35b4-44d7-96a6-25fc9c98aa52","resource":{"resourceType":"Observation","id":"c1d5f23c-35b4-44d7-96a6-25fc9c98aa52","meta":{"profile":["http://hl7.org/fhir/us/core/StructureDefinition/us-core-heart-rate"]},"status":"final","category":[{"coding":[{"system":"http://terminology.hl7.org/CodeSystem/observation-category","code":"vital-signs","display":"Vital Signs"}]}],"code":{"coding":[{"system":"http://loinc.org","code":"8867-4"}]},"subject":{"reference":"Patient/7d9e2c43-f48e-4a3c-9dc9-07af494c92a8"},"effectiveDateTime":"2022-11-08T00:00:00+00:00","valueQuantity":{"value":101.1,"unit":"Per Minute","system":"http://unitsofmeasure.org","code":"/min"}}},{"fullUrl":"Patient/873dd33c-0770-47de-906b-362870e81b23","resource":{"resourceType":"Patient","id":"873dd33c-0770-47de-906b-362870e81b23","meta":{"profile":["http://hl7.org/fhir/us/core/StructureDefinition/us-core-patient"]},"extension":[{"extension":[{"url":"ombCategory","valueCoding":{"system":"urn:oid:2.16.840.1.113883.6.238","code":"2076-8","display":"Native Hawaiian or Other Pacific Islander"}},{"url":"text","valueString":"Native Hawaiian or Other Pacific Islander"}],"url":"http://hl7.org/fhir/us/core/StructureDefinition/us-core-race"},{"extension":[{"url":"ombCategory","valueCoding":{"system":"urn:oid:2.16.840.1.113883.6.238","code":"2186-5","display":"Non Hispanic or Latino"}},{"url":"text","valueString":"Non Hispanic or Latino"}],"url":"http://hl7.org/fhir/us/core/StructureDefinition/us-core-ethnicity"}],"identifier":[{"type":{"coding":[{"system":"http://terminology.hl7.org/CodeSystem/v2-0203","code":"MR"}]},"system":"urn:fhirgen:mrn","value":"018-11-2119"}],"name":[{"use":"official","family":"Fletcher","given":["Sierra"]},{"use":"maiden","family":"Wright"}],"telecom":[{"system":"phone","value":"9187557410","use":"home"},{"system":"email","value":"weeksjared@gmail.com","use":"home"}],"gender":"female","birthDate":"1970-10-05","address":[{"use":"home","line":["51951 Suarez Wall Apt. 601"],"city":"Brownberg","state":"WA","postalCode":"95114"},{"use":"old","line":["0375 Adkins Squares Apt. 245"],"city":"North Williamstad","state":"AR","postalCode":"11681"}]}},{"fullUrl":"Observation/b50a9450-b3dd-46d4-aa62-d1eaff9ad2cd","resource":{"resourceType":"Observation","id":"b50a9450-b3dd-46d4-aa62-d1eaff9ad2cd","meta":{"profile":["http://hl7.org/fhir/us/core/StructureDefinition/us-core-observation-lab"]},"status":"final","category":[{"coding":[{"system":"http://terminology.hl7.org/CodeSystem/observation-category","code":"laboratory","display":"Laboratory"}]}],"code":{"coding":[{"system":"http://loinc.org","code":"50695-6"}]},"subject":{"reference":"Patient/873dd33c-0770-47de-906b-362870e81b23"},"effectiveDateTime":"2022-11-02T00:00:00+00:00","valueRatio":{"numerator":{"value":1},"denominator":{"value":4}}}},{"fullUrl":"Observation/c0556efc-eee0-4a04-813b-5f28a5227382","resource":{"resourceType":"Observation","id":"c0556efc-eee0-4a04-813b-5f28a5227382","meta":{"profile":["http://hl7.org/fhir/us/core/StructureDefinition/us-core-observation-lab"]},"status":"final","category":[{"coding":[{"system":"http://terminology.hl7.org/CodeSystem/observation-category","code":"laboratory","display":"Laboratory"}]}],"code":{"coding":[{"system":"http://loinc.org","code":"51475-2"}]},"subject":{"reference":"Patient/873dd33c-0770-47de-906b-362870e81b23"},"effectiveDateTime":"2022-04-23T00:00:00+00:00","valueRatio":{"numerator":{"value":1},"denominator":{"value":4}}}},{"fullUrl":"Condition/a9ca2a2a-b06b-4cb6-a5b9-d63eb978d911","resource":{"resourceType":"Condition","id":"a9ca2a2a-b06b-4cb6-a5b9-d63eb978d911","meta":{"profile":["http://hl7.org/fhir/us/core/StructureDefinition/us-core-condition"]},"clinicalStatus":{"coding":[{"system":"http://terminology.hl7.org/CodeSystem/condition-clinical","code":"active","display":"Active"}]},"category":[{"coding":[{"system":"http://terminology.hl7.org/CodeSystem/condition-category","code":"problem-list-item"}]}],"code":{"coding":[{"system":"http://snomed.info/sct","code":"736686006"}]},"subject":{"reference":"Patient/873dd33c-0770-47de-906b-362870e81b23"},"onsetDateTime":"2022-12-22T00:00:00+00:00"}},{"fullUrl":"Condition/59eb73ed-7867-46e8-b0fd-3cf524245143","resource":{"resourceType":"Condition","id":"59eb73ed-7867-46e8-b0fd-3cf524245143","meta":{"profile":["http://hl7.org/fhir/us/core/StructureDefinition/us-core-condition"]},"clinicalStatus":{"coding":[{"system":"http://terminology.hl7.org/CodeSystem/condition-clinical","code":"active","display":"Active"}]},"category":[{"coding":[{"system":"http://terminology.hl7.org/CodeSystem/condition-category","code":"problem-list-item"}]}],"code":{"coding":[{"system":"http://snomed.info/sct","code":"709977002"}]},"subject":{"reference":"Patient/873dd33c-0770-47de-906b-362870e81b23"},"onsetDateTime":"2022-07-06T00:00:00+00:00"}},{"fullUrl":"Condition/758897d6-a9ea-4c39-b498-d2665a6c0d75","resource":{"resourceType":"Condition","id":"758897d6-a9ea-4c39-b498-d2665a6c0d75","meta":{"profile":["http://hl7.org/fhir/us/core/StructureDefinition/us-core-condition"]},"clinicalStatus":{"coding":[{"system":"http://terminology.hl7.org/CodeSystem/condition-clinical","code":"active","display":"Active"}]},"category":[{"coding":[{"system":"http://terminology.hl7.org/CodeSystem/condition-category","code":"problem-list-item"}]}],"code":{"coding":[{"system":"http://snomed.info/sct","code":"91554004"}]},"subject":{"reference":"Patient/873dd33c-0770-47de-906b-362870e81b23"},"onsetDateTime":"2022-02-25T00:00:00+00:00"}},{"fullUrl":"Condition/2c2fd140-3032-44a6-94eb-2b1ee1e7595e","resource":{"resourceType":"Condition","id":"2c2fd140-3032-44a6-94eb-2b1ee1e7595e","meta":{"profile":["http://hl7.org/fhir/us/core/StructureDefinition/us-core-condition"]},"clinicalStatus":{"coding":[{"system":"http://terminology.hl7.org/CodeSystem/condition-clinical","code":"active","display":"Active"}]},"category":[{"coding":[{"system":"http://terminology.hl7.org/CodeSystem/condition-category","code":"problem-list-item"}]}],"code":{"coding":[{"system":"http://snomed.info/sct","code":"418290006"}]},"subject":{"reference":"Patient/873dd33c-0770-47de-906b-362870e81b23"},"onsetDateTime":"2022-05-21T00:00:00+00:00"}},{"fullUrl":"Condition/3938052f-bc6f-4263-826e-ab188d168ef2","resource":{"resourceType":"Condition","id":"3938052f-bc6f-4263-826e-ab188d168ef2","meta":{"profile":["http://hl7.org/fhir/us/core/StructureDefinition/us-core-condition"]},"clinicalStatus":{"coding":[{"system":"http://terminology.hl7.org/CodeSystem/condition-clinical","code":"active","display":"Active"}]},"category":[{"coding":[{"system":"http://terminology.hl7.org/CodeSystem/condition-category","code":"problem-list-item"}]}],"code":{"coding":[{"system":"http://snomed.info/sct","code":"736686006"}]},"subject":{"reference":"Patient/873dd33c-0770-47de-906b-362870e81b23"},"onsetDateTime":"2022-04-15T00:00:00+00:00"}},{"fullUrl":"Condition/4eb53b76-4b7f-4f24-b9a0-9487e2934a38","resource":{"resourceType":"Condition","id":"4eb53b76-4b7f-4f24-b9a0-9487e2934a38","meta":{"profile":["http://hl7.org/fhir/us/core/StructureDefinition/us-core-condition"]},"clinicalStatus":{"coding":[{"system":"http://terminology.hl7.org/CodeSystem/condition-clinical","code":"active","display":"Active"}]},"category":[{"coding":[{"system":"http://terminology.hl7.org/CodeSystem/condition-category","code":"problem-list-item"}]}],"code":{"coding":[{"system":"http://snomed.info/sct","code":"44882003"}]},"subject":{"reference":"Patient/873dd33c-0770-47de-906b-362870e81b23"},"onsetDateTime":"2022-04-07T00:00:00+00:00"}},{"fullUrl":"Condition/c69e63d7-93fb-4cbf-a801-6db1dd9ac233","resource":{"resourceType":"Condition","id":"c69e63d7-93fb-4cbf-a801-6db1dd9ac233","meta":{"profile":["http://hl7.org/fhir/us/core/StructureDefinition/us-core-condition"]},"clinicalStatus":{"coding":[{"system":"http://terminology.hl7.org/CodeSystem/condition-clinical","code":"active","display":"Active"}]},"category":[{"coding":[{"system":"http://terminology.hl7.org/CodeSystem/condition-category","code":"problem-list-item"}]}],"code":{"coding":[{"system":"http://snomed.info/sct","code":"44882003"}]},"subject":{"reference":"Patient/873dd33c-0770-47de-906b-362870e81b23"},"onsetDateTime":"2022-04-22T00:00:00+00:00"}},{"fullUrl":"Observation/718dd226-a886-44d8-94a9-ce9bfb1a7dc3","resource":{"resourceType":"Observation","id":"718dd226-a886-44d8-94a9-ce9bfb1a7dc3","meta":{"profile":["http://hl7.org/fhir/us/core/StructureDefinition/us-core-observation-lab"]},"status":"final","category":[{"coding":[{"system":"http://terminology.hl7.org/CodeSystem/observation-category","code":"laboratory","display":"Laboratory"}]}],"code":{"coding":[{"system":"http://loinc.org","code":"49498-9"}]},"subject":{"reference":"Patient/873dd33c-0770-47de-906b-362870e81b23"},"effectiveDateTime":"2022-11-13T00:00:00+00:00","valueQuantity":{"value":6.6}}},{"fullUrl":"Observation/17ea9f3c-bf74-4fd9-982e-ced5867e6495","resource":{"resourceType":"Observation","id":"17ea9f3c-bf74-4fd9-982e-ced5867e6495","meta":{"profile":["http://hl7.org/fhir/us/core/StructureDefinition/us-core-observation-lab"]},"status":"final","category":[{"coding":[{"system":"http://terminology.hl7.org/CodeSystem/observation-category","code":"laboratory","display":"Laboratory"}]}],"code":{"coding":[{"system":"http://loinc.org","code":"49498-9"}]},"subject":{"reference":"Patient/873dd33c-0770-47de-906b-362870e81b23"},"effectiveDateTime":"2022-07-27T00:00:00+00:00","valueQuantity":{"value":7.6}}},{"fullUrl":"Observation/6fc08629-3309-4454-8903-ee135a02e51f","resource":{"resourceType":"Observation","id":"6fc08629-3309-4454-8903-ee135a02e51f","meta":{"profile":["http://hl7.org/fhir/us/core/StructureDefinition/us-core-bmi"]},"status":"final","category":[{"coding":[{"system":"http://terminology.hl7.org/CodeSystem/observation-category","code":"vital-signs","display":"Vital Signs"}]}],"code":{"coding":[{"system":"http://loinc.org","code":"39156-5"}]},"subject":{"reference":"Patient/873dd33c-0770-47de-906b-362870e81b23"},"effectiveDateTime":"2022-10-19T00:00:00+00:00","valueQuantity":{"value":15.65,"unit":"kg/m2","system":"http://unitsofmeasure.org","code":"kg/m2"}}},{"fullUrl":"Observation/28d7fb15-dbd7-4ed9-adaa-92b1f5cdffdc","resource":{"resourceType":"Observation","id":"28d7fb15-dbd7-4ed9-adaa-92b1f5cdffdc","meta":{"profile":["http://hl7.org/fhir/us/core/StructureDefinition/us-core-head-circumference"]},"status":"final","category":[{"coding":[{"system":"http://terminology.hl7.org/CodeSystem/observation-category","code":"vital-signs","display":"Vital Signs"}]}],"code":{"coding":[{"system":"http://loinc.org","code":"9843-4"}]},"subject":{"reference":"Patient/873dd33c-0770-47de-906b-362870e81b23"},"effectiveDateTime":"2022-03-25T00:00:00+00:00","valueQuantity":{"value":4.2,"unit":"Inch","system":"http://unitsofmeasure.org","code":"[in_i]"}}},{"fullUrl":"Observation/477211a4-169d-4d73-b29e-1c3097f8b370","resource":{"resourceType":"Observation","id":"477211a4-169d-4d73-b29e-1c3097f8b370","meta":{"profile":["http://hl7.org/fhir/us/core/StructureDefinition/us-core-head-circumference"]},"status":"final","category":[{"coding":[{"system":"http://terminology.hl7.org/CodeSystem/observation-category","code":"vital-signs","display":"Vital Signs"}]}],"code":{"coding":[{"system":"http://loinc.org","code":"9843-4"}]},"subject":{"reference":"Patient/873dd33c-0770-47de-906b-362870e81b23"},"effectiveDateTime":"2022-11-03T00:00:00+00:00","valueQuantity":{"value":2.4,"unit":"Inch","system":"http://unitsofmeasure.org","code":"[in_i]"}}},{"fullUrl":"Observation/f2d6cb31-d33a-4306-860a-27976126ad29","resource":{"resourceType":"Observation","id":"f2d6cb31-d33a-4306-860a-27976126ad29","meta":{"profile":["http://hl7.org/fhir/us/core/StructureDefinition/us-core-body-height"]},"status":"final","category":[{"coding":[{"system":"http://terminology.hl7.org/CodeSystem/observation-category","code":"vital-signs","display":"Vital Signs"}]}],"code":{"coding":[{"system":"http://loinc.org","code":"8302-2"}]},"subject":{"reference":"Patient/873dd33c-0770-47de-906b-362870e81b23"},"effectiveDateTime":"2022-12-02T00:00:00+00:00","valueQuantity":{"value":80.7,"unit":"Inch","system":"http://unitsofmeasure.org","code":"[in_i]"}}},{"fullUrl":"Observation/73ee1d2b-60ae-4bca-b78e-f29b73721fdd","resource":{"resourceType":"Observation","id":"73ee1d2b-60ae-4bca-b78e-f29b73721fdd","meta":{"profile":["http://hl7.org/fhir/us/core/StructureDefinition/us-core-body-weight"]},"status":"final","category":[{"coding":[{"system":"http://terminology.hl7.org/CodeSystem/observation-category","code":"vital-signs","display":"Vital Signs"}]}],"code":{"coding":[{"system":"http://loinc.org","code":"29463-7"}]},"subject":{"reference":"Patient/873dd33c-0770-47de-906b-362870e81b23"},"effectiveDateTime":"2022-08-19T00:00:00+00:00","valueQuantity":{"value":37.74,"unit":"kilogram","system":"http://unitsofmeasure.org","code":"kg"}}},{"fullUrl":"Observation/c7055453-0213-476e-b569-08c7af28ce91","resource":{"resourceType":"Observation","id":"c7055453-0213-476e-b569-08c7af28ce91","meta":{"profile":["http://hl7.org/fhir/us/core/StructureDefinition/us-core-body-temperature"]},"status":"final","category":[{"coding":[{"system":"http://terminology.hl7.org/CodeSystem/observation-category","code":"vital-signs","display":"Vital Signs"}]}],"code":{"coding":[{"system":"http://loinc.org","code":"8310-5"}]},"subject":{"reference":"Patient/873dd33c-0770-47de-906b-362870e81b23"},"effectiveDateTime":"2022-12-13T00:00:00+00:00","valueQuantity":{"value":85.45,"unit":"Degrees Fahrenheit","system":"http://unitsofmeasure.org","code":"[degF]"}}},{"fullUrl":"Observation/c2ac2378-d5df-4538-abe6-ffebae296097","resource":{"resourceType":"Observation","id":"c2ac2378-d5df-4538-abe6-ffebae296097","meta":{"profile":["http://hl7.org/fhir/us/core/StructureDefinition/us-core-body-temperature"]},"status":"final","category":[{"coding":[{"system":"http://terminology.hl7.org/CodeSystem/observation-category","code":"vital-signs","display":"Vital Signs"}]}],"code":{"coding":[{"system":"http://loinc.org","code":"8310-5"}]},"subject":{"reference":"Patient/873dd33c-0770-47de-906b-362870e81b23"},"effectiveDateTime":"2022-11-06T00:00:00+00:00","valueQuantity":{"value":120.21,"unit":"Degrees Fahrenheit","system":"http://unitsofmeasure.org","code":"[degF]"}}},{"fullUrl":"Observation/e09c82ee-19d9-490d-9b0e-dc6f750e596a","resource":{"resourceType":"Observation","id":"e09c82ee-19d9-490d-9b0e-dc6f750e596a","meta":{"profile":["http://hl7.org/fhir/us/core/StructureDefinition/us-core-heart-rate"]},"status":"final","category":[{"coding":[{"system":"http://terminology.hl7.org/CodeSystem/observation-category","code":"vital-signs","display":"Vital Signs"}]}],"code":{"coding":[{"system":"http://loinc.org","code":"8867-4"}]},"subject":{"reference":"Patient/873dd33c-0770-47de-906b-362870e81b23"},"effectiveDateTime":"2022-05-24T00:00:00+00:00","valueQuantity":{"value":98,"unit":"Per Minute","system":"http://unitsofmeasure.org","code":"/min"}}},{"fullUrl":"Patient/bb6305a6-27b0-4714-87e8-d3e31609ef3e","resource":{"resourceType":"Patient","id":"bb6305a6-27b0-4714-87e8-d3e31609ef3e","meta":{"profile":["http://hl7.org/fhir/us/core/StructureDefinition/us-core-patient"]},"extension":[{"extension":[{"url":"ombCategory","valueCoding":{"system":"http://terminology.hl7.org/CodeSystem/v3-NullFlavor","code":"ASKU","display":"asked but unknown"}},{"url":"text","valueString":"asked but unknown"}],"url":"http://hl7.org/fhir/us/core/StructureDefinition/us-core-race"},{"extension":[{"url":"ombCategory","valueCoding":{"system":"urn:oid:2.16.840.1.113883.6.238","code":"2186-5","display":"Non Hispanic or Latino"}},{"url":"text","valueString":"Non Hispanic or Latino"}],"url":"http://hl7.org/fhir/us/core/StructureDefinition/us-core-ethnicity"}],"identifier":[{"type":{"coding":[{"system":"http://terminology.hl7.org/CodeSystem/v2-0203","code":"MR"}]},"system":"urn:fhirgen:mrn","value":"148-05-0281"}],"name":[{"use":"official","family":"Ellison","given":["Elizabeth"]},{"use":"maiden","family":"Chang"}],"telecom":[{"system":"phone","value":"0657271352","use":"home"},{"system":"email","value":"petervaldez@yahoo.com","use":"work"}],"gender":"female","birthDate":"1966-10-10","address":[{"use":"home","line":["2155 Poole Station Apt. 600"],"city":"Codyside","state":"CA","postalCode":"29990"},{"use":"old","line":["854 Ricky Crossing Apt. 403"],"city":"Lake Keithmouth","state":"IA","postalCode":"41008"}]}},{"fullUrl":"Observation/0b082e77-190c-4818-8435-8621ad7a1549","resource":{"resourceType":"Observation","id":"0b082e77-190c-4818-8435-8621ad7a1549","meta":{"profile":["http://hl7.org/fhir/us/core/StructureDefinition/us-core-observation-lab"]},"status":"final","category":[{"coding":[{"system":"http://terminology.hl7.org/CodeSystem/observation-category","code":"laboratory","display":"Laboratory"}]}],"code":{"coding":[{"system":"http://loinc.org","code":"22590-4"}]},"subject":{"reference":"Patient/bb6305a6-27b0-4714-87e8-d3e31609ef3e"},"effectiveDateTime":"2022-01-05T00:00:00+00:00","valueRatio":{"numerator":{"value":1},"denominator":{"value":32}}}},{"fullUrl":"Observation/cd4fcd47-2727-4050-b81e-bcb39ce8ac27","resource":{"resourceType":"Observation","id":"cd4fcd47-2727-4050-b81e-bcb39ce8ac27","meta":{"profile":["http://hl7.org/fhir/us/core/StructureDefinition/us-core-observation-lab"]},"status":"final","category":[{"coding":[{"system":"http://terminology.hl7.org/CodeSystem/observation-category","code":"laboratory","display":"Laboratory"}]}],"code":{"coding":[{"system":"http://loinc.org","code":"87925-4"}]},"subject":{"reference":"Patient/bb6305a6-27b0-4714-87e8-d3e31609ef3e"},"effectiveDateTime":"2022-11-12T00:00:00+00:00","valueRatio":{"numerator":{"value":1},"denominator":{"value":4}}}},{"fullUrl":"Condition/50063e53-fc0e-4e61-adb1-12f4dad86545","resource":{"resourceType":"Condition","id":"50063e53-fc0e-4e61-adb1-12f4dad86545","meta":{"profile":["http://hl7.org/fhir/us/core/StructureDefinition/us-core-condition"]},"clinicalStatus":{"coding":[{"system":"http://terminology.hl7.org/CodeSystem/condition-clinical","code":"active","display":"Active"}]},"category":[{"coding":[{"system":"http://terminology.hl7.org/CodeSystem/condition-category","code":"problem-list-item"}]}],"code":{"coding":[{"system":"http://snomed.info/sct","code":"91554004"}]},"subject":{"reference":"Patient/bb6305a6-27b0-4714-87e8-d3e31609ef3e"},"onsetDateTime":"2022-08-05T00:00:00+00:00"}},{"fullUrl":"Condition/4d124688-594a-4f61-a813-b2003c027196","resource":{"resourceType":"Condition","id":"4d124688-594a-4f61-a813-b2003c027196","meta":{"profile":["http://hl7.org/fhir/us/core/StructureDefinition/us-core-condition"]},"clinicalStatus":{"coding":[{"system":"http://terminology.hl7.org/CodeSystem/condition-clinical","code":"active","display":"Active"}]},"category":[{"coding":[{"system":"http://terminology.hl7.org/CodeSystem/condition-category","code":"problem-list-item"}]}],"code":{"coding":[{"system":"http://snomed.info/sct","code":"44882003"}]},"subject":{"reference":"Patient/bb6305a6-27b0-4714-87e8-d3e31609ef3e"},"onsetDateTime":"2022-06-13T00:00:00+00:00"}},{"fullUrl":"Condition/26f9625a-3edb-4ece-a67e-3e1d4c11c867","resource":{"resourceType":"Condition","id":"26f9625a-3edb-4ece-a67e-3e1d4c11c867","meta":{"profile":["http://hl7.org/fhir/us/core/StructureDefinition/us-core-condition"]},"clinicalStatus":{"coding":[{"system":"http://terminology.hl7.org/CodeSystem/condition-clinical","code":"active","display":"Active"}]},"category":[{"coding":[{"system":"http://terminology.hl7.org/CodeSystem/condition-category","code":"problem-list-item"}]}],"code":{"coding":[{"system":"http://snomed.info/sct","code":"709977002"}]},"subject":{"reference":"Patient/bb6305a6-27b0-4714-87e8-d3e31609ef3e"},"onsetDateTime":"2022-01-21T00:00:00+00:00"}},{"fullUrl":"Condition/ec110730-740a-4c3c-b5cc-3440e8c99bd1","resource":{"resourceType":"Condition","id":"ec110730-740a-4c3c-b5cc-3440e8c99bd1","meta":{"profile":["http://hl7.org/fhir/us/core/StructureDefinition/us-core-condition"]},"clinicalStatus":{"coding":[{"system":"http://terminology.hl7.org/CodeSystem/condition-clinical","code":"active","display":"Active"}]},"category":[{"coding":[{"system":"http://terminology.hl7.org/CodeSystem/condition-category","code":"problem-list-item"}]}],"code":{"coding":[{"system":"http://snomed.info/sct","code":"44882003"}]},"subject":{"reference":"Patient/bb6305a6-27b0-4714-87e8-d3e31609ef3e"},"onsetDateTime":"2022-08-26T00:00:00+00:00"}},{"fullUrl":"Observation/2a6ffaa7-7c6f-42b1-a10e-19cb43350df5","resource":{"resourceType":"Observation","id":"2a6ffaa7-7c6f-42b1-a10e-19cb43350df5","meta":{"profile":["http://hl7.org/fhir/us/core/StructureDefinition/us-core-observation-lab"]},"status":"final","category":[{"coding":[{"system":"http://terminology.hl7.org/CodeSystem/observation-category","code":"laboratory","display":"Laboratory"}]}],"code":{"coding":[{"system":"http://loinc.org","code":"6690-2"}]},"subject":{"reference":"Patient/bb6305a6-27b0-4714-87e8-d3e31609ef3e"},"effectiveDateTime":"2022-01-06T00:00:00+00:00","valueQuantity":{"value":5.9}}},{"fullUrl":"Observation/97298f35-cf4a-4918-a42a-df97a0807b0d","resource":{"resourceType":"Observation","id":"97298f35-cf4a-4918-a42a-df97a0807b0d","meta":{"profile":["http://hl7.org/fhir/us/core/StructureDefinition/us-core-observation-lab"]},"status":"final","category":[{"coding":[{"system":"http://terminology.hl7.org/CodeSystem/observation-category","code":"laboratory","display":"Laboratory"}]}],"code":{"coding":[{"system":"http://loinc.org","code":"49498-9"}]},"subject":{"reference":"Patient/bb6305a6-27b0-4714-87e8-d3e31609ef3e"},"effectiveDateTime":"2022-03-23T00:00:00+00:00","valueQuantity":{"value":7.9}}},{"fullUrl":"Observation/e4efd77e-4c20-41c6-98cd-b1405fee66b2","resource":{"resourceType":"Observation","id":"e4efd77e-4c20-41c6-98cd-b1405fee66b2","meta":{"profile":["http://hl7.org/fhir/us/core/StructureDefinition/us-core-observation-lab"]},"status":"final","category":[{"coding":[{"system":"http://terminology.hl7.org/CodeSystem/observation-category","code":"laboratory","display":"Laboratory"}]}],"code":{"coding":[{"system":"http://loinc.org","code":"6690-2"}]},"subject":{"reference":"Patient/bb6305a6-27b0-4714-87e8-d3e31609ef3e"},"effectiveDateTime":"2022-06-19T00:00:00+00:00","valueQuantity":{"value":10.9}}},{"fullUrl":"Observation/f0be4a06-b00d-49de-8648-1d544724b21c","resource":{"resourceType":"Observation","id":"f0be4a06-b00d-49de-8648-1d544724b21c","meta":{"profile":["http://hl7.org/fhir/us/core/StructureDefinition/us-core-bmi"]},"status":"final","category":[{"coding":[{"system":"http://terminology.hl7.org/CodeSystem/observation-category","code":"vital-signs","display":"Vital Signs"}]}],"code":{"coding":[{"system":"http://loinc.org","code":"39156-5"}]},"subject":{"reference":"Patient/bb6305a6-27b0-4714-87e8-d3e31609ef3e"},"effectiveDateTime":"2022-12-28T00:00:00+00:00","valueQuantity":{"value":28.28,"unit":"kg/m2","system":"http://unitsofmeasure.org","code":"kg/m2"}}},{"fullUrl":"Observation/2202a702-ef35-478f-9006-4f2bb31bfebe","resource":{"resourceType":"Observation","id":"2202a702-ef35-478f-9006-4f2bb31bfebe","meta":{"profile":["http://hl7.org/fhir/us/core/StructureDefinition/us-core-head-circumference"]},"status":"final","category":[{"coding":[{"system":"http://terminology.hl7.org/CodeSystem/observation-category","code":"vital-signs","display":"Vital Signs"}]}],"code":{"coding":[{"system":"http://loinc.org","code":"9843-4"}]},"subject":{"reference":"Patient/bb6305a6-27b0-4714-87e8-d3e31609ef3e"},"effectiveDateTime":"2022-12-25T00:00:00+00:00","valueQuantity":{"value":3.3,"unit":"Inch","system":"http://unitsofmeasure.org","code":"[in_i]"}}},{"fullUrl":"Observation/3e61a1f9-5cc6-4356-bf25-4a9849ac5cf9","resource":{"resourceType":"Observation","id":"3e61a1f9-5cc6-4356-bf25-4a9849ac5cf9","meta":{"profile":["http://hl7.org/fhir/us/core/StructureDefinition/us-core-body-height"]},"status":"final","category":[{"coding":[{"system":"http://terminology.hl7.org/CodeSystem/observation-category","code":"vital-signs","display":"Vital Signs"}]}],"code":{"coding":[{"system":"http://loinc.org","code":"8302-2"}]},"subject":{"reference":"Patient/bb6305a6-27b0-4714-87e8-d3e31609ef3e"},"effectiveDateTime":"2022-03-14T00:00:00+00:00","valueQuantity":{"value":78.5,"unit":"Inch","system":"http://unitsofmeasure.org","code":"[in_i]"}}},{"fullUrl":"Observation/df692125-255c-4597-b054-337fdbc05d38","resource":{"resourceType":"Observation","id":"df692125-255c-4597-b054-337fdbc05d38","meta":{"profile":["http://hl7.org/fhir/us/core/StructureDefinition/us-core-body-height"]},"status":"final","category":[{"coding":[{"system":"http://terminology.hl7.org/CodeSystem/observation-category","code":"vital-signs","display":"Vital Signs"}]}],"code":{"coding":[{"system":"http://loinc.org","code":"8302-2"}]},"subject":{"reference":"Patient/bb6305a6-27b0-4714-87e8-d3e31609ef3e"},"effectiveDateTime":"2022-06-22T00:00:00+00:00","valueQuantity":{"value":62.3,"unit":"Inch","system":"http://unitsofmeasure.org","code":"[in_i]"}}},{"fullUrl":"Observation/aecc39ae-f57c-4ba2-b2eb-a8dd8fb1148e","resource":{"resourceType":"Observation","id":"aecc39ae-f57c-4ba2-b2eb-a8dd8fb1148e","meta":{"profile":["http://hl7.org/fhir/us/core/StructureDefinition/us-core-body-weight"]},"status":"final","category":[{"coding":[{"system":"http://terminology.hl7.org/CodeSystem/observation-category","code":"vital-signs","display":"Vital Signs"}]}],"code":{"coding":[{"system":"http://loinc.org","code":"29463-7"}]},"subject":{"reference":"Patient/bb6305a6-27b0-4714-87e8-d3e31609ef3e"},"effectiveDateTime":"2022-10-27T00:00:00+00:00","valueQuantity":{"value":56.99,"unit":"kilogram","system":"http://unitsofmeasure.org","code":"kg"}}},{"fullUrl":"Observation/5c1ee387-d561-46fb-9cb4-0e95bd4cc037","resource":{"resourceType":"Observation","id":"5c1ee387-d561-46fb-9cb4-0e95bd4cc037","meta":{"profile":["http://hl7.org/fhir/us/core/StructureDefinition/us-core-body-weight"]},"status":"final","category":[{"coding":[{"system":"http://terminology.hl7.org/CodeSystem/observation-category","code":"vital-signs","display":"Vital Signs"}]}],"code":{"coding":[{"system":"http://loinc.org","code":"29463-7"}]},"subject":{"reference":"Patient/bb6305a6-27b0-4714-87e8-d3e31609ef3e"},"effectiveDateTime":"2022-07-03T00:00:00+00:00","valueQuantity":{"value":116.52,"unit":"kilogram","system":"http://unitsofmeasure.org","code":"kg"}}},{"fullUrl":"Observation/34718cdc-13fc-4974-9e37-41ca1bf9a687","resource":{"resourceType":"Observation","id":"34718cdc-13fc-4974-9e37-41ca1bf9a687","meta":{"profile":["http://hl7.org/fhir/us/core/StructureDefinition/us-core-body-temperature"]},"status":"final","category":[{"coding":[{"system":"http://terminology.hl7.org/CodeSystem/observation-category","code":"vital-signs","display":"Vital Signs"}]}],"code":{"coding":[{"system":"http://loinc.org","code":"8310-5"}]},"subject":{"reference":"Patient/bb6305a6-27b0-4714-87e8-d3e31609ef3e"},"effectiveDateTime":"2022-03-27T00:00:00+00:00","valueQuantity":{"value":120.2,"unit":"Degrees Fahrenheit","system":"http://unitsofmeasure.org","code":"[degF]"}}},{"fullUrl":"Observation/c075cdce-a825-47ce-959b-1fbd529c056d","resource":{"resourceType":"Observation","id":"c075cdce-a825-47ce-959b-1fbd529c056d","meta":{"profile":["http://hl7.org/fhir/us/core/StructureDefinition/us-core-body-temperature"]},"status":"final","category":[{"coding":[{"system":"http://terminology.hl7.org/CodeSystem/observation-category","code":"vital-signs","display":"Vital Signs"}]}],"code":{"coding":[{"system":"http://loinc.org","code":"8310-5"}]},"subject":{"reference":"Patient/bb6305a6-27b0-4714-87e8-d3e31609ef3e"},"effectiveDateTime":"2022-09-05T00:00:00+00:00","valueQuantity":{"value":52.97,"unit":"Degrees Fahrenheit","system":"http://unitsofmeasure.org","code":"[degF]"}}},{"fullUrl":"Observation/a8b83c96-2989-4cc0-b8c2-201f8ed25cc3","resource":{"resourceType":"Observation","id":"a8b83c96-2989-4cc0-b8c2-201f8ed25cc3","meta":{"profile":["http://hl7.org/fhir/us/core/StructureDefinition/us-core-heart-rate"]},"status":"final","category":[{"coding":[{"system":"http://terminology.hl7.org/CodeSystem/observation-category","code":"vital-signs","display":"Vital Signs"}]}],"code":{"coding":[{"system":"http://loinc.org","code":"8867-4"}]},"subject":{"reference":"Patient/bb6305a6-27b0-4714-87e8-d3e31609ef3e"},"effectiveDateTime":"2022-01-09T00:00:00+00:00","valueQuantity":{"value":98.1,"unit":"Per Minute","system":"http://unitsofmeasure.org","code":"/min"}}},{"fullUrl":"Observation/8a9781e3-54be-4dc8-8766-2dab6501d34a","resource":{"resourceType":"Observation","id":"8a9781e3-54be-4dc8-8766-2dab6501d34a","meta":{"profile":["http://hl7.org/fhir/us/core/StructureDefinition/us-core-heart-rate"]},"status":"final","category":[{"coding":[{"system":"http://terminology.hl7.org/CodeSystem/observation-category","code":"vital-signs","display":"Vital Signs"}]}],"code":{"coding":[{"system":"http://loinc.org","code":"8867-4"}]},"subject":{"reference":"Patient/bb6305a6-27b0-4714-87e8-d3e31609ef3e"},"effectiveDateTime":"2022-11-21T00:00:00+00:00","valueQuantity":{"value":96.8,"unit":"Per Minute","system":"http://unitsofmeasure.org","code":"/min"}}},{"fullUrl":"Patient/879b9104-476c-489f-9b40-d348f5dd5716","resource":{"resourceType":"Patient","id":"879b9104-476c-489f-9b40-d348f5dd5716","meta":{"profile":["http://hl7.org/fhir/us/core/StructureDefinition/us-core-patient"]},"extension":[{"extension":[{"url":"ombCategory","valueCoding":{"system":"urn:oid:2.16.840.1.113883.6.238","code":"2054-5","display":"Black or African American"}},{"url":"text","valueString":"Black or African American"}],"url":"http://hl7.org/fhir/us/core/StructureDefinition/us-core-race"},{"extension":[{"url":"ombCategory","valueCoding":{"system":"urn:oid:2.16.840.1.113883.6.238","code":"2135-2","display":"Hispanic or Latino"}},{"url":"text","valueString":"Hispanic or Latino"}],"url":"http://hl7.org/fhir/us/core/StructureDefinition/us-core-ethnicity"}],"identifier":[{"type":{"coding":[{"system":"http://terminology.hl7.org/CodeSystem/v2-0203","code":"MR"}]},"system":"urn:fhirgen:mrn","value":"017-71-3098"}],"name":[{"use":"official","family":"Wilson","given":["Jennifer"]},{"use":"maiden","family":"Garner"}],"telecom":[{"system":"phone","value":"001-308-858-2829x04670","use":"mobile"},{"system":"email","value":"marc23@yahoo.com","use":"work"}],"gender":"other","birthDate":"1972-12-18","address":[{"use":"home","line":["02327 Jordan Course"],"city":"Taraland","state":"GA","postalCode":"96853"},{"use":"old","line":["3480 Eddie Mission Apt. 523"],"city":"East Alexandraburgh","state":"NH","postalCode":"35017"}]}},{"fullUrl":"Observation/3d7498be-14de-4ca6-95d1-95c946d4d8db","resource":{"resourceType":"Observation","id":"3d7498be-14de-4ca6-95d1-95c946d4d8db","meta":{"profile":["http://hl7.org/fhir/us/core/StructureDefinition/us-core-observation-lab"]},"status":"final","category":[{"coding":[{"system":"http://terminology.hl7.org/CodeSystem/observation-category","code":"laboratory","display":"Laboratory"}]}],"code":{"coding":[{"system":"http://loinc.org","code":"34382-2"}]},"subject":{"reference":"Patient/879b9104-476c-489f-9b40-d348f5dd5716"},"effectiveDateTime":"2022-03-17T00:00:00+00:00","valueRatio":{"numerator":{"value":1},"denominator":{"value":32}}}},{"fullUrl":"Observation/2cacec12-c63c-4321-b4d2-9cbbd674c892","resource":{"resourceType":"Observation","id":"2cacec12-c63c-4321-b4d2-9cbbd674c892","meta":{"profile":["http://hl7.org/fhir/us/core/StructureDefinition/us-core-observation-lab"]},"status":"final","category":[{"coding":[{"system":"http://terminology.hl7.org/CodeSystem/observation-category","code":"laboratory","display":"Laboratory"}]}],"code":{"coding":[{"system":"http://loinc.org","code":"50695-6"}]},"subject":{"reference":"Patient/879b9104-476c-489f-9b40-d348f5dd5716"},"effectiveDateTime":"2022-04-08T00:00:00+00:00","valueRatio":{"numerator":{"value":1},"denominator":{"value":4}}}},{"fullUrl":"Observation/dff4c065-fa4c-4736-9e18-53457d2a5007","resource":{"resourceType":"Observation","id":"dff4c065-fa4c-4736-9e18-53457d2a5007","meta":{"profile":["http://hl7.org/fhir/us/core/StructureDefinition/us-core-observation-lab"]},"status":"final","category":[{"coding":[{"system":"http://terminology.hl7.org/CodeSystem/observation-category","code":"laboratory","display":"Laboratory"}]}],"code":{"coding":[{"system":"http://loinc.org","code":"47235-7"}]},"subject":{"reference":"Patient/879b9104-476c-489f-9b40-d348f5dd5716"},"effectiveDateTime":"2022-04-17T00:00:00+00:00","valueRatio":{"numerator":{"value":1},"denominator":{"value":64}}}},{"fullUrl":"Condition/85940fa0-bafa-48c1-9f30-320f2cbeaf86","resource":{"resourceType":"Condition","id":"85940fa0-bafa-48c1-9f30-320f2cbeaf86","meta":{"profile":["http://hl7.org/fhir/us/core/StructureDefinition/us-core-condition"]},"clinicalStatus":{"coding":[{"system":"http://terminology.hl7.org/CodeSystem/condition-clinical","code":"active","display":"Active"}]},"category":[{"coding":[{"system":"http://terminology.hl7.org/CodeSystem/condition-category","code":"problem-list-item"}]}],"code":{"coding":[{"system":"http://snomed.info/sct","code":"736686006"}]},"subject":{"reference":"Patient/879b9104-476c-489f-9b40-d348f5dd5716"},"onsetDateTime":"2022-07-22T00:00:00+00:00"}},{"fullUrl":"Condition/938d3238-ab39-4d77-a35d-626030d9867e","resource":{"resourceType":"Condition","id":"938d3238-ab39-4d77-a35d-626030d9867e","meta":{"profile":["http://hl7.org/fhir/us/core/StructureDefinition/us-core-condition"]},"clinicalStatus":{"coding":[{"system":"http://terminology.hl7.org/CodeSystem/condition-clinical","code":"active","display":"Active"}]},"category":[{"coding":[{"system":"http://terminology.hl7.org/CodeSystem/condition-category","code":"problem-list-item"}]}],"code":{"coding":[{"system":"http://snomed.info/sct","code":"736686006"}]},"subject":{"reference":"Patient/879b9104-476c-489f-9b40-d348f5dd5716"},"onsetDateTime":"2022-11-15T00:00:00+00:00"}},{"fullUrl":"Condition/d31e58c3-b0ba-4d61-8ac0-129f149ddbb4","resource":{"resourceType":"Condition","id":"d31e58c3-b0ba-4d61-8ac0-129f149ddbb4","meta":{"profile":["http://hl7.org/fhir/us/core/StructureDefinition/us-core-condition"]},"clinicalStatus":{"coding":[{"system":"http://terminology.hl7.org/CodeSystem/condition-clinical","code":"active","display":"Active"}]},"category":[{"coding":[{"system":"http://terminology.hl7.org/CodeSystem/condition-category","code":"problem-list-item"}]}],"code":{"coding":[{"system":"http://snomed.info/sct","code":"418290006"}]},"subject":{"reference":"Patient/879b9104-476c-489f-9b40-d348f5dd5716"},"onsetDateTime":"2022-05-22T00:00:00+00:00"}},{"fullUrl":"Condition/744e9c27-6630-437e-be28-294bdde791ef","resource":{"resourceType":"Condition","id":"744e9c27-6630-437e-be28-294bdde791ef","meta":{"profile":["http://hl7.org/fhir/us/core/StructureDefinition/us-core-condition"]},"clinicalStatus":{"coding":[{"system":"http://terminology.hl7.org/CodeSystem/condition-clinical","code":"active","display":"Active"}]},"category":[{"coding":[{"system":"http://terminology.hl7.org/CodeSystem/condition-category","code":"problem-list-item"}]}],"code":{"coding":[{"system":"http://snomed.info/sct","code":"91554004"}]},"subject":{"reference":"Patient/879b9104-476c-489f-9b40-d348f5dd5716"},"onsetDateTime":"2022-05-04T00:00:00+00:00"}},{"fullUrl":"Condition/aaf30213-bac1-4cf0-9e4e-ea992e56f602","resource":{"resourceType":"Condition","id":"aaf30213-bac1-4cf0-9e4e-ea992e56f602","meta":{"profile":["http://hl7.org/fhir/us/core/StructureDefinition/us-core-condition"]},"clinicalStatus":{"coding":[{"system":"http://terminology.hl7.org/CodeSystem/condition-clinical","code":"active","display":"Active"}]},"category":[{"coding":[{"system":"http://terminology.hl7.org/CodeSystem/condition-category","code":"problem-list-item"}]}],"code":{"coding":[{"system":"http://snomed.info/sct","code":"91554004"}]},"subject":{"reference":"Patient/879b9104-476c-489f-9b40-d348f5dd5716"},"onsetDateTime":"2022-01-06T00:00:00+00:00"}},{"fullUrl":"Observation/4b2841f3-8713-4554-a08c-8a2170657bd3","resource":{"resourceType":"Observation","id":"4b2841f3-8713-4554-a08c-8a2170657bd3","meta":{"profile":["http://hl7.org/fhir/us/core/StructureDefinition/us-core-observation-lab"]},"status":"final","category":[{"coding":[{"system":"http://terminology.hl7.org/CodeSystem/observation-category","code":"laboratory","display":"Laboratory"}]}],"code":{"coding":[{"system":"http://loinc.org","code":"26464-8"}]},"subject":{"reference":"Patient/879b9104-476c-489f-9b40-d348f5dd5716"},"effectiveDateTime":"2022-01-26T00:00:00+00:00","valueQuantity":{"value":10.6}}},{"fullUrl":"Observation/b8507d33-7efa-423e-8737-9dd23410ce05","resource":{"resourceType":"Observation","id":"b8507d33-7efa-423e-8737-9dd23410ce05","meta":{"profile":["http://hl7.org/fhir/us/core/StructureDefinition/us-core-observation-lab"]},"status":"final","category":[{"coding":[{"system":"http://terminology.hl7.org/CodeSystem/observation-category","code":"laboratory","display":"Laboratory"}]}],"code":{"coding":[{"system":"http://loinc.org","code":"26464-8"}]},"subject":{"reference":"Patient/879b9104-476c-489f-9b40-d348f5dd5716"},"effectiveDateTime":"2022-10-21T00:00:00+00:00","valueQuantity":{"value":10.1}}},{"fullUrl":"Observation/7d1391d7-3c53-49ef-8ff3-80b25c5dafb9","resource":{"resourceType":"Observation","id":"7d1391d7-3c53-49ef-8ff3-80b25c5dafb9","meta":{"profile":["http://hl7.org/fhir/us/core/StructureDefinition/us-core-observation-lab"]},"status":"final","category":[{"coding":[{"system":"http://terminology.hl7.org/CodeSystem/observation-category","code":"laboratory","display":"Laboratory"}]}],"code":{"coding":[{"system":"http://loinc.org","code":"26464-8"}]},"subject":{"reference":"Patient/879b9104-476c-489f-9b40-d348f5dd5716"},"effectiveDateTime":"2022-03-24T00:00:00+00:00","valueQuantity":{"value":6.7}}},{"fullUrl":"Observation/7384910d-ce4a-445b-bd13-4fcbb149f5ed","resource":{"resourceType":"Observation","id":"7384910d-ce4a-445b-bd13-4fcbb149f5ed","meta":{"profile":["http://hl7.org/fhir/us/core/StructureDefinition/us-core-bmi"]},"status":"final","category":[{"coding":[{"system":"http://terminology.hl7.org/CodeSystem/observation-category","code":"vital-signs","display":"Vital Signs"}]}],"code":{"coding":[{"system":"http://loinc.org","code":"39156-5"}]},"subject":{"reference":"Patient/879b9104-476c-489f-9b40-d348f5dd5716"},"effectiveDateTime":"2022-03-08T00:00:00+00:00","valueQuantity":{"value":14.6,"unit":"kg/m2","system":"http://unitsofmeasure.org","code":"kg/m2"}}},{"fullUrl":"Observation/10cf1a2f-2a0a-42d4-9fcc-ee9498e88590","resource":{"resourceType":"Observation","id":"10cf1a2f-2a0a-42d4-9fcc-ee9498e88590","meta":{"profile":["http://hl7.org/fhir/us/core/StructureDefinition/us-core-head-circumference"]},"status":"final","category":[{"coding":[{"system":"http://terminology.hl7.org/CodeSystem/observation-category","code":"vital-signs","display":"Vital Signs"}]}],"code":{"coding":[{"system":"http://loinc.org","code":"9843-4"}]},"subject":{"reference":"Patient/879b9104-476c-489f-9b40-d348f5dd5716"},"effectiveDateTime":"2022-09-02T00:00:00+00:00","valueQuantity":{"value":4.1,"unit":"Inch","system":"http://unitsofmeasure.org","code":"[in_i]"}}},{"fullUrl":"Observation/0a2256d8-0d52-4f66-a6f0-46584613da88","resource":{"resourceType":"Observation","id":"0a2256d8-0d52-4f66-a6f0-46584613da88","meta":{"profile":["http://hl7.org/fhir/us/core/StructureDefinition/us-core-body-height"]},"status":"final","category":[{"coding":[{"system":"http://terminology.hl7.org/CodeSystem/observation-category","code":"vital-signs","display":"Vital Signs"}]}],"code":{"coding":[{"system":"http://loinc.org","code":"8302-2"}]},"subject":{"reference":"Patient/879b9104-476c-489f-9b40-d348f5dd5716"},"effectiveDateTime":"2022-11-10T00:00:00+00:00","valueQuantity":{"value":72.2,"unit":"Inch","system":"http://unitsofmeasure.org","code":"[in_i]"}}},{"fullUrl":"Observation/191ae310-d568-410d-a9ca-baa786ae521a","resource":{"resourceType":"Observation","id":"191ae310-d568-410d-a9ca-baa786ae521a","meta":{"profile":["http://hl7.org/fhir/us/core/StructureDefinition/us-core-body-height"]},"status":"final","category":[{"coding":[{"system":"http://terminology.hl7.org/CodeSystem/observation-category","code":"vital-signs","display":"Vital Signs"}]}],"code":{"coding":[{"system":"http://loinc.org","code":"8302-2"}]},"subject":{"reference":"Patient/879b9104-476c-489f-9b40-d348f5dd5716"},"effectiveDateTime":"2022-04-01T00:00:00+00:00","valueQuantity":{"value":81.6,"unit":"Inch","system":"http://unitsofmeasure.org","code":"[in_i]"}}},{"fullUrl":"Observation/e7abd4a2-a8c0-4169-8f8a-14583ad666dc","resource":{"resourceType":"Observation","id":"e7abd4a2-a8c0-4169-8f8a-14583ad666dc","meta":{"profile":["http://hl7.org/fhir/us/core/StructureDefinition/us-core-body-weight"]},"status":"final","category":[{"coding":[{"system":"http://terminology.hl7.org/CodeSystem/observation-category","code":"vital-signs","display":"Vital Signs"}]}],"code":{"coding":[{"system":"http://loinc.org","code":"29463-7"}]},"subject":{"reference":"Patient/879b9104-476c-489f-9b40-d348f5dd5716"},"effectiveDateTime":"2022-11-28T00:00:00+00:00","valueQuantity":{"value":121.02,"unit":"kilogram","system":"http://unitsofmeasure.org","code":"kg"}}},{"fullUrl":"Observation/da9dccb2-60ad-4f04-be43-8101e0eeef32","resource":{"resourceType":"Observation","id":"da9dccb2-60ad-4f04-be43-8101e0eeef32","meta":{"profile":["http://hl7.org/fhir/us/core/StructureDefinition/us-core-body-temperature"]},"status":"final","category":[{"coding":[{"system":"http://terminology.hl7.org/CodeSystem/observation-category","code":"vital-signs","display":"Vital Signs"}]}],"code":{"coding":[{"system":"http://loinc.org","code":"8310-5"}]},"subject":{"reference":"Patient/879b9104-476c-489f-9b40-d348f5dd5716"},"effectiveDateTime":"2022-05-19T00:00:00+00:00","valueQuantity":{"value":67.73,"unit":"Degrees Fahrenheit","system":"http://unitsofmeasure.org","code":"[degF]"}}},{"fullUrl":"Observation/97394edd-442d-4fe7-9e60-25f88bc83fd2","resource":{"resourceType":"Observation","id":"97394edd-442d-4fe7-9e60-25f88bc83fd2","meta":{"profile":["http://hl7.org/fhir/us/core/StructureDefinition/us-core-body-temperature"]},"status":"final","category":[{"coding":[{"system":"http://terminology.hl7.org/CodeSystem/observation-category","code":"vital-signs","display":"Vital Signs"}]}],"code":{"coding":[{"system":"http://loinc.org","code":"8310-5"}]},"subject":{"reference":"Patient/879b9104-476c-489f-9b40-d348f5dd5716"},"effectiveDateTime":"2022-12-08T00:00:00+00:00","valueQuantity":{"value":68.41,"unit":"Degrees Fahrenheit","system":"http://unitsofmeasure.org","code":"[degF]"}}},{"fullUrl":"Observation/a1816104-8f78-45ef-9e00-5ba6b04182e8","resource":{"resourceType":"Observation","id":"a1816104-8f78-45ef-9e00-5ba6b04182e8","meta":{"profile":["http://hl7.org/fhir/us/core/StructureDefinition/us-core-heart-rate"]},"status":"final","category":[{"coding":[{"system":"http://terminology.hl7.org/CodeSystem/observation-category","code":"vital-signs","display":"Vital Signs"}]}],"code":{"coding":[{"system":"http://loinc.org","code":"8867-4"}]},"subject":{"reference":"Patient/879b9104-476c-489f-9b40-d348f5dd5716"},"effectiveDateTime":"2022-07-13T00:00:00+00:00","valueQuantity":{"value":97,"unit":"Per Minute","system":"http://unitsofmeasure.org","code":"/min"}}},{"fullUrl":"Observation/58508554-df93-47a1-a3ec-f6dde4d27723","resource":{"resourceType":"Observation","id":"58508554-df93-47a1-a3ec-f6dde4d27723","meta":{"profile":["http://hl7.org/fhir/us/core/StructureDefinition/us-core-heart-rate"]},"status":"final","category":[{"coding":[{"system":"http://terminology.hl7.org/CodeSystem/observation-category","code":"vital-signs","display":"Vital Signs"}]}],"code":{"coding":[{"system":"http://loinc.org","code":"8867-4"}]},"subject":{"reference":"Patient/879b9104-476c-489f-9b40-d348f5dd5716"},"effectiveDateTime":"2022-09-02T00:00:00+00:00","valueQuantity":{"value":100.5,"unit":"Per Minute","system":"http://unitsofmeasure.org","code":"/min"}}}]}