{"resourceType":"Bundle","id":"69b612a3-af89-4012-aa44-2e4e3c9ce794","type":"collection","entry":[{"fullUrl":"Patient/d43cf5fa-7e7d-41ac-a123-07faf385cff7","resource":{"resourceType":"Patient","id":"d43cf5fa-7e7d-41ac-a123-07faf385cff7","identifier":[{"type":{"coding":[{"system":"http://terminology.hl7.org/CodeSystem/v2-0203","code":"MR"}]},"system":"urn:fhirgen:mrn","value":"659-72-3811"}],"name":[{"family":"Alexander","given":["Patrick"]}],"gender":"male","birthDate":"1985-09-29","address":[{"line":["121 Kayla Tunnel Apt. 300"],"city":"North Jamesborough","state":"Oregon"}]}},{"fullUrl":"Observation/246f1ae8-a6c1-4e35-b4b9-f92f25acfc40","resource":{"resourceType":"Observation","id":"246f1ae8-a6c1-4e35-b4b9-f92f25acfc40","status":"final","code":{"coding":[{"system":"http://loinc.org","code":"47476-7"}]},"subject":{"reference":"Patient/d43cf5fa-7e7d-41ac-a123-07faf385cff7"},"effectiveDateTime":"2022-03-06T00:00:00+00:00","valueRatio":{"numerator":{"value":1.0},"denominator":{"value":32.0}}}},{"fullUrl":"Observation/d50afce2-6729-4ace-8dac-8939e5b48278","resource":{"resourceType":"Observation","id":"d50afce2-6729-4ace-8dac-8939e5b48278","status":"final","code":{"coding":[{"system":"http://loinc.org","code":"26009-1"}]},"subject":{"reference":"Patient/d43cf5fa-7e7d-41ac-a123-07faf385cff7"},"effectiveDateTime":"2022-02-22T00:00:00+00:00","valueRatio":{"numerator":{"value":1.0},"denominator":{"value":32.0}}}},{"fullUrl":"Condition/5c2cca5c-26c7-49da-946a-2cce43e7fb28","resource":{"resourceType":"Condition","id":"5c2cca5c-26c7-49da-946a-2cce43e7fb28","code":{"coding":[{"system":"http://snomed.info/sct","code":"736686006"}]},"subject":{"reference":"Patient/d43cf5fa-7e7d-41ac-a123-07faf385cff7"},"onsetDateTime":"2022-03-20T00:00:00+00:00"}},{"fullUrl":"Condition/9545c255-6f12-4212-a291-24832ec41acf","resource":{"resourceType":"Condition","id":"9545c255-6f12-4212-a291-24832ec41acf","code":{"coding":[{"system":"http://snomed.info/sct","code":"736686006"}]},"subject":{"reference":"Patient/d43cf5fa-7e7d-41ac-a123-07faf385cff7"},"onsetDateTime":"2022-05-28T00:00:00+00:00"}},{"fullUrl":"Condition/25a2ccdc-ee79-4093-b592-023d5ccdfd14","resource":{"resourceType":"Condition","id":"25a2ccdc-ee79-4093-b592-023d5ccdfd14","code":{"coding":[{"system":"http://snomed.info/sct","code":"198199009"}]},"subject":{"reference":"Patient/d43cf5fa-7e7d-41ac-a123-07faf385cff7"},"onsetDateTime":"2022-06-17T00:00:00+00:00"}},{"fullUrl":"Condition/583dbf56-ba29-4569-a10c-fe689d81862b","resource":{"resourceType":"Condition","id":"583dbf56-ba29-4569-a10c-fe689d81862b","code":{"coding":[{"system":"http://snomed.info/sct","code":"30746006"}]},"subject":{"reference":"Patient/d43cf5fa-7e7d-41ac-a123-07faf385cff7"},"onsetDateTime":"2022-05-20T00:00:00+00:00"}},{"fullUrl":"Condition/f07f1556-4b38-48f0-913c-02d83afe3b59","resource":{"resourceType":"Condition","id":"f07f1556-4b38-48f0-913c-02d83afe3b59","code":{"coding":[{"system":"http://snomed.info/sct","code":"248980004"}]},"subject":{"reference":"Patient/d43cf5fa-7e7d-41ac-a123-07faf385cff7"},"onsetDateTime":"2022-12-16T00:00:00+00:00"}},{"fullUrl":"Condition/e3ee1da3-0251-4e3d-a61c-c073b2e47221","resource":{"resourceType":"Condition","id":"e3ee1da3-0251-4e3d-a61c-c073b2e47221","code":{"coding":[{"system":"http://snomed.info/sct","code":"31070006"}]},"subject":{"reference":"Patient/d43cf5fa-7e7d-41ac-a123-07faf385cff7"},"onsetDateTime":"2022-11-11T00:00:00+00:00"}},{"fullUrl":"Condition/323f1823-4e81-4738-bd55-aff4e6f33068","resource":{"resourceType":"Condition","id":"323f1823-4e81-4738-bd55-aff4e6f33068","code":{"coding":[{"system":"http://snomed.info/sct","code":"31070006"}]},"subject":{"reference":"Patient/d43cf5fa-7e7d-41ac-a123-07faf385cff7"},"onsetDateTime":"2022-12-07T00:00:00+00:00"}},{"fullUrl":"Observation/88c0e786-1e99-41e1-ab85-1024543ef36a","resource":{"resourceType":"Observation","id":"88c0e786-1e99-41e1-ab85-1024543ef36a","status":"final","code":{"coding":[{"system":"http://loinc.org","code":"804-5"}]},"subject":{"reference":"Patient/d43cf5fa-7e7d-41ac-a123-07faf385cff7"},"effectiveDateTime":"2022-09-13T00:00:00+00:00","valueQuantity":{"value":10.7}}},{"fullUrl":"Observation/17235195-f3ca-4c5a-916d-0f053aa6d960","resource":{"resourceType":"Observation","id":"17235195-f3ca-4c5a-916d-0f053aa6d960","status":"final","code":{"coding":[{"system":"http://loinc.org","code":"6690-2"}]},"subject":{"reference":"Patient/d43cf5fa-7e7d-41ac-a123-07faf385cff7"},"effectiveDateTime":"2022-12-30T00:00:00+00:00","valueQuantity":{"value":9.3}}},{"fullUrl":"Procedure/2b6c68c3-e88d-4e5d-8ad5-f441e5b38829","resource":{"resourceType":"Procedure","id":"2b6c68c3-e88d-4e5d-8ad5-f441e5b38829","status":"completed","code":{"coding":[{"system":"http://snomed.info/sct","code":"115006"}]},"subject":{"reference":"Patient/d43cf5fa-7e7d-41ac-a123-07faf385cff7"},"performedDateTime":"2022-05-31T00:00:00+00:00"}},{"fullUrl":"Procedure/c08119d6-9e58-4b5c-87a3-161acfd85f17","resource":{"resourceType":"Procedure","id":"c08119d6-9e58-4b5c-87a3-161acfd85f17","status":"completed","code":{"coding":[{"system":"http://snomed.info/sct","code":"146005"}]},"subject":{"reference":"Patient/d43cf5fa-7e7d-41ac-a123-07faf385cff7"},"performedDateTime":"2022-01-19T00:00:00+00:00"}},{"fullUrl":"Procedure/8053fd91-0e6f-4f92-a747-58bc3a8ae25f","resource":{"resourceType":"Procedure","id":"8053fd91-0e6f-4f92-a747-58bc3a8ae25f","status":"completed","code":{"coding":[{"system":"http://snomed.info/sct","code":"189009"}]},"subject":{"reference":"Patient/d43cf5fa-7e7d-41ac-a123-07faf385cff7"},"performedDateTime":"2022-05-16T00:00:00+00:00"}},{"fullUrl":"MedicationStatement/2e8dc34b-e0f5-4186-9d31-3c8679a50045","resource":{"resourceType":"MedicationStatement","id":"2e8dc34b-e0f5-4186-9d31-3c8679a50045","status":"completed","medicationCodeableConcept":{"coding":[{"system":"http://www.nlm.nih.gov/research/umls/rxnorm","code":"7980"}]},"subject":{"reference":"Patient/d43cf5fa-7e7d-41ac-a123-07faf385cff7"},"effectiveDateTime":"2022-09-11T00:00:00+00:00","dosage":[{"doseAndRate":[{"doseQuantity":{"value":2.0,"unit":"TAB","system":"http://terminology.hl7.org/CodeSystem/v3-orderableDrugForm","code":"TAB"}}]}]}},{"fullUrl":"MedicationStatement/6f3249a5-cb6f-4d32-949a-b6f1d71cfbd0","resource":{"resourceType":"MedicationStatement","id":"6f3249a5-cb6f-4d32-949a-b6f1d71cfbd0","status":"completed","medicationCodeableConcept":{"coding":[{"system":"http://www.nlm.nih.gov/research/umls/rxnorm","code":"3640"}]},"subject":{"reference":"Patient/d43cf5fa-7e7d-41ac-a123-07faf385cff7"},"effectiveDateTime":"2022-08-10T00:00:00+00:00","dosage":[{"doseAndRate":[{"doseQuantity":{"value":1.0,"unit":"TAB","system":"http://terminology.hl7.org/CodeSystem/v3-orderableDrugForm","code":"TAB"}}]}]}},{"fullUrl":"MedicationStatement/bd973fc3-3e8c-4ed5-8cc9-ef960479dcbc","resource":{"resourceType":"MedicationStatement","id":"bd973fc3-3e8c-4ed5-8cc9-ef960479dcbc","status":"completed","medicationCodeableConcept":{"coding":[{"system":"http://www.nlm.nih.gov/research/umls/rxnorm","code":"7980"}]},"subject":{"reference":"Patient/d43cf5fa-7e7d-41ac-a123-07faf385cff7"},"effectiveDateTime":"2022-05-27T00:00:00+00:00","dosage":[{"doseAndRate":[{"doseQuantity":{"value":2.0,"unit":"TAB","system":"http://terminology.hl7.org/CodeSystem/v3-orderableDrugForm","code":"TAB"}}]}]}},{"fullUrl":"MedicationStatement/f8069452-c943-4f22-b76f-bf35683cf907","resource":{"resourceType":"MedicationStatement","id":"f8069452-c943-4f22-b76f-bf35683cf907","status":"completed","medicationCodeableConcept":{"coding":[{"system":"http://www.nlm.nih.gov/research/umls/rxnorm","code":"2193"}]},"subject":{"reference":"Patient/d43cf5fa-7e7d-41ac-a123-07faf385cff7"},"effectiveDateTime":"2022-06-08T00:00:00+00:00","dosage":[{"doseAndRate":[{"doseQuantity":{"value":1.0,"unit":"TAB","system":"http://terminology.hl7.org/CodeSystem/v3-orderableDrugForm","code":"TAB"}}]}]}},{"fullUrl":"MedicationStatement/d1a5d2fe-ba82-4cde-b0fb-fec6a68011a3","resource":{"resourceType":"MedicationStatement","id":"d1a5d2fe-ba82-4cde-b0fb-fec6a68011a3","status":"completed","medicationCodeableConcept":{"coding":[{"system":"http://www.nlm.nih.gov/research/umls/rxnorm","code":"18631"}]},"subject":{"reference":"Patient/d43cf5fa-7e7d-41ac-a123-07faf385cff7"},"effectiveDateTime":"2022-10-23T00:00:00+00:00","dosage":[{"doseAndRate":[{"doseQuantity":{"value":2.0,"unit":"TAB","system":"http://terminology.hl7.org/CodeSystem/v3-orderableDrugForm","code":"TAB"}}]}]}},{"fullUrl":"MedicationStatement/b78493f0-08d3-4731-a626-229d53dd0cfa","resource":{"resourceType":"MedicationStatement","id":"b78493f0-08d3-4731-a626-229d53dd0cfa","status":"completed","medicationCodeableConcept":{"coding":[{"system":"http://www.nlm.nih.gov/research/umls/rxnorm","code":"18631"}]},"subject":{"reference":"Patient/d43cf5fa-7e7d-41ac-a123-07faf385cff7"},"effectiveDateTime":"2022-05-03T00:00:00+00:00","dosage":[{"doseAndRate":[{"doseQuantity":{"value":2.0,"unit":"TAB","system":"http://terminology.hl7.org/CodeSystem/v3-orderableDrugForm","code":"TAB"}}]}]}},{"fullUrl":"Encounter/dd335a5f-7792-4275-870f-7145fa3cc9b6","resource":{"resourceType":"Encounter","id":"dd335a5f-7792-4275-870f-7145fa3cc9b6","status":"finished","class":{"system":"http://terminology.hl7.org/CodeSystem/v3-ActCode","code":"OBSENC","display":"observation encounter"},"type":[{"coding":[{"system":"http://terminology.hl7.org/CodeSystem/encounter-type","code":"CCS60"}]}],"subject":{"reference":"Patient/d43cf5fa-7e7d-41ac-a123-07faf385cff7"},"period":{"start":"2022-09-04T00:00:00+00:00","end":"2022-09-11T00:00:00+00:00"}}},{"fullUrl":"Encounter/b13c2c1e-25a5-42c1-a24a-1afa201db419","resource":{"resourceType":"Encounter","id":"b13c2c1e-25a5-42c1-a24a-1afa201db419","status":"finished","class":{"system":"http://terminology.hl7.org/CodeSystem/v3-ActCode","code":"ACUTE","display":"inpatient acute"},"type":[{"coding":[{"system":"http://terminology.hl7.org/CodeSystem/encounter-type","code":"BD/BM-clin"}]}],"subject":{"reference":"Patient/d43cf5fa-7e7d-41ac-a123-07faf385cff7"},"period":{"start":"2022-12-02T00:00:00+00:00","end":"2022-12-10T00:00:00+00:00"}}},{"fullUrl":"Encounter/d2987ff8-42b8-4ff5-8b3d-f58261091c02","resource":{"resourceType":"Encounter","id":"d2987ff8-42b8-4ff5-8b3d-f58261091c02","status":"finished","class":{"system":"http://terminology.hl7.org/CodeSystem/v3-ActCode","code":"FLD","display":"field"},"type":[{"coding":[{"system":"http://terminology.hl7.org/CodeSystem/encounter-type","code":"BD/BM-clin"}]}],"subject":{"reference":"Patient/d43cf5fa-7e7d-41ac-a123-07faf385cff7"},"period":{"start":"2022-01-21T00:00:00+00:00","end":"2022-01-21T00:00:00+00:00"}}},{"fullUrl":"Patient/27d10a87-713f-422f-b2a8-f96305ba907f","resource":{"resourceType":"Patient","id":"27d10a87-713f-422f-b2a8-f96305ba907f","identifier":[{"type":{"coding":[{"system":"http://terminology.hl7.org/CodeSystem/v2-0203","code":"MR"}]},"system":"urn:fhirgen:mrn","value":"808-36-7340"}],"name":[{"family":"Thompson","given":["Timothy"]}],"gender":"male","birthDate":"1947-07-14","address":[{"line":["6934 Murray Walk Apt. 834"],"city":"Port Tyler","state":"South Carolina"}]}},{"fullUrl":"Observation/844bda89-b5f5-4d0c-9460-2a6140c868e3","resource":{"resourceType":"Observation","id":"844bda89-b5f5-4d0c-9460-2a6140c868e3","status":"final","code":{"coding":[{"system":"http://loinc.org","code":"50690-7"}]},"subject":{"reference":"Patient/27d10a87-713f-422f-b2a8-f96305ba907f"},"effectiveDateTime":"2022-12-09T00:00:00+00:00","valueRatio":{"numerator":{"value":1.0},"denominator":{"value":4.0}}}},{"fullUrl":"Observation/c2a15c34-f6d0-42e7-838a-e915b407953b","resource":{"resourceType":"Observation","id":"c2a15c34-f6d0-42e7-838a-e915b407953b","status":"final","code":{"coding":[{"system":"http://loinc.org","code":"22590-4"}]},"subject":{"reference":"Patient/27d10a87-713f-422f-b2a8-f96305ba907f"},"effectiveDateTime":"2022-09-09T00:00:00+00:00","valueRatio":{"numerator":{"value":1.0},"denominator":{"value":64.0}}}},{"fullUrl":"Condition/8d57d4e9-2abd-4a62-9b0c-7efd1072e2a8","resource":{"resourceType":"Condition","id":"8d57d4e9-2abd-4a62-9b0c-7efd1072e2a8","code":{"coding":[{"system":"http://snomed.info/sct","code":"21522001"}]},"subject":{"reference":"Patient/27d10a87-713f-422f-b2a8-f96305ba907f"},"onsetDateTime":"2022-10-04T00:00:00+00:00"}},{"fullUrl":"Condition/dd088c6c-a922-404e-a4a5-70c3965602a3","resource":{"resourceType":"Condition","id":"dd088c6c-a922-404e-a4a5-70c3965602a3","code":{"coding":[{"system":"http://snomed.info/sct","code":"709977002"}]},"subject":{"reference":"Patient/27d10a87-713f-422f-b2a8-f96305ba907f"},"onsetDateTime":"2022-08-30T00:00:00+00:00"}},{"fullUrl":"Condition/975ed51c-fbcd-4370-95bc-b369d0ae57be","resource":{"resourceType":"Condition","id":"975ed51c-fbcd-4370-95bc-b369d0ae57be","code":{"coding":[{"system":"http://snomed.info/sct","code":"271939006"}]},"subject":{"reference":"Patient/27d10a87-713f-422f-b2a8-f96305ba907f"},"onsetDateTime":"2022-08-22T00:00:00+00:00"}},{"fullUrl":"Condition/bfc58097-a798-4be4-966d-dd141ccb33d8","resource":{"resourceType":"Condition","id":"bfc58097-a798-4be4-966d-dd141ccb33d8","code":{"coding":[{"system":"http://snomed.info/sct","code":"31070006"}]},"subject":{"reference":"Patient/27d10a87-713f-422f-b2a8-f96305ba907f"},"onsetDateTime":"2022-01-23T00:00:00+00:00"}},{"fullUrl":"Condition/fea41b20-e1e8-4ecd-b42c-0cb0957ac5c3","resource":{"resourceType":"Condition","id":"fea41b20-e1e8-4ecd-b42c-0cb0957ac5c3","code":{"coding":[{"system":"http://snomed.info/sct","code":"405737000"}]},"subject":{"reference":"Patient/27d10a87-713f-422f-b2a8-f96305ba907f"},"onsetDateTime":"2022-02-24T00:00:00+00:00"}},{"fullUrl":"Condition/ce081042-486b-4f71-b1b4-2883021851ef","resource":{"resourceType":"Condition","id":"ce081042-486b-4f71-b1b4-2883021851ef","code":{"coding":[{"system":"http://snomed.info/sct","code":"736686006"}]},"subject":{"reference":"Patient/27d10a87-713f-422f-b2a8-f96305ba907f"},"onsetDateTime":"2022-07-06T00:00:00+00:00"}},{"fullUrl":"Observation/473c4167-a610-4318-bbf8-0a3fef65106c","resource":{"resourceType":"Observation","id":"473c4167-a610-4318-bbf8-0a3fef65106c","status":"final","code":{"coding":[{"system":"http://loinc.org","code":"6690-2"}]},"subject":{"reference":"Patient/27d10a87-713f-422f-b2a8-f96305ba907f"},"effectiveDateTime":"2022-10-22T00:00:00+00:00","valueQuantity":{"value":9.4}}},{"fullUrl":"Observation/f86d49a0-1bd9-4faf-82d7-29f610dd20d8","resource":{"resourceType":"Observation","id":"f86d49a0-1bd9-4faf-82d7-29f610dd20d8","status":"final","code":{"coding":[{"system":"http://loinc.org","code":"49498-9"}]},"subject":{"reference":"Patient/27d10a87-713f-422f-b2a8-f96305ba907f"},"effectiveDateTime":"2022-02-07T00:00:00+00:00","valueQuantity":{"value":8.8}}},{"fullUrl":"Procedure/52e20d8c-010a-40d4-b21b-bd568967c0e2","resource":{"resourceType":"Procedure","id":"52e20d8c-010a-40d4-b21b-bd568967c0e2","status":"completed","code":{"coding":[{"system":"http://snomed.info/sct","code":"115006"}]},"subject":{"reference":"Patient/27d10a87-713f-422f-b2a8-f96305ba907f"},"performedDateTime":"2022-08-01T00:00:00+00:00"}},{"fullUrl":"Procedure/491007a7-b6fb-413a-a076-06dd7da808b4","resource":{"resourceType":"Procedure","id":"491007a7-b6fb-413a-a076-06dd7da808b4","status":"completed","code":{"coding":[{"system":"http://snomed.info/sct","code":"146005"}]},"subject":{"reference":"Patient/27d10a87-713f-422f-b2a8-f96305ba907f"},"performedDateTime":"2022-12-18T00:00:00+00:00"}},{"fullUrl":"Procedure/e3170bbe-b1a5-4fdb-b4cd-a0aeadfaaf55","resource":{"resourceType":"Procedure","id":"e3170bbe-b1a5-4fdb-b4cd-a0aeadfaaf55","status":"completed","code":{"coding":[{"system":"http://snomed.info/sct","code":"104001"}]},"subject":{"reference":"Patient/27d10a87-713f-422f-b2a8-f96305ba907f"},"performedDateTime":"2022-05-28T00:00:00+00:00"}},{"fullUrl":"MedicationStatement/38145316-8d90-4a50-bbe2-3ca357127bdd","resource":{"resourceType":"MedicationStatement","id":"38145316-8d90-4a50-bbe2-3ca357127bdd","status":"completed","medicationCodeableConcept":{"coding":[{"system":"http://www.nlm.nih.gov/research/umls/rxnorm","code":"3640"}]},"subject":{"reference":"Patient/27d10a87-713f-422f-b2a8-f96305ba907f"},"effectiveDateTime":"2022-04-07T00:00:00+00:00","dosage":[{"doseAndRate":[{"doseQuantity":{"value":1.0,"unit":"TAB","system":"http://terminology.hl7.org/CodeSystem/v3-orderableDrugForm","code":"TAB"}}]}]}},{"fullUrl":"MedicationStatement/4e9b53fb-31c4-4921-801b-d9fe15cb02a4","resource":{"resourceType":"MedicationStatement","id":"4e9b53fb-31c4-4921-801b-d9fe15cb02a4","status":"completed","medicationCodeableConcept":{"coding":[{"system":"http://www.nlm.nih.gov/research/umls/rxnorm","code":"2193"}]},"subject":{"reference":"Patient/27d10a87-713f-422f-b2a8-f96305ba907f"},"effectiveDateTime":"2022-07-18T00:00:00+00:00","dosage":[{"doseAndRate":[{"doseQuantity":{"value":1.0,"unit":"TAB","system":"http://terminology.hl7.org/CodeSystem/v3-orderableDrugForm","code":"TAB"}}]}]}},{"fullUrl":"MedicationStatement/6a61005e-a7a6-488b-a027-99e257dc3441","resource":{"resourceType":"MedicationStatement","id":"6a61005e-a7a6-488b-a027-99e257dc3441","status":"completed","medicationCodeableConcept":{"coding":[{"system":"http://www.nlm.nih.gov/research/umls/rxnorm","code":"2193"}]},"subject":{"reference":"Patient/27d10a87-713f-422f-b2a8-f96305ba907f"},"effectiveDateTime":"2022-10-14T00:00:00+00:00","dosage":[{"doseAndRate":[{"doseQuantity":{"value":2.0,"unit":"TAB","system":"http://terminology.hl7.org/CodeSystem/v3-orderableDrugForm","code":"TAB"}}]}]}},{"fullUrl":"MedicationStatement/d64e0fd6-45e0-4fdb-b8f5-a08c9a8af333","resource":{"resourceType":"MedicationStatement","id":"d64e0fd6-45e0-4fdb-b8f5-a08c9a8af333","status":"completed","medicationCodeableConcept":{"coding":[{"system":"http://www.nlm.nih.gov/research/umls/rxnorm","code":"10395"}]},"subject":{"reference":"Patient/27d10a87-713f-422f-b2a8-f96305ba907f"},"effectiveDateTime":"2022-01-26T00:00:00+00:00","dosage":[{"doseAndRate":[{"doseQuantity":{"value":2.0,"unit":"TAB","system":"http://terminology.hl7.org/CodeSystem/v3-orderableDrugForm","code":"TAB"}}]}]}},{"fullUrl":"Encounter/4ba64647-f95f-4830-9b8a-539a9da510e9","resource":{"resourceType":"Encounter","id":"4ba64647-f95f-4830-9b8a-539a9da510e9","status":"finished","class":{"system":"http://terminology.hl7.org/CodeSystem/v3-ActCode","code":"NONAC","display":"inpatient non-acute"},"type":[{"coding":[{"system":"http://terminology.hl7.org/CodeSystem/encounter-type","code":"BD/BM-clin"}]}],"subject":{"reference":"Patient/27d10a87-713f-422f-b2a8-f96305ba907f"},"period":{"start":"2022-02-01T00:00:00+00:00","end":"2022-02-10T00:00:00+00:00"}}},{"fullUrl":"Encounter/eb4a1d57-3060-40e4-ac5b-4634548fde09","resource":{"resourceType":"Encounter","id":"eb4a1d57-3060-40e4-ac5b-4634548fde09","status":"finished","class":{"system":"http://terminology.hl7.org/CodeSystem/v3-ActCode","code":"NONAC","display":"inpatient non-acute"},"type":[{"coding":[{"system":"http://terminology.hl7.org/CodeSystem/encounter-type","code":"BD/BM-clin"}]}],"subject":{"reference":"Patient/27d10a87-713f-422f-b2a8-f96305ba907f"},"period":{"start":"2022-06-25T00:00:00+00:00","end":"2022-06-28T00:00:00+00:00"}}},{"fullUrl":"Encounter/f1098769-cb72-49d9-a2a6-5265cb4a29cb","resource":{"resourceType":"Encounter","id":"f1098769-cb72-49d9-a2a6-5265cb4a29cb","status":"finished","class":{"system":"http://terminology.hl7.org/CodeSystem/v3-ActCode","code":"OBSENC","display":"observation encounter"},"type":[{"coding":[{"system":"http://terminology.hl7.org/CodeSystem/encounter-type","code":"CCS60"}]}],"subject":{"reference":"Patient/27d10a87-713f-422f-b2a8-f96305ba907f"},"period":{"start":"2022-11-11T00:00:00+00:00","end":"2022-11-11T00:00:00+00:00"}}},{"fullUrl":"Patient/6e652445-9e4e-436b-ab3b-6694cc5469ed","resource":{"resourceType":"Patient","id":"6e652445-9e4e-436b-ab3b-6694cc5469ed","identifier":[{"type":{"coding":[{"system":"http://terminology.hl7.org/CodeSystem/v2-0203","code":"MR"}]},"system":"urn:fhirgen:mrn","value":"067-83-1170"}],"name":[{"family":"Johnson","given":["Christine"]}],"gender":"female","birthDate":"1996-09-05","address":[{"line":["873 Raymond Neck"],"city":"Harrisstad","state":"North Dakota"}]}},{"fullUrl":"Observation/7fca7a92-aaac-42c5-be08-f1304355521f","resource":{"resourceType":"Observation","id":"7fca7a92-aaac-42c5-be08-f1304355521f","status":"final","code":{"coding":[{"system":"http://loinc.org","code":"46203-6"}]},"subject":{"reference":"Patient/6e652445-9e4e-436b-ab3b-6694cc5469ed"},"effectiveDateTime":"2022-03-31T00:00:00+00:00","valueRatio":{"numerator":{"value":1.0},"denominator":{"value":32.0}}}},{"fullUrl":"Observation/ac831ffd-0fb5-4aa4-998c-44e0165c8f39","resource":{"resourceType":"Observation","id":"ac831ffd-0fb5-4aa4-998c-44e0165c8f39","status":"final","code":{"coding":[{"system":"http://loinc.org","code":"50695-6"}]},"subject":{"reference":"Patient/6e652445-9e4e-436b-ab3b-6694cc5469ed"},"effectiveDateTime":"2022-08-19T00:00:00+00:00","valueRatio":{"numerator":{"value":1.0},"denominator":{"value":64.0}}}},{"fullUrl":"Condition/53598ab4-7614-4bd6-a859-a90c3ab5254d","resource":{"resourceType":"Condition","id":"53598ab4-7614-4bd6-a859-a90c3ab5254d","code":{"coding":[{"system":"http://snomed.info/sct","code":"386661006"}]},"subject":{"reference":"Patient/6e652445-9e4e-436b-ab3b-6694cc5469ed"},"onsetDateTime":"2022-05-22T00:00:00+00:00"}},{"fullUrl":"Condition/be8498d7-d804-450e-8eb7-367b257437d7","resource":{"resourceType":"Condition","id":"be8498d7-d804-450e-8eb7-367b257437d7","code":{"coding":[{"system":"http://snomed.info/sct","code":"418290006"}]},"subject":{"reference":"Patient/6e652445-9e4e-436b-ab3b-6694cc5469ed"},"onsetDateTime":"2022-04-17T00:00:00+00:00"}},{"fullUrl":"Condition/01f59548-bdf9-4591-b015-ae8cb420a60b","resource":{"resourceType":"Condition","id":"01f59548-bdf9-4591-b015-ae8cb420a60b","code":{"coding":[{"system":"http://snomed.info/sct","code":"736686006"}]},"subject":{"reference":"Patient/6e652445-9e4e-436b-ab3b-6694cc5469ed"},"onsetDateTime":"2022-10-14T00:00:00+00:00"}},{"fullUrl":"Condition/a499601d-65ca-40fa-8760-d09f42c21161","resource":{"resourceType":"Condition","id":"a499601d-65ca-40fa-8760-d09f42c21161","code":{"coding":[{"system":"http://snomed.info/sct","code":"736686006"}]},"subject":{"reference":"Patient/6e652445-9e4e-436b-ab3b-6694cc5469ed"},"onsetDateTime":"2022-09-19T00:00:00+00:00"}},{"fullUrl":"Condition/f759da7e-a175-46ed-8c86-a1591aa95381","resource":{"resourceType":"Condition","id":"f759da7e-a175-46ed-8c86-a1591aa95381","code":{"coding":[{"system":"http://snomed.info/sct","code":"418290006"}]},"subject":{"reference":"Patient/6e652445-9e4e-436b-ab3b-6694cc5469ed"},"onsetDateTime":"2022-07-20T00:00:00+00:00"}},{"fullUrl":"Condition/b257f18f-5f2d-47a4-b3ce-92c92001a52f","resource":{"resourceType":"Condition","id":"b257f18f-5f2d-47a4-b3ce-92c92001a52f","code":{"coding":[{"system":"http://snomed.info/sct","code":"271807003"}]},"subject":{"reference":"Patient/6e652445-9e4e-436b-ab3b-6694cc5469ed"},"onsetDateTime":"2022-10-31T00:00:00+00:00"}},{"fullUrl":"Condition/4bbd4bf2-5dab-4b8a-8299-1a8b02022fe1","resource":{"resourceType":"Condition","id":"4bbd4bf2-5dab-4b8a-8299-1a8b02022fe1","code":{"coding":[{"system":"http://snomed.info/sct","code":"3951002"}]},"subject":{"reference":"Patient/6e652445-9e4e-436b-ab3b-6694cc5469ed"},"onsetDateTime":"2022-06-26T00:00:00+00:00"}},{"fullUrl":"Condition/96fdf952-d11a-40d8-a943-5278e140d458","resource":{"resourceType":"Condition","id":"96fdf952-d11a-40d8-a943-5278e140d458","code":{"coding":[{"system":"http://snomed.info/sct","code":"736686006"}]},"subject":{"reference":"Patient/6e652445-9e4e-436b-ab3b-6694cc5469ed"},"onsetDateTime":"2022-05-13T00:00:00+00:00"}},{"fullUrl":"Observation/bfe6cfab-5bb3-4a71-b4be-b302de7cec3d","resource":{"resourceType":"Observation","id":"bfe6cfab-5bb3-4a71-b4be-b302de7cec3d","status":"final","code":{"coding":[{"system":"http://loinc.org","code":"6690-2"}]},"subject":{"reference":"Patient/6e652445-9e4e-436b-ab3b-6694cc5469ed"},"effectiveDateTime":"2022-05-26T00:00:00+00:00","valueQuantity":{"value":4.0}}},{"fullUrl":"Observation/a755588b-c35a-4327-a199-0a1a38410d19","resource":{"resourceType":"Observation","id":"a755588b-c35a-4327-a199-0a1a38410d19","status":"final","code":{"coding":[{"system":"http://loinc.org","code":"49498-9"}]},"subject":{"reference":"Patient/6e652445-9e4e-436b-ab3b-6694cc5469ed"},"effectiveDateTime":"2022-01-02T00:00:00+00:00","valueQuantity":{"value":9.6}}},{"fullUrl":"Procedure/e86ae0c9-da50-4ad9-9e18-84ff53b0e99e","resource":{"resourceType":"Procedure","id":"e86ae0c9-da50-4ad9-9e18-84ff53b0e99e","status":"completed","code":{"coding":[{"system":"http://snomed.info/sct","code":"115006"}]},"subject":{"reference":"Patient/6e652445-9e4e-436b-ab3b-6694cc5469ed"},"performedDateTime":"2022-03-03T00:00:00+00:00"}},{"fullUrl":"Procedure/b2755af5-3aae-4b7e-9122-0eda5af77297","resource":{"resourceType":"Procedure","id":"b2755af5-3aae-4b7e-9122-0eda5af77297","status":"completed","code":{"coding":[{"system":"http://snomed.info/sct","code":"115006"}]},"subject":{"reference":"Patient/6e652445-9e4e-436b-ab3b-6694cc5469ed"},"performedDateTime":"2022-10-09T00:00:00+00:00"}},{"fullUrl":"Procedure/d278abab-b1f2-4d6c-80db-553b01c3e68f","resource":{"resourceType":"Procedure","id":"d278abab-b1f2-4d6c-80db-553b01c3e68f","status":"completed","code":{"coding":[{"system":"http://snomed.info/sct","code":"146005"}]},"subject":{"reference":"Patient/6e652445-9e4e-436b-ab3b-6694cc5469ed"},"performedDateTime":"2022-07-22T00:00:00+00:00"}},{"fullUrl":"MedicationStatement/e8027667-c80b-48bf-8a63-848df99b2586","resource":{"resourceType":"MedicationStatement","id":"e8027667-c80b-48bf-8a63-848df99b2586","status":"completed","medicationCodeableConcept":{"coding":[{"system":"http://www.nlm.nih.gov/research/umls/rxnorm","code":"18631"}]},"subject":{"reference":"Patient/6e652445-9e4e-436b-ab3b-6694cc5469ed"},"effectiveDateTime":"2022-11-19T00:00:00+00:00","dosage":[{"doseAndRate":[{"doseQuantity":{"value":1.0,"unit":"TAB","system":"http://terminology.hl7.org/CodeSystem/v3-orderableDrugForm","code":"TAB"}}]}]}},{"fullUrl":"Encounter/2e816560-5077-49fe-a8bc-23ba3bd765ce","resource":{"resourceType":"Encounter","id":"2e816560-5077-49fe-a8bc-23ba3bd765ce","status":"finished","class":{"system":"http://terminology.hl7.org/CodeSystem/v3-ActCode","code":"SS","display":"short-stay"},"type":[{"coding":[{"system":"http://terminology.hl7.org/CodeSystem/encounter-type","code":"CCS60"}]}],"subject":{"reference":"Patient/6e652445-9e4e-436b-ab3b-6694cc5469ed"},"period":{"start":"2022-02-14T00:00:00+00:00","end":"2022-02-21T00:00:00+00:00"}}},{"fullUrl":"Encounter/fd93b502-5bea-4eec-bcf3-4a72680ebca2","resource":{"resourceType":"Encounter","id":"fd93b502-5bea-4eec-bcf3-4a72680ebca2","status":"finished","class":{"system":"http://terminology.hl7.org/CodeSystem/v3-ActCode","code":"IMP","display":"inpatient encounter"},"type":[{"coding":[{"system":"http://terminology.hl7.org/CodeSystem/encounter-type","code":"BD/BM-clin"}]}],"subject":{"reference":"Patient/6e652445-9e4e-436b-ab3b-6694cc5469ed"},"period":{"start":"2022-11-08T00:00:00+00:00","end":"2022-11-13T00:00:00+00:00"}}},{"fullUrl":"Encounter/ad8431fc-d211-4d16-8f1a-cf74157fb846","resource":{"resourceType":"Encounter","id":"ad8431fc-d211-4d16-8f1a-cf74157fb846","status":"finished","class":{"system":"http://terminology.hl7.org/CodeSystem/v3-ActCode","code":"PRENC","display":"pre-admission"},"type":[{"coding":[{"system":"http://terminology.hl7.org/CodeSystem/encounter-type","code":"CCS60"}]}],"subject":{"reference":"Patient/6e652445-9e4e-436b-ab3b-6694cc5469ed"},"period":{"start":"2022-10-11T00:00:00+00:00","end":"2022-10-16T00:00:00+00:00"}}},{"fullUrl":"Patient/5ebdda70-824c-4df7-b1fa-ce7e456757f2","resource":{"resourceType":"Patient","id":"5ebdda70-824c-4df7-b1fa-ce7e456757f2","identifier":[{"type":{"coding":[{"system":"http://terminology.hl7.org/CodeSystem/v2-0203","code":"MR"}]},"system":"urn:fhirgen:mrn","value":"655-22-4712"}],"name":[{"family":"Maldonado","given":["Elizabeth"]}],"gender":"female","birthDate":"1979-12-26","address":[{"line":["7096 Smith Bridge Suite 868"],"city":"West Jacqueline","state":"Minnesota"}]}},{"fullUrl":"Observation/ce43a24a-23ad-4e08-88dc-e500e6f41e87","resource":{"resourceType":"Observation","id":"ce43a24a-23ad-4e08-88dc-e500e6f41e87","status":"final","code":{"coding":[{"system":"http://loinc.org","code":"47476-7"}]},"subject":{"reference":"Patient/5ebdda70-824c-4df7-b1fa-ce7e456757f2"},"effectiveDateTime":"2022-10-16T00:00:00+00:00","valueRatio":{"numerator":{"value":1.0},"denominator":{"value":64.0}}}},{"fullUrl":"Observation/0ccea14e-e9d6-428e-bc2a-36237019f889","resource":{"resourceType":"Observation","id":"0ccea14e-e9d6-428e-bc2a-36237019f889","status":"final","code":{"coding":[{"system":"http://loinc.org","code":"46203-6"}]},"subject":{"reference":"Patient/5ebdda70-824c-4df7-b1fa-ce7e456757f2"},"effectiveDateTime":"2022-06-21T00:00:00+00:00","valueRatio":{"numerator":{"value":1.0},"denominator":{"value":4.0}}}},{"fullUrl":"Condition/c1cdebd9-4a46-49fc-9afd-048c5eb660b4","resource":{"resourceType":"Condition","id":"c1cdebd9-4a46-49fc-9afd-048c5eb660b4","code":{"coding":[{"system":"http://snomed.info/sct","code":"418290006"}]},"subject":{"reference":"Patient/5ebdda70-824c-4df7-b1fa-ce7e456757f2"},"onsetDateTime":"2022-07-09T00:00:00+00:00"}},{"fullUrl":"Condition/0b4b771e-fc7a-446b-a32e-dfb17278f7ec","resource":{"resourceType":"Condition","id":"0b4b771e-fc7a-446b-a32e-dfb17278f7ec","code":{"coding":[{"system":"http://snomed.info/sct","code":"30746006"}]},"subject":{"reference":"Patient/5ebdda70-824c-4df7-b1fa-ce7e456757f2"},"onsetDateTime":"2022-02-04T00:00:00+00:00"}},{"fullUrl":"Condition/dd6addd5-2cee-4722-9dfc-f10a806d889c","resource":{"resourceType":"Condition","id":"dd6addd5-2cee-4722-9dfc-f10a806d889c","code":{"coding":[{"system":"http://snomed.info/sct","code":"18165001"}]},"subject":{"reference":"Patient/5ebdda70-824c-4df7-b1fa-ce7e456757f2"},"onsetDateTime":"2022-09-23T00:00:00+00:00"}},{"fullUrl":"Condition/4cf7493f-ba41-484a-812e-5b24782ffea8","resource":{"resourceType":"Condition","id":"4cf7493f-ba41-484a-812e-5b24782ffea8","code":{"coding":[{"system":"http://snomed.info/sct","code":"21522001"}]},"subject":{"reference":"Patient/5ebdda70-824c-4df7-b1fa-ce7e456757f2"},"onsetDateTime":"2022-06-13T00:00:00+00:00"}},{"fullUrl":"Observation/4155d6c0-3309-4e45-b43d-64d032ae6c27","resource":{"resourceType":"Observation","id":"4155d6c0-3309-4e45-b43d-64d032ae6c27","status":"final","code":{"coding":[{"system":"http://loinc.org","code":"26464-8"}]},"subject":{"reference":"Patient/5ebdda70-824c-4df7-b1fa-ce7e456757f2"},"effectiveDateTime":"2022-12-27T00:00:00+00:00","valueQuantity":{"value":6.9}}},{"fullUrl":"Observation/d7bb2b1c-47a0-40cb-82b5-f25f7ee1f84b","resource":{"resourceType":"Observation","id":"d7bb2b1c-47a0-40cb-82b5-f25f7ee1f84b","status":"final","code":{"coding":[{"system":"http://loinc.org","code":"49498-9"}]},"subject":{"reference":"Patient/5ebdda70-824c-4df7-b1fa-ce7e456757f2"},"effectiveDateTime":"2022-06-23T00:00:00+00:00","valueQuantity":{"value":6.6}}},{"fullUrl":"Observation/f2b6ba6d-ca1a-4e49-aa01-186354ec8d15","resource":{"resourceType":"Observation","id":"f2b6ba6d-ca1a-4e49-aa01-186354ec8d15","status":"final","code":{"coding":[{"system":"http://loinc.org","code":"6690-2"}]},"subject":{"reference":"Patient/5ebdda70-824c-4df7-b1fa-ce7e456757f2"},"effectiveDateTime":"2022-01-19T00:00:00+00:00","valueQuantity":{"value":4.3}}},{"fullUrl":"Procedure/63ce4d79-7146-4ceb-a4f2-ac998200f728","resource":{"resourceType":"Procedure","id":"63ce4d79-7146-4ceb-a4f2-ac998200f728","status":"completed","code":{"coding":[{"system":"http://snomed.info/sct","code":"189009"}]},"subject":{"reference":"Patient/5ebdda70-824c-4df7-b1fa-ce7e456757f2"},"performedDateTime":"2022-09-29T00:00:00+00:00"}},{"fullUrl":"Procedure/729c066f-93df-4210-a564-8381b4c918c1","resource":{"resourceType":"Procedure","id":"729c066f-93df-4210-a564-8381b4c918c1","status":"completed","code":{"coding":[{"system":"http://snomed.info/sct","code":"104001"}]},"subject":{"reference":"Patient/5ebdda70-824c-4df7-b1fa-ce7e456757f2"},"performedDateTime":"2022-11-12T00:00:00+00:00"}},{"fullUrl":"Procedure/0006591a-5cdd-4fd5-bfc1-dc2ce29eda2a","resource":{"resourceType":"Procedure","id":"0006591a-5cdd-4fd5-bfc1-dc2ce29eda2a","status":"completed","code":{"coding":[{"system":"http://snomed.info/sct","code":"146005"}]},"subject":{"reference":"Patient/5ebdda70-824c-4df7-b1fa-ce7e456757f2"},"performedDateTime":"2022-11-02T00:00:00+00:00"}},{"fullUrl":"MedicationStatement/a19d37b5-d493-4da8-9704-a70df9772236","resource":{"resourceType":"MedicationStatement","id":"a19d37b5-d493-4da8-9704-a70df9772236","status":"completed","medicationCodeableConcept":{"coding":[{"system":"http://www.nlm.nih.gov/research/umls/rxnorm","code":"18631"}]},"subject":{"reference":"Patient/5ebdda70-824c-4df7-b1fa-ce7e456757f2"},"effectiveDateTime":"2022-08-07T00:00:00+00:00","dosage":[{"doseAndRate":[{"doseQuantity":{"value":1.0,"unit":"TAB","system":"http://terminology.hl7.org/CodeSystem/v3-orderableDrugForm","code":"TAB"}}]}]}},{"fullUrl":"MedicationStatement/f9b9e6ec-6371-45ed-8022-0302484b542a","resource":{"resourceType":"MedicationStatement","id":"f9b9e6ec-6371-45ed-8022-0302484b542a","status":"completed","medicationCodeableConcept":{"coding":[{"system":"http://www.nlm.nih.gov/research/umls/rxnorm","code":"2193"}]},"subject":{"reference":"Patient/5ebdda70-824c-4df7-b1fa-ce7e456757f2"},"effectiveDateTime":"2022-12-20T00:00:00+00:00","dosage":[{"doseAndRate":[{"doseQuantity":{"value":2.0,"unit":"TAB","system":"http://terminology.hl7.org/CodeSystem/v3-orderableDrugForm","code":"TAB"}}]}]}},{"fullUrl":"MedicationStatement/b983990b-c4ee-4743-b600-acc7db201ff6","resource":{"resourceType":"MedicationStatement","id":"b983990b-c4ee-4743-b600-acc7db201ff6","status":"completed","medicationCodeableConcept":{"coding":[{"system":"http://www.nlm.nih.gov/research/umls/rxnorm","code":"7980"}]},"subject":{"reference":"Patient/5ebdda70-824c-4df7-b1fa-ce7e456757f2"},"effectiveDateTime":"2022-04-24T00:00:00+00:00","dosage":[{"doseAndRate":[{"doseQuantity":{"value":2.0,"unit":"TAB","system":"http://terminology.hl7.org/CodeSystem/v3-orderableDrugForm","code":"TAB"}}]}]}},{"fullUrl":"MedicationStatement/82d48826-76e5-49e2-b4d8-7ded2ba7eaa8","resource":{"resourceType":"MedicationStatement","id":"82d48826-76e5-49e2-b4d8-7ded2ba7eaa8","status":"completed","medicationCodeableConcept":{"coding":[{"system":"http://www.nlm.nih.gov/research/umls/rxnorm","code":"10395"}]},"subject":{"reference":"Patient/5ebdda70-824c-4df7-b1fa-ce7e456757f2"},"effectiveDateTime":"2022-09-05T00:00:00+00:00","dosage":[{"doseAndRate":[{"doseQuantity":{"value":1.0,"unit":"TAB","system":"http://terminology.hl7.org/CodeSystem/v3-orderableDrugForm","code":"TAB"}}]}]}},{"fullUrl":"MedicationStatement/a23ea850-5ac8-4bf3-90e9-f0244dc6fc3a","resource":{"resourceType":"MedicationStatement","id":"a23ea850-5ac8-4bf3-90e9-f0244dc6fc3a","status":"completed","medicationCodeableConcept":{"coding":[{"system":"http://www.nlm.nih.gov/research/umls/rxnorm","code":"8698"}]},"subject":{"reference":"Patient/5ebdda70-824c-4df7-b1fa-ce7e456757f2"},"effectiveDateTime":"2022-10-31T00:00:00+00:00","dosage":[{"doseAndRate":[{"doseQuantity":{"value":2.0,"unit":"TAB","system":"http://terminology.hl7.org/CodeSystem/v3-orderableDrugForm","code":"TAB"}}]}]}},{"fullUrl":"MedicationStatement/5321d541-0002-4ea8-8b2c-aad2472966a4","resource":{"resourceType":"MedicationStatement","id":"5321d541-0002-4ea8-8b2c-aad2472966a4","status":"completed","medicationCodeableConcept":{"coding":[{"system":"http://www.nlm.nih.gov/research/umls/rxnorm","code":"7980"}]},"subject":{"reference":"Patient/5ebdda70-824c-4df7-b1fa-ce7e456757f2"},"effectiveDateTime":"2022-02-04T00:00:00+00:00","dosage":[{"doseAndRate":[{"doseQuantity":{"value":1.0,"unit":"TAB","system":"http://terminology.hl7.org/CodeSystem/v3-orderableDrugForm","code":"TAB"}}]}]}},{"fullUrl":"MedicationStatement/26488985-9b23-4073-85e1-c1f7b59fd840","resource":{"resourceType":"MedicationStatement","id":"26488985-9b23-4073-85e1-c1f7b59fd840","status":"completed","medicationCodeableConcept":{"coding":[{"system":"http://www.nlm.nih.gov/research/umls/rxnorm","code":"8698"}]},"subject":{"reference":"Patient/5ebdda70-824c-4df7-b1fa-ce7e456757f2"},"effectiveDateTime":"2022-03-31T00:00:00+00:00","dosage":[{"doseAndRate":[{"doseQuantity":{"value":1.0,"unit":"TAB","system":"http://terminology.hl7.org/CodeSystem/v3-orderableDrugForm","code":"TAB"}}]}]}},{"fullUrl":"Encounter/d09644b9-ee7b-4411-bbc5-6f510d04afca","resource":{"resourceType":"Encounter","id":"d09644b9-ee7b-4411-bbc5-6f510d04afca","status":"finished","class":{"system":"http://terminology.hl7.org/CodeSystem/v3-ActCode","code":"HH","display":"home health"},"type":[{"coding":[{"system":"http://terminology.hl7.org/CodeSystem/encounter-type","code":"ADMS"}]}],"subject":{"reference":"Patient/5ebdda70-824c-4df7-b1fa-ce7e456757f2"},"period":{"start":"2022-02-17T00:00:00+00:00","end":"2022-02-26T00:00:00+00:00"}}},{"fullUrl":"Encounter/708dc156-93a7-4c87-8390-ce8873b8aa93","resource":{"resourceType":"Encounter","id":"708dc156-93a7-4c87-8390-ce8873b8aa93","status":"finished","class":{"system":"http://terminology.hl7.org/CodeSystem/v3-ActCode","code":"OBSENC","display":"observation encounter"},"type":[{"coding":[{"system":"http://terminology.hl7.org/CodeSystem/encounter-type","code":"OKI"}]}],"subject":{"reference":"Patient/5ebdda70-824c-4df7-b1fa-ce7e456757f2"},"period":{"start":"2022-05-21T00:00:00+00:00","end":"2022-05-22T00:00:00+00:00"}}},{"fullUrl":"Encounter/d4b05dde-ba04-44dc-b9f7-651343125b83","resource":{"resourceType":"Encounter","id":"d4b05dde-ba04-44dc-b9f7-651343125b83","status":"finished","class":{"system":"http://terminology.hl7.org/CodeSystem/v3-ActCode","code":"HH","display":"home health"},"type":[{"coding":[{"system":"http://terminology.hl7.org/CodeSystem/encounter-type","code":"BD/BM-clin"}]}],"subject":{"reference":"Patient/5ebdda70-824c-4df7-b1fa-ce7e456757f2"},"period":{"start":"2022-08-07T00:00:00+00:00","end":"2022-08-15T00:00:00+00:00"}}},{"fullUrl":"Patient/4895bad5-6796-4553-88f2-f8aecbb2d94f","resource":{"resourceType":"Patient","id":"4895bad5-6796-4553-88f2-f8aecbb2d94f","identifier":[{"type":{"coding":[{"system":"http://terminology.hl7.org/CodeSystem/v2-0203","code":"MR"}]},"system":"urn:fhirgen:mrn","value":"740-31-8539"}],"name":[{"family":"Rodriguez","given":["Timothy"]}],"gender":"other","birthDate":"1981-08-09","address":[{"line":["4088 Myers Ville"],"city":"North Brittney","state":"Michigan"}]}},{"fullUrl":"Observation/b663df43-75e7-4496-8cab-51f17c0f5066","resource":{"resourceType":"Observation","id":"b663df43-75e7-4496-8cab-51f17c0f5066","status":"final","code":{"coding":[{"system":"http://loinc.org","code":"34382-2"}]},"subject":{"reference":"Patient/4895bad5-6796-4553-88f2-f8aecbb2d94f"},"effectiveDateTime":"2022-01-19T00:00:00+00:00","valueRatio":{"numerator":{"value":1.0},"denominator":{"value":4.0}}}},{"fullUrl":"Observation/1722d859-1324-4f4b-b3b0-dac9d4fc45c9","resource":{"resourceType":"Observation","id":"1722d859-1324-4f4b-b3b0-dac9d4fc45c9","status":"final","code":{"coding":[{"system":"http://loinc.org","code":"31147-2"}]},"subject":{"reference":"Patient/4895bad5-6796-4553-88f2-f8aecbb2d94f"},"effectiveDateTime":"2022-02-19T00:00:00+00:00","valueRatio":{"numerator":{"value":1.0},"denominator":{"value":4.0}}}},{"fullUrl":"Condition/9e0fe614-d0e0-46ec-9fd5-ce18b7953790","resource":{"resourceType":"Condition","id":"9e0fe614-d0e0-46ec-9fd5-ce18b7953790","code":{"coding":[{"system":"http://snomed.info/sct","code":"31070006"}]},"subject":{"reference":"Patient/4895bad5-6796-4553-88f2-f8aecbb2d94f"},"onsetDateTime":"2022-12-01T00:00:00+00:00"}},{"fullUrl":"Condition/9398a293-19df-4989-a614-2082d89097d5","resource":{"resourceType":"Condition","id":"9398a293-19df-4989-a614-2082d89097d5","code":{"coding":[{"system":"http://snomed.info/sct","code":"198199009"}]},"subject":{"reference":"Patient/4895bad5-6796-4553-88f2-f8aecbb2d94f"},"onsetDateTime":"2022-04-23T00:00:00+00:00"}},{"fullUrl":"Condition/d3838285-7040-4b72-a856-2d2c8295b431","resource":{"resourceType":"Condition","id":"d3838285-7040-4b72-a856-2d2c8295b431","code":{"coding":[{"system":"http://snomed.info/sct","code":"79342006"}]},"subject":{"reference":"Patient/4895bad5-6796-4553-88f2-f8aecbb2d94f"},"onsetDateTime":"2022-10-24T00:00:00+00:00"}},{"fullUrl":"Condition/035b0c51-4c88-4a87-a341-e0ed2eaf2f37","resource":{"resourceType":"Condition","id":"035b0c51-4c88-4a87-a341-e0ed2eaf2f37","code":{"coding":[{"system":"http://snomed.info/sct","code":"271939006"}]},"subject":{"reference":"Patient/4895bad5-6796-4553-88f2-f8aecbb2d94f"},"onsetDateTime":"2022-12-13T00:00:00+00:00"}},{"fullUrl":"Condition/0bca3866-585d-47e3-9ac6-7d531b3dd23d","resource":{"resourceType":"Condition","id":"0bca3866-585d-47e3-9ac6-7d531b3dd23d","code":{"coding":[{"system":"http://snomed.info/sct","code":"418290006"}]},"subject":{"reference":"Patient/4895bad5-6796-4553-88f2-f8aecbb2d94f"},"onsetDateTime":"2022-01-05T00:00:00+00:00"}},{"fullUrl":"Observation/5befe89d-9610-4b52-84f9-b45b8b29f62e","resource":{"resourceType":"Observation","id":"5befe89d-9610-4b52-84f9-b45b8b29f62e","status":"final","code":{"coding":[{"system":"http://www.ama-assn.org/go/cpt","code":"85048"}]},"subject":{"reference":"Patient/4895bad5-6796-4553-88f2-f8aecbb2d94f"},"effectiveDateTime":"2022-08-23T00:00:00+00:00","valueQuantity":{"value":10.4}}},{"fullUrl":"Observation/a4120da4-ae02-4305-9dbc-46136ede4cbf","resource":{"resourceType":"Observation","id":"a4120da4-ae02-4305-9dbc-46136ede4cbf","status":"final","code":{"coding":[{"system":"http://loinc.org","code":"26464-8"}]},"subject":{"reference":"Patient/4895bad5-6796-4553-88f2-f8aecbb2d94f"},"effectiveDateTime":"2022-05-16T00:00:00+00:00","valueQuantity":{"value":9.6}}},{"fullUrl":"Observation/c24c3393-9b25-4987-a107-a78c242d4ad1","resource":{"resourceType":"Observation","id":"c24c3393-9b25-4987-a107-a78c242d4ad1","status":"final","code":{"coding":[{"system":"http://loinc.org","code":"49498-9"}]},"subject":{"reference":"Patient/4895bad5-6796-4553-88f2-f8aecbb2d94f"},"effectiveDateTime":"2022-06-04T00:00:00+00:00","valueQuantity":{"value":5.9}}},{"fullUrl":"Procedure/3a775363-489b-4160-b51d-6812f4d88ae6","resource":{"resourceType":"Procedure","id":"3a775363-489b-4160-b51d-6812f4d88ae6","status":"completed","code":{"coding":[{"system":"http://snomed.info/sct","code":"104001"}]},"subject":{"reference":"Patient/4895bad5-6796-4553-88f2-f8aecbb2d94f"},"performedDateTime":"2022-03-03T00:00:00+00:00"}},{"fullUrl":"Procedure/6f6bdd20-b1c1-44db-be1e-067569eafda3","resource":{"resourceType":"Procedure","id":"6f6bdd20-b1c1-44db-be1e-067569eafda3","status":"completed","code":{"coding":[{"system":"http://snomed.info/sct","code":"647000"}]},"subject":{"reference":"Patient/4895bad5-6796-4553-88f2-f8aecbb2d94f"},"performedDateTime":"2022-04-05T00:00:00+00:00"}},{"fullUrl":"Procedure/8772abb0-97e7-4b94-a5ad-ffb780970e8e","resource":{"resourceType":"Procedure","id":"8772abb0-97e7-4b94-a5ad-ffb780970e8e","status":"completed","code":{"coding":[{"system":"http://snomed.info/sct","code":"115006"}]},"subject":{"reference":"Patient/4895bad5-6796-4553-88f2-f8aecbb2d94f"},"performedDateTime":"2022-11-02T00:00:00+00:00"}},{"fullUrl":"MedicationStatement/a4214554-78d6-486b-ac88-8094a5da97e8","resource":{"resourceType":"MedicationStatement","id":"a4214554-78d6-486b-ac88-8094a5da97e8","status":"completed","medicationCodeableConcept":{"coding":[{"system":"http://www.nlm.nih.gov/research/umls/rxnorm","code":"7980"}]},"subject":{"reference":"Patient/4895bad5-6796-4553-88f2-f8aecbb2d94f"},"effectiveDateTime":"2022-10-07T00:00:00+00:00","dosage":[{"doseAndRate":[{"doseQuantity":{"value":1.0,"unit":"TAB","system":"http://terminology.hl7.org/CodeSystem/v3-orderableDrugForm","code":"TAB"}}]}]}},{"fullUrl":"MedicationStatement/09d37e05-a15c-497e-9031-af971506ad01","resource":{"resourceType":"MedicationStatement","id":"09d37e05-a15c-497e-9031-af971506ad01","status":"completed","medicationCodeableConcept":{"coding":[{"system":"http://www.nlm.nih.gov/research/umls/rxnorm","code":"8698"}]},"subject":{"reference":"Patient/4895bad5-6796-4553-88f2-f8aecbb2d94f"},"effectiveDateTime":"2022-03-06T00:00:00+00:00","dosage":[{"doseAndRate":[{"doseQuantity":{"value":1.0,"unit":"TAB","system":"http://terminology.hl7.org/CodeSystem/v3-orderableDrugForm","code":"TAB"}}]}]}},{"fullUrl":"MedicationStatement/74a3bedd-0d87-4ae0-b6ea-e4565f7f18af","resource":{"resourceType":"MedicationStatement","id":"74a3bedd-0d87-4ae0-b6ea-e4565f7f18af","status":"completed","medicationCodeableConcept":{"coding":[{"system":"http://www.nlm.nih.gov/research/umls/rxnorm","code":"2193"}]},"subject":{"reference":"Patient/4895bad5-6796-4553-88f2-f8aecbb2d94f"},"effectiveDateTime":"2022-04-28T00:00:00+00:00","dosage":[{"doseAndRate":[{"doseQuantity":{"value":2.0,"unit":"TAB","system":"http://terminology.hl7.org/CodeSystem/v3-orderableDrugForm","code":"TAB"}}]}]}},{"fullUrl":"MedicationStatement/86d9ae03-bb1f-4973-9db4-0131dc0bd139","resource":{"resourceType":"MedicationStatement","id":"86d9ae03-bb1f-4973-9db4-0131dc0bd139","status":"completed","medicationCodeableConcept":{"coding":[{"system":"http://www.nlm.nih.gov/research/umls/rxnorm","code":"18631"}]},"subject":{"reference":"Patient/4895bad5-6796-4553-88f2-f8aecbb2d94f"},"effectiveDateTime":"2022-05-21T00:00:00+00:00","dosage":[{"doseAndRate":[{"doseQuantity":{"value":2.0,"unit":"TAB","system":"http://terminology.hl7.org/CodeSystem/v3-orderableDrugForm","code":"TAB"}}]}]}},{"fullUrl":"MedicationStatement/32f8bcfa-94c4-4792-91e2-9cbed53c164d","resource":{"resourceType":"MedicationStatement","id":"32f8bcfa-94c4-4792-91e2-9cbed53c164d","status":"completed","medicationCodeableConcept":{"coding":[{"system":"http://www.nlm.nih.gov/research/umls/rxnorm","code":"2193"}]},"subject":{"reference":"Patient/4895bad5-6796-4553-88f2-f8aecbb2d94f"},"effectiveDateTime":"2022-02-16T00:00:00+00:00","dosage":[{"doseAndRate":[{"doseQuantity":{"value":1.0,"unit":"TAB","system":"http://terminology.hl7.org/CodeSystem/v3-orderableDrugForm","code":"TAB"}}]}]}},{"fullUrl":"MedicationStatement/1e9fb319-25bc-4a57-ac1c-31023e8940ad","resource":{"resourceType":"MedicationStatement","id":"1e9fb319-25bc-4a57-ac1c-31023e8940ad","status":"completed","medicationCodeableConcept":{"coding":[{"system":"http://www.nlm.nih.gov/research/umls/rxnorm","code":"18631"}]},"subject":{"reference":"Patient/4895bad5-6796-4553-88f2-f8aecbb2d94f"},"effectiveDateTime":"2022-04-06T00:00:00+00:00","dosage":[{"doseAndRate":[{"doseQuantity":{"value":1.0,"unit":"TAB","system":"http://terminology.hl7.org/CodeSystem/v3-orderableDrugForm","code":"TAB"}}]}]}},{"fullUrl":"MedicationStatement/217354aa-9ab0-4487-8d9d-0d894106b69a","resource":{"resourceType":"MedicationStatement","id":"217354aa-9ab0-4487-8d9d-0d894106b69a","status":"completed","medicationCodeableConcept":{"coding":[{"system":"http://www.nlm.nih.gov/research/umls/rxnorm","code":"3640"}]},"subject":{"reference":"Patient/4895bad5-6796-4553-88f2-f8aecbb2d94f"},"effectiveDateTime":"2022-09-06T00:00:00+00:00","dosage":[{"doseAndRate":[{"doseQuantity":{"value":1.0,"unit":"TAB","system":"http://terminology.hl7.org/CodeSystem/v3-orderableDrugForm","code":"TAB"}}]}]}},{"fullUrl":"MedicationStatement/2caef568-e497-442a-b663-3a3362c0fa5a","resource":{"resourceType":"MedicationStatement","id":"2caef568-e497-442a-b663-3a3362c0fa5a","status":"completed","medicationCodeableConcept":{"coding":[{"system":"http://www.nlm.nih.gov/research/umls/rxnorm","code":"7980"}]},"subject":{"reference":"Patient/4895bad5-6796-4553-88f2-f8aecbb2d94f"},"effectiveDateTime":"2022-07-26T00:00:00+00:00","dosage":[{"doseAndRate":[{"doseQuantity":{"value":2.0,"unit":"TAB","system":"http://terminology.hl7.org/CodeSystem/v3-orderableDrugForm","code":"TAB"}}]}]}},{"fullUrl":"Encounter/3659cc94-95d9-40af-ad2b-4fdf579e8b80","resource":{"resourceType":"Encounter","id":"3659cc94-95d9-40af-ad2b-4fdf579e8b80","status":"finished","class":{"system":"http://terminology.hl7.org/CodeSystem/v3-ActCode","code":"NONAC","display":"inpatient non-acute"},"type":[{"coding":[{"system":"http://terminology.hl7.org/CodeSystem/encounter-type","code":"OKI"}]}],"subject":{"reference":"Patient/4895bad5-6796-4553-88f2-f8aecbb2d94f"},"period":{"start":"2022-10-02T00:00:00+00:00","end":"2022-10-10T00:00:00+00:00"}}},{"fullUrl":"Encounter/7c57b9be-c067-4cd2-9e9d-291e4d060374","resource":{"resourceType":"Encounter","id":"7c57b9be-c067-4cd2-9e9d-291e4d060374","status":"finished","class":{"system":"http://terminology.hl7.org/CodeSystem/v3-ActCode","code":"NONAC","display":"inpatient non-acute"},"type":[{"coding":[{"system":"http://terminology.hl7.org/CodeSystem/encounter-type","code":"ADMS"}]}],"subject":{"reference":"Patient/4895bad5-6796-4553-88f2-f8aecbb2d94f"},"period":{"start":"2022-08-07T00:00:00+00:00","end":"2022-08-10T00:00:00+00:00"}}}]}