{"resourceType":"Bundle","id":"f2245ab2-667d-40d1-8b70-360c17fa0573","type":"transaction","entry":[{"fullUrl":"Patient/4a8c2ecb-e3b4-4ddb-8ca6-6d17a405e49c","resource":{"resourceType":"Patient","id":"4a8c2ecb-e3b4-4ddb-8ca6-6d17a405e49c","meta":{"profile":["http://hl7.org/fhir/us/core/StructureDefinition/us-core-patient"]},"extension":[{"extension":[{"url":"ombCategory","valueCoding":{"system":"urn:oid:2.16.840.1.113883.6.238","code":"2054-5","display":"Black or African American"}},{"url":"text","valueString":"Black or African American"}],"url":"http://hl7.org/fhir/us/core/StructureDefinition/us-core-race"},{"extension":[{"url":"ombCategory","valueCoding":{"system":"urn:oid:2.16.840.1.113883.6.238","code":"2186-5","display":"Non Hispanic or Latino"}},{"url":"text","valueString":"Non Hispanic or Latino"}],"url":"http://hl7.org/fhir/us/core/StructureDefinition/us-core-ethnicity"}],"identifier":[{"type":{"coding":[{"system":"http://terminology.hl7.org/CodeSystem/v2-0203","code":"MR"}]},"system":"urn:fhirgen:mrn","value":"204-39-8985"}],"name":[{"use":"official","family":"Webb","given":["Andrew"]},{"use":"maiden","family":"Hughes"}],"telecom":[{"system":"phone","value":"003.792.6387","use":"work"},{"system":"email","value":"blackronald@hotmail.com","use":"home"}],"gender":"male","birthDate":"1964-06-10","address":[{"use":"home","line":["968 Scott Hollow Apt. 583"],"city":"Gibsonview","state":"SD","postalCode":"64679"},{"use":"old","line":["559 Richard Extensions Apt. 523"],"city":"Browntown","state":"ND","postalCode":"96197"}]},"request":{"method":"POST","url":"Patient"}},{"fullUrl":"Observation/02611030-2a80-438b-a474-0f1e9dd18349","resource":{"resourceType":"Observation","id":"02611030-2a80-438b-a474-0f1e9dd18349","meta":{"profile":["http://hl7.org/fhir/us/core/StructureDefinition/us-core-observation-lab"]},"status":"final","category":[{"coding":[{"system":"http://terminology.hl7.org/CodeSystem/observation-category","code":"laboratory","display":"Laboratory"}]}],"code":{"coding":[{"system":"http://loinc.org","code":"87925-4"}]},"subject":{"reference":"Patient/4a8c2ecb-e3b4-4ddb-8ca6-6d17a405e49c"},"effectiveDateTime":"2022-03-02T00:00:00+00:00","valueRatio":{"numerator":{"value":1},"denominator":{"value":64}}},"request":{"method":"POST","url":"Observation"}},{"fullUrl":"Observation/011c5f69-2243-4939-b46f-a257dd8726fa","resource":{"resourceType":"Observation","id":"011c5f69-2243-4939-b46f-a257dd8726fa","meta":{"profile":["http://hl7.org/fhir/us/core/StructureDefinition/us-core-observation-lab"]},"status":"final","category":[{"coding":[{"system":"http://terminology.hl7.org/CodeSystem/observation-category","code":"laboratory","display":"Laboratory"}]}],"code":{"coding":[{"system":"http://loinc.org","code":"26009-1"}]},"subject":{"reference":"Patient/4a8c2ecb-e3b4-4ddb-8ca6-6d17a405e49c"},"effectiveDateTime":"2022-04-30T00:00:00+00:00","valueRatio":{"numerator":{"value":1},"denominator":{"value":64}}},"request":{"method":"POST","url":"Observation"}},{"fullUrl":"Observation/cbea89b9-f70a-4858-83fd-3e33cd3ac03d","resource":{"resourceType":"Observation","id":"cbea89b9-f70a-4858-83fd-3e33cd3ac03d","meta":{"profile":["http://hl7.org/fhir/us/core/StructureDefinition/us-core-observation-lab"]},"status":"final","category":[{"coding":[{"system":"http://terminology.hl7.org/CodeSystem/observation-category","code":"laboratory","display":"Laboratory"}]}],"code":{"coding":[{"system":"http://loinc.org","code":"46203-6"}]},"subject":{"reference":"Patient/4a8c2ecb-e3b4-4ddb-8ca6-6d17a405e49c"},"effectiveDateTime":"2022-12-26T00:00:00+00:00","valueRatio":{"numerator":{"value":1},"denominator":{"value":4}}},"request":{"method":"POST","url":"Observation"}},{"fullUrl":"Condition/da8df78e-4e6a-4b04-96b6-881babe94c05","resource":{"resourceType":"Condition","id":"da8df78e-4e6a-4b04-96b6-881babe94c05","meta":{"profile":["http://hl7.org/fhir/us/core/StructureDefinition/us-core-condition"]},"clinicalStatus":{"coding":[{"system":"http://terminology.hl7.org/CodeSystem/condition-clinical","code":"active","display":"Active"}]},"category":[{"coding":[{"system":"http://terminology.hl7.org/CodeSystem/condition-category","code":"problem-list-item"}]}],"code":{"coding":[{"system":"http://snomed.info/sct","code":"91554004"}]},"subject":{"reference":"Patient/4a8c2ecb-e3b4-4ddb-8ca6-6d17a405e49c"},"onsetDateTime":"2022-11-18T00:00:00+00:00"},"request":{"method":"POST","url":"Condition"}},{"fullUrl":"Condition/49d4c579-88b7-4bff-9bb4-7fa902915834","resource":{"resourceType":"Condition","id":"49d4c579-88b7-4bff-9bb4-7fa902915834","meta":{"profile":["http://hl7.org/fhir/us/core/StructureDefinition/us-core-condition"]},"clinicalStatus":{"coding":[{"system":"http://terminology.hl7.org/CodeSystem/condition-clinical","code":"active","display":"Active"}]},"category":[{"coding":[{"system":"http://terminology.hl7.org/CodeSystem/condition-category","code":"problem-list-item"}]}],"code":{"coding":[{"system":"http://snomed.info/sct","code":"44882003"}]},"subject":{"reference":"Patient/4a8c2ecb-e3b4-4ddb-8ca6-6d17a405e49c"},"onsetDateTime":"2022-12-10T00:00:00+00:00"},"request":{"method":"POST","url":"Condition"}},{"fullUrl":"Condition/de25d00f-1b5b-405f-a226-69dba88fb4a0","resource":{"resourceType":"Condition","id":"de25d00f-1b5b-405f-a226-69dba88fb4a0","meta":{"profile":["http://hl7.org/fhir/us/core/StructureDefinition/us-core-condition"]},"clinicalStatus":{"coding":[{"system":"http://terminology.hl7.org/CodeSystem/condition-clinical","code":"active","display":"Active"}]},"category":[{"coding":[{"system":"http://terminology.hl7.org/CodeSystem/condition-category","code":"problem-list-item"}]}],"code":{"coding":[{"system":"http://snomed.info/sct","code":"44882003"}]},"subject":{"reference":"Patient/4a8c2ecb-e3b4-4ddb-8ca6-6d17a405e49c"},"onsetDateTime":"2022-11-28T00:00:00+00:00"},"request":{"method":"POST","url":"Condition"}},{"fullUrl":"Condition/f117ac6d-539c-4939-8781-33e9c70f986c","resource":{"resourceType":"Condition","id":"f117ac6d-539c-4939-8781-33e9c70f986c","meta":{"profile":["http://hl7.org/fhir/us/core/StructureDefinition/us-core-condition"]},"clinicalStatus":{"coding":[{"system":"http://terminology.hl7.org/CodeSystem/condition-clinical","code":"active","display":"Active"}]},"category":[{"coding":[{"system":"http://terminology.hl7.org/CodeSystem/condition-category","code":"problem-list-item"}]}],"code":{"coding":[{"system":"http://snomed.info/sct","code":"709977002"}]},"subject":{"reference":"Patient/4a8c2ecb-e3b4-4ddb-8ca6-6d17a405e49c"},"onsetDateTime":"2022-06-29T00:00:00+00:00"},"request":{"method":"POST","url":"Condition"}},{"fullUrl":"Condition/173e9af9-5b94-4038-9ebd-6d5b731bb58f","resource":{"resourceType":"Condition","id":"173e9af9-5b94-4038-9ebd-6d5b731bb58f","meta":{"profile":["http://hl7.org/fhir/us/core/StructureDefinition/us-core-condition"]},"clinicalStatus":{"coding":[{"system":"http://terminology.hl7.org/CodeSystem/condition-clinical","code":"active","display":"Active"}]},"category":[{"coding":[{"system":"http://terminology.hl7.org/CodeSystem/condition-category","code":"problem-list-item"}]}],"code":{"coding":[{"system":"http://snomed.info/sct","code":"91554004"}]},"subject":{"reference":"Patient/4a8c2ecb-e3b4-4ddb-8ca6-6d17a405e49c"},"onsetDateTime":"2022-03-15T00:00:00+00:00"},"request":{"method":"POST","url":"Condition"}},{"fullUrl":"Condition/86b3c183-af8d-4043-9f14-a7f6e1b96781","resource":{"resourceType":"Condition","id":"86b3c183-af8d-4043-9f14-a7f6e1b96781","meta":{"profile":["http://hl7.org/fhir/us/core/StructureDefinition/us-core-condition"]},"clinicalStatus":{"coding":[{"system":"http://terminology.hl7.org/CodeSystem/condition-clinical","code":"active","display":"Active"}]},"category":[{"coding":[{"system":"http://terminology.hl7.org/CodeSystem/condition-category","code":"problem-list-item"}]}],"code":{"coding":[{"system":"http://snomed.info/sct","code":"736686006"}]},"subject":{"reference":"Patient/4a8c2ecb-e3b4-4ddb-8ca6-6d17a405e49c"},"onsetDateTime":"2022-06-17T00:00:00+00:00"},"request":{"method":"POST","url":"Condition"}},{"fullUrl":"Condition/8eac67d5-2381-4c0c-9922-15c5ea669a38","resource":{"resourceType":"Condition","id":"8eac67d5-2381-4c0c-9922-15c5ea669a38","meta":{"profile":["http://hl7.org/fhir/us/core/StructureDefinition/us-core-condition"]},"clinicalStatus":{"coding":[{"system":"http://terminology.hl7.org/CodeSystem/condition-clinical","code":"active","display":"Active"}]},"category":[{"coding":[{"system":"http://terminology.hl7.org/CodeSystem/condition-category","code":"problem-list-item"}]}],"code":{"coding":[{"system":"http://snomed.info/sct","code":"91554004"}]},"subject":{"reference":"Patient/4a8c2ecb-e3b4-4ddb-8ca6-6d17a405e49c"},"onsetDateTime":"2022-09-17T00:00:00+00:00"},"request":{"method":"POST","url":"Condition"}},{"fullUrl":"Observation/3f720c76-8766-4c6d-98c2-200490be5b48","resource":{"resourceType":"Observation","id":"3f720c76-8766-4c6d-98c2-200490be5b48","meta":{"profile":["http://hl7.org/fhir/us/core/StructureDefinition/us-core-observation-lab"]},"status":"final","category":[{"coding":[{"system":"http://terminology.hl7.org/CodeSystem/observation-category","code":"laboratory","display":"Laboratory"}]}],"code":{"coding":[{"system":"http://loinc.org","code":"49498-9"}]},"subject":{"reference":"Patient/4a8c2ecb-e3b4-4ddb-8ca6-6d17a405e49c"},"effectiveDateTime":"2022-08-09T00:00:00+00:00","valueQuantity":{"value":6}},"request":{"method":"POST","url":"Observation"}},{"fullUrl":"Observation/e7213ff4-2d2d-4bbb-bc25-5ba854641930","resource":{"resourceType":"Observation","id":"e7213ff4-2d2d-4bbb-bc25-5ba854641930","meta":{"profile":["http://hl7.org/fhir/us/core/StructureDefinition/us-core-observation-lab"]},"status":"final","category":[{"coding":[{"system":"http://terminology.hl7.org/CodeSystem/observation-category","code":"laboratory","display":"Laboratory"}]}],"code":{"coding":[{"system":"http://loinc.org","code":"49498-9"}]},"subject":{"reference":"Patient/4a8c2ecb-e3b4-4ddb-8ca6-6d17a405e49c"},"effectiveDateTime":"2022-06-02T00:00:00+00:00","valueQuantity":{"value":5.5}},"request":{"method":"POST","url":"Observation"}},{"fullUrl":"Observation/83086576-8b47-47f1-9101-95656a5228b6","resource":{"resourceType":"Observation","id":"83086576-8b47-47f1-9101-95656a5228b6","meta":{"profile":["http://hl7.org/fhir/us/core/StructureDefinition/us-core-bmi"]},"status":"final","category":[{"coding":[{"system":"http://terminology.hl7.org/CodeSystem/observation-category","code":"vital-signs","display":"Vital Signs"}]}],"code":{"coding":[{"system":"http://loinc.org","code":"39156-5"}]},"subject":{"reference":"Patient/4a8c2ecb-e3b4-4ddb-8ca6-6d17a405e49c"},"effectiveDateTime":"2022-04-15T00:00:00+00:00","valueQuantity":{"value":29.4,"unit":"kg/m2","system":"http://unitsofmeasure.org","code":"kg/m2"}},"request":{"method":"POST","url":"Observation"}},{"fullUrl":"Observation/f77abe73-19f9-4f0d-a0a6-ce25da35d316","resource":{"resourceType":"Observation","id":"f77abe73-19f9-4f0d-a0a6-ce25da35d316","meta":{"profile":["http://hl7.org/fhir/us/core/StructureDefinition/us-core-head-circumference"]},"status":"final","category":[{"coding":[{"system":"http://terminology.hl7.org/CodeSystem/observation-category","code":"vital-signs","display":"Vital Signs"}]}],"code":{"coding":[{"system":"http://loinc.org","code":"9843-4"}]},"subject":{"reference":"Patient/4a8c2ecb-e3b4-4ddb-8ca6-6d17a405e49c"},"effectiveDateTime":"2022-01-27T00:00:00+00:00","valueQuantity":{"value":9,"unit":"Inch","system":"http://unitsofmeasure.org","code":"[in_i]"}},"request":{"method":"POST","url":"Observation"}},{"fullUrl":"Observation/0684f0a9-826e-4930-b394-f316535c49d3","resource":{"resourceType":"Observation","id":"0684f0a9-826e-4930-b394-f316535c49d3","meta":{"profile":["http://hl7.org/fhir/us/core/StructureDefinition/us-core-body-height"]},"status":"final","category":[{"coding":[{"system":"http://terminology.hl7.org/CodeSystem/observation-category","code":"vital-signs","display":"Vital Signs"}]}],"code":{"coding":[{"system":"http://loinc.org","code":"8302-2"}]},"subject":{"reference":"Patient/4a8c2ecb-e3b4-4ddb-8ca6-6d17a405e49c"},"effectiveDateTime":"2022-09-29T00:00:00+00:00","valueQuantity":{"value":67.8,"unit":"Inch","system":"http://unitsofmeasure.org","code":"[in_i]"}},"request":{"method":"POST","url":"Observation"}},{"fullUrl":"Observation/01bb8521-5e47-432b-bbc0-9c2a37a7f25d","resource":{"resourceType":"Observation","id":"01bb8521-5e47-432b-bbc0-9c2a37a7f25d","meta":{"profile":["http://hl7.org/fhir/us/core/StructureDefinition/us-core-body-weight"]},"status":"final","category":[{"coding":[{"system":"http://terminology.hl7.org/CodeSystem/observation-category","code":"vital-signs","display":"Vital Signs"}]}],"code":{"coding":[{"system":"http://loinc.org","code":"29463-7"}]},"subject":{"reference":"Patient/4a8c2ecb-e3b4-4ddb-8ca6-6d17a405e49c"},"effectiveDateTime":"2022-07-27T00:00:00+00:00","valueQuantity":{"value":111.32,"unit":"kilogram","system":"http://unitsofmeasure.org","code":"kg"}},"request":{"method":"POST","url":"Observation"}},{"fullUrl":"Observation/2a44e422-afb2-434a-9120-17d7be8fee40","resource":{"resourceType":"Observation","id":"2a44e422-afb2-434a-9120-17d7be8fee40","meta":{"profile":["http://hl7.org/fhir/us/core/StructureDefinition/us-core-body-temperature"]},"status":"final","category":[{"coding":[{"system":"http://terminology.hl7.org/CodeSystem/observation-category","code":"vital-signs","display":"Vital Signs"}]}],"code":{"coding":[{"system":"http://loinc.org","code":"8310-5"}]},"subject":{"reference":"Patient/4a8c2ecb-e3b4-4ddb-8ca6-6d17a405e49c"},"effectiveDateTime":"2022-12-06T00:00:00+00:00","valueQuantity":{"value":109.8,"unit":"Degrees Fahrenheit","system":"http://unitsofmeasure.org","code":"[degF]"}},"request":{"method":"POST","url":"Observation"}},{"fullUrl":"Observation/b3f6d549-46ac-4774-9c72-8c8e7711913b","resource":{"resourceType":"Observation","id":"b3f6d549-46ac-4774-9c72-8c8e7711913b","meta":{"profile":["http://hl7.org/fhir/us/core/StructureDefinition/us-core-body-temperature"]},"status":"final","category":[{"coding":[{"system":"http://terminology.hl7.org/CodeSystem/observation-category","code":"vital-signs","display":"Vital Signs"}]}],"code":{"coding":[{"system":"http://loinc.org","code":"8310-5"}]},"subject":{"reference":"Patient/4a8c2ecb-e3b4-4ddb-8ca6-6d17a405e49c"},"effectiveDateTime":"2022-05-12T00:00:00+00:00","valueQuantity":{"value":82.86,"unit":"Degrees Fahrenheit","system":"http://unitsofmeasure.org","code":"[degF]"}},"request":{"method":"POST","url":"Observation"}},{"fullUrl":"Observation/dde1ceb8-35c4-4a6d-b47e-4e0e13eceeb0","resource":{"resourceType":"Observation","id":"dde1ceb8-35c4-4a6d-b47e-4e0e13eceeb0","meta":{"profile":["http://hl7.org/fhir/us/core/StructureDefinition/us-core-heart-rate"]},"status":"final","category":[{"coding":[{"system":"http://terminology.hl7.org/CodeSystem/observation-category","code":"vital-signs","display":"Vital Signs"}]}],"code":{"coding":[{"system":"http://loinc.org","code":"8867-4"}]},"subject":{"reference":"Patient/4a8c2ecb-e3b4-4ddb-8ca6-6d17a405e49c"},"effectiveDateTime":"2022-09-09T00:00:00+00:00","valueQuantity":{"value":99.6,"unit":"Per Minute","system":"http://unitsofmeasure.org","code":"/min"}},"request":{"method":"POST","url":"Observation"}},{"fullUrl":"Patient/d6401ecc-0725-4e1f-bbc1-4b02a8e9c8bf","resource":{"resourceType":"Patient","id":"d6401ecc-0725-4e1f-bbc1-4b02a8e9c8bf","meta":{"profile":["http://hl7.org/fhir/us/core/StructureDefinition/us-core-patient"]},"extension":[{"extension":[{"url":"ombCategory","valueCoding":{"system":"urn:oid:2.16.840.1.113883.6.238","code":"1002-5","display":"American Indian or Alaska Native"}},{"url":"text","valueString":"American Indian or Alaska Native"}],"url":"http://hl7.org/fhir/us/core/StructureDefinition/us-core-race"},{"extension":[{"url":"ombCategory","valueCoding":{"system":"urn:oid:2.16.840.1.113883.6.238","code":"2186-5","display":"Non Hispanic or Latino"}},{"url":"text","valueString":"Non Hispanic or Latino"}],"url":"http://hl7.org/fhir/us/core/StructureDefinition/us-core-ethnicity"}],"identifier":[{"type":{"coding":[{"system":"http://terminology.hl7.org/CodeSystem/v2-0203","code":"MR"}]},"system":"urn:fhirgen:mrn","value":"337-97-7523"}],"name":[{"use":"official","family":"Allen","given":["Danny"]},{"use":"maiden","family":"Johnson"}],"telecom":[{"system":"phone","value":"+1-647-419-9327","use":"work"},{"system":"email","value":"laurie06@yahoo.com","use":"home"}],"gender":"male","birthDate":"1967-10-17","address":[{"use":"home","line":["1607 Chaney Circle Suite 022"],"city":"Bartonbury","state":"MO","postalCode":"81151"},{"use":"old","line":["186 Tonya Islands Apt. 147"],"city":"West Matthew","state":"OR","postalCode":"74192"}]},"request":{"method":"POST","url":"Patient"}},{"fullUrl":"Observation/644c4b5d-35f2-41e5-ba0f-9d229641bca0","resource":{"resourceType":"Observation","id":"644c4b5d-35f2-41e5-ba0f-9d229641bca0","meta":{"profile":["http://hl7.org/fhir/us/core/StructureDefinition/us-core-observation-lab"]},"status":"final","category":[{"coding":[{"system":"http://terminology.hl7.org/CodeSystem/observation-category","code":"laboratory","display":"Laboratory"}]}],"code":{"coding":[{"system":"http://loinc.org","code":"26009-1"}]},"subject":{"reference":"Patient/d6401ecc-0725-4e1f-bbc1-4b02a8e9c8bf"},"effectiveDateTime":"2022-09-29T00:00:00+00:00","valueRatio":{"numerator":{"value":1},"denominator":{"value":32}}},"request":{"method":"POST","url":"Observation"}},{"fullUrl":"Observation/89d280d0-991f-4f62-974d-320ca71cbc0a","resource":{"resourceType":"Observation","id":"89d280d0-991f-4f62-974d-320ca71cbc0a","meta":{"profile":["http://hl7.org/fhir/us/core/StructureDefinition/us-core-observation-lab"]},"status":"final","category":[{"coding":[{"system":"http://terminology.hl7.org/CodeSystem/observation-category","code":"laboratory","display":"Laboratory"}]}],"code":{"coding":[{"system":"http://loinc.org","code":"51475-2"}]},"subject":{"reference":"Patient/d6401ecc-0725-4e1f-bbc1-4b02a8e9c8bf"},"effectiveDateTime":"2022-06-01T00:00:00+00:00","valueRatio":{"numerator":{"value":1},"denominator":{"value":32}}},"request":{"method":"POST","url":"Observation"}},{"fullUrl":"Condition/0314b6a9-42f5-4281-b753-bf8a302eab11","resource":{"resourceType":"Condition","id":"0314b6a9-42f5-4281-b753-bf8a302eab11","meta":{"profile":["http://hl7.org/fhir/us/core/StructureDefinition/us-core-condition"]},"clinicalStatus":{"coding":[{"system":"http://terminology.hl7.org/CodeSystem/condition-clinical","code":"active","display":"Active"}]},"category":[{"coding":[{"system":"http://terminology.hl7.org/CodeSystem/condition-category","code":"problem-list-item"}]}],"code":{"coding":[{"system":"http://snomed.info/sct","code":"418290006"}]},"subject":{"reference":"Patient/d6401ecc-0725-4e1f-bbc1-4b02a8e9c8bf"},"onsetDateTime":"2022-04-15T00:00:00+00:00"},"request":{"method":"POST","url":"Condition"}},{"fullUrl":"Condition/c5b52bf0-e634-41e8-b7fc-6f9bb7522d8b","resource":{"resourceType":"Condition","id":"c5b52bf0-e634-41e8-b7fc-6f9bb7522d8b","meta":{"profile":["http://hl7.org/fhir/us/core/StructureDefinition/us-core-condition"]},"clinicalStatus":{"coding":[{"system":"http://terminology.hl7.org/CodeSystem/condition-clinical","code":"active","display":"Active"}]},"category":[{"coding":[{"system":"http://terminology.hl7.org/CodeSystem/condition-category","code":"problem-list-item"}]}],"code":{"coding":[{"system":"http://snomed.info/sct","code":"709977002"}]},"subject":{"reference":"Patient/d6401ecc-0725-4e1f-bbc1-4b02a8e9c8bf"},"onsetDateTime":"2022-08-10T00:00:00+00:00"},"request":{"method":"POST","url":"Condition"}},{"fullUrl":"Condition/b28fe46c-8fa2-4db0-897a-cf7f8504b0d5","resource":{"resourceType":"Condition","id":"b28fe46c-8fa2-4db0-897a-cf7f8504b0d5","meta":{"profile":["http://hl7.org/fhir/us/core/StructureDefinition/us-core-condition"]},"clinicalStatus":{"coding":[{"system":"http://terminology.hl7.org/CodeSystem/condition-clinical","code":"active","display":"Active"}]},"category":[{"coding":[{"system":"http://terminology.hl7.org/CodeSystem/condition-category","code":"problem-list-item"}]}],"code":{"coding":[{"system":"http://snomed.info/sct","code":"44882003"}]},"subject":{"reference":"Patient/d6401ecc-0725-4e1f-bbc1-4b02a8e9c8bf"},"onsetDateTime":"2022-07-25T00:00:00+00:00"},"request":{"method":"POST","url":"Condition"}},{"fullUrl":"Condition/7d54475f-1915-486a-9506-8bfc5507f7d8","resource":{"resourceType":"Condition","id":"7d54475f-1915-486a-9506-8bfc5507f7d8","meta":{"profile":["http://hl7.org/fhir/us/core/StructureDefinition/us-core-condition"]},"clinicalStatus":{"coding":[{"system":"http://terminology.hl7.org/CodeSystem/condition-clinical","code":"active","display":"Active"}]},"category":[{"coding":[{"system":"http://terminology.hl7.org/CodeSystem/condition-category","code":"problem-list-item"}]}],"code":{"coding":[{"system":"http://snomed.info/sct","code":"44882003"}]},"subject":{"reference":"Patient/d6401ecc-0725-4e1f-bbc1-4b02a8e9c8bf"},"onsetDateTime":"2022-07-25T00:00:00+00:00"},"request":{"method":"POST","url":"Condition"}},{"fullUrl":"Observation/44af4bb4-0031-48a1-a1aa-2dc3b3094401","resource":{"resourceType":"Observation","id":"44af4bb4-0031-48a1-a1aa-2dc3b3094401","meta":{"profile":["http://hl7.org/fhir/us/core/StructureDefinition/us-core-observation-lab"]},"status":"final","category":[{"coding":[{"system":"http://terminology.hl7.org/CodeSystem/observation-category","code":"laboratory","display":"Laboratory"}]}],"code":{"coding":[{"system":"http://loinc.org","code":"49498-9"}]},"subject":{"reference":"Patient/d6401ecc-0725-4e1f-bbc1-4b02a8e9c8bf"},"effectiveDateTime":"2022-10-26T00:00:00+00:00","valueQuantity":{"value":8.8}},"request":{"method":"POST","url":"Observation"}},{"fullUrl":"Observation/478def52-db83-4291-bb63-105a21280358","resource":{"resourceType":"Observation","id":"478def52-db83-4291-bb63-105a21280358","meta":{"profile":["http://hl7.org/fhir/us/core/StructureDefinition/us-core-observation-lab"]},"status":"final","category":[{"coding":[{"system":"http://terminology.hl7.org/CodeSystem/observation-category","code":"laboratory","display":"Laboratory"}]}],"code":{"coding":[{"system":"http://loinc.org","code":"804-5"}]},"subject":{"reference":"Patient/d6401ecc-0725-4e1f-bbc1-4b02a8e9c8bf"},"effectiveDateTime":"2022-05-20T00:00:00+00:00","valueQuantity":{"value":4.6}},"request":{"method":"POST","url":"Observation"}},{"fullUrl":"Observation/22e704dd-d838-4eda-8f7b-49aced01c084","resource":{"resourceType":"Observation","id":"22e704dd-d838-4eda-8f7b-49aced01c084","meta":{"profile":["http://hl7.org/fhir/us/core/StructureDefinition/us-core-observation-lab"]},"status":"final","category":[{"coding":[{"system":"http://terminology.hl7.org/CodeSystem/observation-category","code":"laboratory","display":"Laboratory"}]}],"code":{"coding":[{"system":"http://loinc.org","code":"26464-8"}]},"subject":{"reference":"Patient/d6401ecc-0725-4e1f-bbc1-4b02a8e9c8bf"},"effectiveDateTime":"2022-04-18T00:00:00+00:00","valueQuantity":{"value":5.7}},"request":{"method":"POST","url":"Observation"}},{"fullUrl":"Observation/f924bcad-eb58-46ff-b2b5-2e74aadb8c13","resource":{"resourceType":"Observation","id":"f924bcad-eb58-46ff-b2b5-2e74aadb8c13","meta":{"profile":["http://hl7.org/fhir/us/core/StructureDefinition/us-core-bmi"]},"status":"final","category":[{"coding":[{"system":"http://terminology.hl7.org/CodeSystem/observation-category","code":"vital-signs","display":"Vital Signs"}]}],"code":{"coding":[{"system":"http://loinc.org","code":"39156-5"}]},"subject":{"reference":"Patient/d6401ecc-0725-4e1f-bbc1-4b02a8e9c8bf"},"effectiveDateTime":"2022-07-26T00:00:00+00:00","valueQuantity":{"value":13.55,"unit":"kg/m2","system":"http://unitsofmeasure.org","code":"kg/m2"}},"request":{"method":"POST","url":"Observation"}},{"fullUrl":"Observation/0f34fd39-6595-4396-9c67-bb67675fbfd9","resource":{"resourceType":"Observation","id":"0f34fd39-6595-4396-9c67-bb67675fbfd9","meta":{"profile":["http://hl7.org/fhir/us/core/StructureDefinition/us-core-head-circumference"]},"status":"final","category":[{"coding":[{"system":"http://terminology.hl7.org/CodeSystem/observation-category","code":"vital-signs","display":"Vital Signs"}]}],"code":{"coding":[{"system":"http://loinc.org","code":"9843-4"}]},"subject":{"reference":"Patient/d6401ecc-0725-4e1f-bbc1-4b02a8e9c8bf"},"effectiveDateTime":"2022-09-08T00:00:00+00:00","valueQuantity":{"value":7.8,"unit":"Inch","system":"http://unitsofmeasure.org","code":"[in_i]"}},"request":{"method":"POST","url":"Observation"}},{"fullUrl":"Observation/7f963808-e741-4a47-9e3d-9f1c1c1022f7","resource":{"resourceType":"Observation","id":"7f963808-e741-4a47-9e3d-9f1c1c1022f7","meta":{"profile":["http://hl7.org/fhir/us/core/StructureDefinition/us-core-body-height"]},"status":"final","category":[{"coding":[{"system":"http://terminology.hl7.org/CodeSystem/observation-category","code":"vital-signs","display":"Vital Signs"}]}],"code":{"coding":[{"system":"http://loinc.org","code":"8302-2"}]},"subject":{"reference":"Patient/d6401ecc-0725-4e1f-bbc1-4b02a8e9c8bf"},"effectiveDateTime":"2022-07-16T00:00:00+00:00","valueQuantity":{"value":70.7,"unit":"Inch","system":"http://unitsofmeasure.org","code":"[in_i]"}},"request":{"method":"POST","url":"Observation"}},{"fullUrl":"Observation/45562dd0-93bb-42f5-af70-68bc144dd739","resource":{"resourceType":"Observation","id":"45562dd0-93bb-42f5-af70-68bc144dd739","meta":{"profile":["http://hl7.org/fhir/us/core/StructureDefinition/us-core-body-weight"]},"status":"final","category":[{"coding":[{"system":"http://terminology.hl7.org/CodeSystem/observation-category","code":"vital-signs","display":"Vital Signs"}]}],"code":{"coding":[{"system":"http://loinc.org","code":"29463-7"}]},"subject":{"reference":"Patient/d6401ecc-0725-4e1f-bbc1-4b02a8e9c8bf"},"effectiveDateTime":"2022-06-08T00:00:00+00:00","valueQuantity":{"value":31.38,"unit":"kilogram","system":"http://unitsofmeasure.org","code":"kg"}},"request":{"method":"POST","url":"Observation"}},{"fullUrl":"Observation/d9ca9f85-9173-40f2-8c4c-d6c40743fa3b","resource":{"resourceType":"Observation","id":"d9ca9f85-9173-40f2-8c4c-d6c40743fa3b","meta":{"profile":["http://hl7.org/fhir/us/core/StructureDefinition/us-core-body-temperature"]},"status":"final","category":[{"coding":[{"system":"http://terminology.hl7.org/CodeSystem/observation-category","code":"vital-signs","display":"Vital Signs"}]}],"code":{"coding":[{"system":"http://loinc.org","code":"8310-5"}]},"subject":{"reference":"Patient/d6401ecc-0725-4e1f-bbc1-4b02a8e9c8bf"},"effectiveDateTime":"2022-07-02T00:00:00+00:00","valueQuantity":{"value":94.78,"unit":"Degrees Fahrenheit","system":"http://unitsofmeasure.org","code":"[degF]"}},"request":{"method":"POST","url":"Observation"}},{"fullUrl":"Observation/e298000b-7b9e-4652-8352-b1e074727fbb","resource":{"resourceType":"Observation","id":"e298000b-7b9e-4652-8352-b1e074727fbb","meta":{"profile":["http://hl7.org/fhir/us/core/StructureDefinition/us-core-body-temperature"]},"status":"final","category":[{"coding":[{"system":"http://terminology.hl7.org/CodeSystem/observation-category","code":"vital-signs","display":"Vital Signs"}]}],"code":{"coding":[{"system":"http://loinc.org","code":"8310-5"}]},"subject":{"reference":"Patient/d6401ecc-0725-4e1f-bbc1-4b02a8e9c8bf"},"effectiveDateTime":"2022-02-26T00:00:00+00:00","valueQuantity":{"value":82.95,"unit":"Degrees Fahrenheit","system":"http://unitsofmeasure.org","code":"[degF]"}},"request":{"method":"POST","url":"Observation"}},{"fullUrl":"Observation/98fe22e2-f9d2-43df-98b9-cde040a982f2","resource":{"resourceType":"Observation","id":"98fe22e2-f9d2-43df-98b9-cde040a982f2","meta":{"profile":["http://hl7.org/fhir/us/core/StructureDefinition/us-core-heart-rate"]},"status":"final","category":[{"coding":[{"system":"http://terminology.hl7.org/CodeSystem/observation-category","code":"vital-signs","display":"Vital Signs"}]}],"code":{"coding":[{"system":"http://loinc.org","code":"8867-4"}]},"subject":{"reference":"Patient/d6401ecc-0725-4e1f-bbc1-4b02a8e9c8bf"},"effectiveDateTime":"2022-12-25T00:00:00+00:00","valueQuantity":{"value":100.1,"unit":"Per Minute","system":"http://unitsofmeasure.org","code":"/min"}},"request":{"method":"POST","url":"Observation"}},{"fullUrl":"Observation/fa034ab4-9e73-40cb-a775-c93dfb6fa36e","resource":{"resourceType":"Observation","id":"fa034ab4-9e73-40cb-a775-c93dfb6fa36e","meta":{"profile":["http://hl7.org/fhir/us/core/StructureDefinition/us-core-heart-rate"]},"status":"final","category":[{"coding":[{"system":"http://terminology.hl7.org/CodeSystem/observation-category","code":"vital-signs","display":"Vital Signs"}]}],"code":{"coding":[{"system":"http://loinc.org","code":"8867-4"}]},"subject":{"reference":"Patient/d6401ecc-0725-4e1f-bbc1-4b02a8e9c8bf"},"effectiveDateTime":"2022-03-16T00:00:00+00:00","valueQuantity":{"value":98.2,"unit":"Per Minute","system":"http://unitsofmeasure.org","code":"/min"}},"request":{"method":"POST","url":"Observation"}},{"fullUrl":"Patient/19745412-83f9-4d29-a985-da4989b6be54","resource":{"resourceType":"Patient","id":"19745412-83f9-4d29-a985-da4989b6be54","meta":{"profile":["http://hl7.org/fhir/us/core/StructureDefinition/us-core-patient"]},"extension":[{"extension":[{"url":"ombCategory","valueCoding":{"system":"http://terminology.hl7.org/CodeSystem/v3-NullFlavor","code":"UNK","display":"unknown"}},{"url":"text","valueString":"unknown"}],"url":"http://hl7.org/fhir/us/core/StructureDefinition/us-core-race"},{"extension":[{"url":"ombCategory","valueCoding":{"system":"urn:oid:2.16.840.1.113883.6.238","code":"2186-5","display":"Non Hispanic or Latino"}},{"url":"text","valueString":"Non Hispanic or Latino"}],"url":"http://hl7.org/fhir/us/core/StructureDefinition/us-core-ethnicity"}],"identifier":[{"type":{"coding":[{"system":"http://terminology.hl7.org/CodeSystem/v2-0203","code":"MR"}]},"system":"urn:fhirgen:mrn","value":"290-75-8112"}],"name":[{"use":"official","family":"Vaughan","given":["Hannah"]},{"use":"maiden","family":"Gillespie"}],"telecom":[{"system":"phone","value":"605-926-5859","use":"mobile"},{"system":"email","value":"christinerobbins@yahoo.com","use":"work"}],"gender":"female","birthDate":"1954-12-08","address":[{"use":"home","line":["42541 Alvarado Meadows"],"city":"South John","state":"NV","postalCode":"00911"},{"use":"old","line":["0899 Graham Shores"],"city":"Christinechester","state":"CA","postalCode":"37736"}]},"request":{"method":"POST","url":"Patient"}},{"fullUrl":"Observation/c2bf308d-94d8-42c6-8006-d0cd1dfc3e10","resource":{"resourceType":"Observation","id":"c2bf308d-94d8-42c6-8006-d0cd1dfc3e10","meta":{"profile":["http://hl7.org/fhir/us/core/StructureDefinition/us-core-observation-lab"]},"status":"final","category":[{"coding":[{"system":"http://terminology.hl7.org/CodeSystem/observation-category","code":"laboratory","display":"Laboratory"}]}],"code":{"coding":[{"system":"http://loinc.org","code":"87925-4"}]},"subject":{"reference":"Patient/19745412-83f9-4d29-a985-da4989b6be54"},"effectiveDateTime":"2022-08-26T00:00:00+00:00","valueRatio":{"numerator":{"value":1},"denominator":{"value":4}}},"request":{"method":"POST","url":"Observation"}},{"fullUrl":"Observation/a5d87732-7323-46d9-a961-122c1b03128c","resource":{"resourceType":"Observation","id":"a5d87732-7323-46d9-a961-122c1b03128c","meta":{"profile":["http://hl7.org/fhir/us/core/StructureDefinition/us-core-observation-lab"]},"status":"final","category":[{"coding":[{"system":"http://terminology.hl7.org/CodeSystem/observation-category","code":"laboratory","display":"Laboratory"}]}],"code":{"coding":[{"system":"http://loinc.org","code":"50690-7"}]},"subject":{"reference":"Patient/19745412-83f9-4d29-a985-da4989b6be54"},"effectiveDateTime":"2022-07-16T00:00:00+00:00","valueRatio":{"numerator":{"value":1},"denominator":{"value":64}}},"request":{"method":"POST","url":"Observation"}},{"fullUrl":"Observation/f29fc6e1-76ad-483b-8102-997d47d62153","resource":{"resourceType":"Observation","id":"f29fc6e1-76ad-483b-8102-997d47d62153","meta":{"profile":["http://hl7.org/fhir/us/core/StructureDefinition/us-core-observation-lab"]},"status":"final","category":[{"coding":[{"system":"http://terminology.hl7.org/CodeSystem/observation-category","code":"laboratory","display":"Laboratory"}]}],"code":{"coding":[{"system":"http://loinc.org","code":"46203-6"}]},"subject":{"reference":"Patient/19745412-83f9-4d29-a985-da4989b6be54"},"effectiveDateTime":"2022-03-27T00:00:00+00:00","valueRatio":{"numerator":{"value":1},"denominator":{"value":4}}},"request":{"method":"POST","url":"Observation"}},{"fullUrl":"Condition/7e8badc2-e076-41fb-a10e-ea58b7d273c4","resource":{"resourceType":"Condition","id":"7e8badc2-e076-41fb-a10e-ea58b7d273c4","meta":{"profile":["http://hl7.org/fhir/us/core/StructureDefinition/us-core-condition"]},"clinicalStatus":{"coding":[{"system":"http://terminology.hl7.org/CodeSystem/condition-clinical","code":"active","display":"Active"}]},"category":[{"coding":[{"system":"http://terminology.hl7.org/CodeSystem/condition-category","code":"problem-list-item"}]}],"code":{"coding":[{"system":"http://snomed.info/sct","code":"709977002"}]},"subject":{"reference":"Patient/19745412-83f9-4d29-a985-da4989b6be54"},"onsetDateTime":"2022-10-19T00:00:00+00:00"},"request":{"method":"POST","url":"Condition"}},{"fullUrl":"Condition/5ce3f099-6d71-4f45-b0fa-3e513dc6adf3","resource":{"resourceType":"Condition","id":"5ce3f099-6d71-4f45-b0fa-3e513dc6adf3","meta":{"profile":["http://hl7.org/fhir/us/core/StructureDefinition/us-core-condition"]},"clinicalStatus":{"coding":[{"system":"http://terminology.hl7.org/CodeSystem/condition-clinical","code":"active","display":"Active"}]},"category":[{"coding":[{"system":"http://terminology.hl7.org/CodeSystem/condition-category","code":"problem-list-item"}]}],"code":{"coding":[{"system":"http://snomed.info/sct","code":"736686006"}]},"subject":{"reference":"Patient/19745412-83f9-4d29-a985-da4989b6be54"},"onsetDateTime":"2022-11-10T00:00:00+00:00"},"request":{"method":"POST","url":"Condition"}},{"fullUrl":"Condition/2fe3a90d-8be7-48fa-aa9d-5f7d2b1ef2c1","resource":{"resourceType":"Condition","id":"2fe3a90d-8be7-48fa-aa9d-5f7d2b1ef2c1","meta":{"profile":["http://hl7.org/fhir/us/core/StructureDefinition/us-core-condition"]},"clinicalStatus":{"coding":[{"system":"http://terminology.hl7.org/CodeSystem/condition-clinical","code":"active","display":"Active"}]},"category":[{"coding":[{"system":"http://terminology.hl7.org/CodeSystem/condition-category","code":"problem-list-item"}]}],"code":{"coding":[{"system":"http://snomed.info/sct","code":"709977002"}]},"subject":{"reference":"Patient/19745412-83f9-4d29-a985-da4989b6be54"},"onsetDateTime":"2022-09-20T00:00:00+00:00"},"request":{"method":"POST","url":"Condition"}},{"fullUrl":"Condition/770f3890-438e-4506-9567-1d609e4182a9","resource":{"resourceType":"Condition","id":"770f3890-438e-4506-9567-1d609e4182a9","meta":{"profile":["http://hl7.org/fhir/us/core/StructureDefinition/us-core-condition"]},"clinicalStatus":{"coding":[{"system":"http://terminology.hl7.org/CodeSystem/condition-clinical","code":"active","display":"Active"}]},"category":[{"coding":[{"system":"http://terminology.hl7.org/CodeSystem/condition-category","code":"problem-list-item"}]}],"code":{"coding":[{"system":"http://snomed.info/sct","code":"91554004"}]},"subject":{"reference":"Patient/19745412-83f9-4d29-a985-da4989b6be54"},"onsetDateTime":"2022-01-18T00:00:00+00:00"},"request":{"method":"POST","url":"Condition"}},{"fullUrl":"Condition/90421ba7-a537-4f7d-9236-e666d6f1e22b","resource":{"resourceType":"Condition","id":"90421ba7-a537-4f7d-9236-e666d6f1e22b","meta":{"profile":["http://hl7.org/fhir/us/core/StructureDefinition/us-core-condition"]},"clinicalStatus":{"coding":[{"system":"http://terminology.hl7.org/CodeSystem/condition-clinical","code":"active","display":"Active"}]},"category":[{"coding":[{"system":"http://terminology.hl7.org/CodeSystem/condition-category","code":"problem-list-item"}]}],"code":{"coding":[{"system":"http://snomed.info/sct","code":"418290006"}]},"subject":{"reference":"Patient/19745412-83f9-4d29-a985-da4989b6be54"},"onsetDateTime":"2022-07-03T00:00:00+00:00"},"request":{"method":"POST","url":"Condition"}},{"fullUrl":"Condition/afbe58ab-1a2b-4925-8ffc-1f208f970830","resource":{"resourceType":"Condition","id":"afbe58ab-1a2b-4925-8ffc-1f208f970830","meta":{"profile":["http://hl7.org/fhir/us/core/StructureDefinition/us-core-condition"]},"clinicalStatus":{"coding":[{"system":"http://terminology.hl7.org/CodeSystem/condition-clinical","code":"active","display":"Active"}]},"category":[{"coding":[{"system":"http://terminology.hl7.org/CodeSystem/condition-category","code":"problem-list-item"}]}],"code":{"coding":[{"system":"http://snomed.info/sct","code":"418290006"}]},"subject":{"reference":"Patient/19745412-83f9-4d29-a985-da4989b6be54"},"onsetDateTime":"2022-11-21T00:00:00+00:00"},"request":{"method":"POST","url":"Condition"}},{"fullUrl":"Condition/55159c3e-cd1b-4342-a48a-2abdfc309d00","resource":{"resourceType":"Condition","id":"55159c3e-cd1b-4342-a48a-2abdfc309d00","meta":{"profile":["http://hl7.org/fhir/us/core/StructureDefinition/us-core-condition"]},"clinicalStatus":{"coding":[{"system":"http://terminology.hl7.org/CodeSystem/condition-clinical","code":"active","display":"Active"}]},"category":[{"coding":[{"system":"http://terminology.hl7.org/CodeSystem/condition-category","code":"problem-list-item"}]}],"code":{"coding":[{"system":"http://snomed.info/sct","code":"418290006"}]},"subject":{"reference":"Patient/19745412-83f9-4d29-a985-da4989b6be54"},"onsetDateTime":"2022-06-19T00:00:00+00:00"},"request":{"method":"POST","url":"Condition"}},{"fullUrl":"Observation/ba3e289b-3bf1-4a6d-a0e9-f00ef78ccaad","resource":{"resourceType":"Observation","id":"ba3e289b-3bf1-4a6d-a0e9-f00ef78ccaad","meta":{"profile":["http://hl7.org/fhir/us/core/StructureDefinition/us-core-observation-lab"]},"status":"final","category":[{"coding":[{"system":"http://terminology.hl7.org/CodeSystem/observation-category","code":"laboratory","display":"Laboratory"}]}],"code":{"coding":[{"system":"http://loinc.org","code":"49498-9"}]},"subject":{"reference":"Patient/19745412-83f9-4d29-a985-da4989b6be54"},"effectiveDateTime":"2022-11-06T00:00:00+00:00","valueQuantity":{"value":5.5}},"request":{"method":"POST","url":"Observation"}},{"fullUrl":"Observation/c7ae7b7f-0719-46f1-b6e5-36783898d538","resource":{"resourceType":"Observation","id":"c7ae7b7f-0719-46f1-b6e5-36783898d538","meta":{"profile":["http://hl7.org/fhir/us/core/StructureDefinition/us-core-observation-lab"]},"status":"final","category":[{"coding":[{"system":"http://terminology.hl7.org/CodeSystem/observation-category","code":"laboratory","display":"Laboratory"}]}],"code":{"coding":[{"system":"http://loinc.org","code":"804-5"}]},"subject":{"reference":"Patient/19745412-83f9-4d29-a985-da4989b6be54"},"effectiveDateTime":"2022-05-19T00:00:00+00:00","valueQuantity":{"value":5.4}},"request":{"method":"POST","url":"Observation"}},{"fullUrl":"Observation/6858c90a-0b89-4c82-8876-663f4077e839","resource":{"resourceType":"Observation","id":"6858c90a-0b89-4c82-8876-663f4077e839","meta":{"profile":["http://hl7.org/fhir/us/core/StructureDefinition/us-core-observation-lab"]},"status":"final","category":[{"coding":[{"system":"http://terminology.hl7.org/CodeSystem/observation-category","code":"laboratory","display":"Laboratory"}]}],"code":{"coding":[{"system":"http://loinc.org","code":"6690-2"}]},"subject":{"reference":"Patient/19745412-83f9-4d29-a985-da4989b6be54"},"effectiveDateTime":"2022-06-19T00:00:00+00:00","valueQuantity":{"value":5.6}},"request":{"method":"POST","url":"Observation"}},{"fullUrl":"Observation/1e464ff1-6023-4fda-8102-e36ea20ec4e1","resource":{"resourceType":"Observation","id":"1e464ff1-6023-4fda-8102-e36ea20ec4e1","meta":{"profile":["http://hl7.org/fhir/us/core/StructureDefinition/us-core-bmi"]},"status":"final","category":[{"coding":[{"system":"http://terminology.hl7.org/CodeSystem/observation-category","code":"vital-signs","display":"Vital Signs"}]}],"code":{"coding":[{"system":"http://loinc.org","code":"39156-5"}]},"subject":{"reference":"Patient/19745412-83f9-4d29-a985-da4989b6be54"},"effectiveDateTime":"2022-08-23T00:00:00+00:00","valueQuantity":{"value":17.11,"unit":"kg/m2","system":"http://unitsofmeasure.org","code":"kg/m2"}},"request":{"method":"POST","url":"Observation"}},{"fullUrl":"Observation/90f194bb-1ac2-4f51-aa7b-408862837e91","resource":{"resourceType":"Observation","id":"90f194bb-1ac2-4f51-aa7b-408862837e91","meta":{"profile":["http://hl7.org/fhir/us/core/StructureDefinition/us-core-bmi"]},"status":"final","category":[{"coding":[{"system":"http://terminology.hl7.org/CodeSystem/observation-category","code":"vital-signs","display":"Vital Signs"}]}],"code":{"coding":[{"system":"http://loinc.org","code":"39156-5"}]},"subject":{"reference":"Patient/19745412-83f9-4d29-a985-da4989b6be54"},"effectiveDateTime":"2022-01-20T00:00:00+00:00","valueQuantity":{"value":22.28,"unit":"kg/m2","system":"http://unitsofmeasure.org","code":"kg/m2"}},"request":{"method":"POST","url":"Observation"}},{"fullUrl":"Observation/b9c79056-7eee-4d1f-a743-73a3e874a974","resource":{"resourceType":"Observation","id":"b9c79056-7eee-4d1f-a743-73a3e874a974","meta":{"profile":["http://hl7.org/fhir/us/core/StructureDefinition/us-core-head-circumference"]},"status":"final","category":[{"coding":[{"system":"http://terminology.hl7.org/CodeSystem/observation-category","code":"vital-signs","display":"Vital Signs"}]}],"code":{"coding":[{"system":"http://loinc.org","code":"9843-4"}]},"subject":{"reference":"Patient/19745412-83f9-4d29-a985-da4989b6be54"},"effectiveDateTime":"2022-09-19T00:00:00+00:00","valueQuantity":{"value":3,"unit":"Inch","system":"http://unitsofmeasure.org","code":"[in_i]"}},"request":{"method":"POST","url":"Observation"}},{"fullUrl":"Observation/d3437e39-4a92-494f-8bc6-e22d4b8b0922","resource":{"resourceType":"Observation","id":"d3437e39-4a92-494f-8bc6-e22d4b8b0922","meta":{"profile":["http://hl7.org/fhir/us/core/StructureDefinition/us-core-head-circumference"]},"status":"final","category":[{"coding":[{"system":"http://terminology.hl7.org/CodeSystem/observation-category","code":"vital-signs","display":"Vital Signs"}]}],"code":{"coding":[{"system":"http://loinc.org","code":"9843-4"}]},"subject":{"reference":"Patient/19745412-83f9-4d29-a985-da4989b6be54"},"effectiveDateTime":"2022-09-25T00:00:00+00:00","valueQuantity":{"value":6.2,"unit":"Inch","system":"http://unitsofmeasure.org","code":"[in_i]"}},"request":{"method":"POST","url":"Observation"}},{"fullUrl":"Observation/91f1746a-335d-449d-bf90-0552fbfb13b5","resource":{"resourceType":"Observation","id":"91f1746a-335d-449d-bf90-0552fbfb13b5","meta":{"profile":["http://hl7.org/fhir/us/core/StructureDefinition/us-core-body-height"]},"status":"final","category":[{"coding":[{"system":"http://terminology.hl7.org/CodeSystem/observation-category","code":"vital-signs","display":"Vital Signs"}]}],"code":{"coding":[{"system":"http://loinc.org","code":"8302-2"}]},"subject":{"reference":"Patient/19745412-83f9-4d29-a985-da4989b6be54"},"effectiveDateTime":"2022-05-24T00:00:00+00:00","valueQuantity":{"value":79.9,"unit":"Inch","system":"http://unitsofmeasure.org","code":"[in_i]"}},"request":{"method":"POST","url":"Observation"}},{"fullUrl":"Observation/aa516cfc-3349-42a5-b310-f2bdbbcf6e45","resource":{"resourceType":"Observation","id":"aa516cfc-3349-42a5-b310-f2bdbbcf6e45","meta":{"profile":["http://hl7.org/fhir/us/core/StructureDefinition/us-core-body-height"]},"status":"final","category":[{"coding":[{"system":"http://terminology.hl7.org/CodeSystem/observation-category","code":"vital-signs","display":"Vital Signs"}]}],"code":{"coding":[{"system":"http://loinc.org","code":"8302-2"}]},"subject":{"reference":"Patient/19745412-83f9-4d29-a985-da4989b6be54"},"effectiveDateTime":"2022-04-30T00:00:00+00:00","valueQuantity":{"value":83.1,"unit":"Inch","system":"http://unitsofmeasure.org","code":"[in_i]"}},"request":{"method":"POST","url":"Observation"}},{"fullUrl":"Observation/3fb9ac07-1931-45d3-a3ea-3faba135c09c","resource":{"resourceType":"Observation","id":"3fb9ac07-1931-45d3-a3ea-3faba135c09c","meta":{"profile":["http://hl7.org/fhir/us/core/StructureDefinition/us-core-body-weight"]},"status":"final","category":[{"coding":[{"system":"http://terminology.hl7.org/CodeSystem/observation-category","code":"vital-signs","display":"Vital Signs"}]}],"code":{"coding":[{"system":"http://loinc.org","code":"29463-7"}]},"subject":{"reference":"Patient/19745412-83f9-4d29-a985-da4989b6be54"},"effectiveDateTime":"2022-03-07T00:00:00+00:00","valueQuantity":{"value":100.16,"unit":"kilogram","system":"http://unitsofmeasure.org","code":"kg"}},"request":{"method":"POST","url":"Observation"}},{"fullUrl":"Observation/f7e96a80-398e-4405-9ae0-fef21a5410fa","resource":{"resourceType":"Observation","id":"f7e96a80-398e-4405-9ae0-fef21a5410fa","meta":{"profile":["http://hl7.org/fhir/us/core/StructureDefinition/us-core-body-weight"]},"status":"final","category":[{"coding":[{"system":"http://terminology.hl7.org/CodeSystem/observation-category","code":"vital-signs","display":"Vital Signs"}]}],"code":{"coding":[{"system":"http://loinc.org","code":"29463-7"}]},"subject":{"reference":"Patient/19745412-83f9-4d29-a985-da4989b6be54"},"effectiveDateTime":"2022-07-13T00:00:00+00:00","valueQuantity":{"value":95.78,"unit":"kilogram","system":"http://unitsofmeasure.org","code":"kg"}},"request":{"method":"POST","url":"Observation"}},{"fullUrl":"Observation/6d0519b4-dc9a-4711-8a9e-8d0cb7d92fff","resource":{"resourceType":"Observation","id":"6d0519b4-dc9a-4711-8a9e-8d0cb7d92fff","meta":{"profile":["http://hl7.org/fhir/us/core/StructureDefinition/us-core-body-temperature"]},"status":"final","category":[{"coding":[{"system":"http://terminology.hl7.org/CodeSystem/observation-category","code":"vital-signs","display":"Vital Signs"}]}],"code":{"coding":[{"system":"http://loinc.org","code":"8310-5"}]},"subject":{"reference":"Patient/19745412-83f9-4d29-a985-da4989b6be54"},"effectiveDateTime":"2022-09-16T00:00:00+00:00","valueQuantity":{"value":120.36,"unit":"Degrees Fahrenheit","system":"http://unitsofmeasure.org","code":"[degF]"}},"request":{"method":"POST","url":"Observation"}},{"fullUrl":"Observation/7e3c3798-7f28-4965-a4f1-167e34749e35","resource":{"resourceType":"Observation","id":"7e3c3798-7f28-4965-a4f1-167e34749e35","meta":{"profile":["http://hl7.org/fhir/us/core/StructureDefinition/us-core-body-temperature"]},"status":"final","category":[{"coding":[{"system":"http://terminology.hl7.org/CodeSystem/observation-category","code":"vital-signs","display":"Vital Signs"}]}],"code":{"coding":[{"system":"http://loinc.org","code":"8310-5"}]},"subject":{"reference":"Patient/19745412-83f9-4d29-a985-da4989b6be54"},"effectiveDateTime":"2022-01-21T00:00:00+00:00","valueQuantity":{"value":93.64,"unit":"Degrees Fahrenheit","system":"http://unitsofmeasure.org","code":"[degF]"}},"request":{"method":"POST","url":"Observation"}},{"fullUrl":"Observation/61872cfe-3924-4d53-b09e-75f8946e00c4","resource":{"resourceType":"Observation","id":"61872cfe-3924-4d53-b09e-75f8946e00c4","meta":{"profile":["http://hl7.org/fhir/us/core/StructureDefinition/us-core-heart-rate"]},"status":"final","category":[{"coding":[{"system":"http://terminology.hl7.org/CodeSystem/observation-category","code":"vital-signs","display":"Vital Signs"}]}],"code":{"coding":[{"system":"http://loinc.org","code":"8867-4"}]},"subject":{"reference":"Patient/19745412-83f9-4d29-a985-da4989b6be54"},"effectiveDateTime":"2022-08-09T00:00:00+00:00","valueQuantity":{"value":96.6,"unit":"Per Minute","system":"http://unitsofmeasure.org","code":"/min"}},"request":{"method":"POST","url":"Observation"}},{"fullUrl":"Patient/1208297a-ae99-43eb-901b-05c29e5c97ad","resource":{"resourceType":"Patient","id":"1208297a-ae99-43eb-901b-05c29e5c97ad","meta":{"profile":["http://hl7.org/fhir/us/core/StructureDefinition/us-core-patient"]},"extension":[{"extension":[{"url":"ombCategory","valueCoding":{"system":"urn:oid:2.16.840.1.113883.6.238","code":"2106-3","display":"White"}},{"url":"text","valueString":"White"}],"url":"http://hl7.org/fhir/us/core/StructureDefinition/us-core-race"},{"extension":[{"url":"ombCategory","valueCoding":{"system":"urn:oid:2.16.840.1.113883.6.238","code":"2186-5","display":"Non Hispanic or Latino"}},{"url":"text","valueString":"Non Hispanic or Latino"}],"url":"http://hl7.org/fhir/us/core/StructureDefinition/us-core-ethnicity"}],"identifier":[{"type":{"coding":[{"system":"http://terminology.hl7.org/CodeSystem/v2-0203","code":"MR"}]},"system":"urn:fhirgen:mrn","value":"037-65-8131"}],"name":[{"use":"official","family":"Brown","given":["Carol"]},{"use":"maiden","family":"Vasquez"}],"telecom":[{"system":"phone","value":"(153)544-6676x5959","use":"work"},{"system":"email","value":"gibsoncrystal@gmail.com","use":"work"}],"gender":"female","birthDate":"1962-09-14","address":[{"use":"home","line":["2264 Washington Shores Suite 775"],"city":"Trujillobury","state":"NM","postalCode":"23145"},{"use":"old","line":["111 Sanchez Flat Suite 877"],"city":"North Jesseborough","state":"SC","postalCode":"38722"}]},"request":{"method":"POST","url":"Patient"}},{"fullUrl":"Observation/08ad8f43-9ee1-4a95-b861-32bf99a20f04","resource":{"resourceType":"Observation","id":"08ad8f43-9ee1-4a95-b861-32bf99a20f04","meta":{"profile":["http://hl7.org/fhir/us/core/StructureDefinition/us-core-observation-lab"]},"status":"final","category":[{"coding":[{"system":"http://terminology.hl7.org/CodeSystem/observation-category","code":"laboratory","display":"Laboratory"}]}],"code":{"coding":[{"system":"http://loinc.org","code":"31146-4"}]},"subject":{"reference":"Patient/1208297a-ae99-43eb-901b-05c29e5c97ad"},"effectiveDateTime":"2022-03-30T00:00:00+00:00","valueRatio":{"numerator":{"value":1},"denominator":{"value":64}}},"request":{"method":"POST","url":"Observation"}},{"fullUrl":"Observation/d5bdf054-4ba2-4320-8e15-c72beabaca1b","resource":{"resourceType":"Observation","id":"d5bdf054-4ba2-4320-8e15-c72beabaca1b","meta":{"profile":["http://hl7.org/fhir/us/core/StructureDefinition/us-core-observation-lab"]},"status":"final","category":[{"coding":[{"system":"http://terminology.hl7.org/CodeSystem/observation-category","code":"laboratory","display":"Laboratory"}]}],"code":{"coding":[{"system":"http://loinc.org","code":"47235-7"}]},"subject":{"reference":"Patient/1208297a-ae99-43eb-901b-05c29e5c97ad"},"effectiveDateTime":"2022-06-27T00:00:00+00:00","valueRatio":{"numerator":{"value":1},"denominator":{"value":64}}},"request":{"method":"POST","url":"Observation"}},{"fullUrl":"Observation/17c2859a-69da-4902-b00a-47abfa863783","resource":{"resourceType":"Observation","id":"17c2859a-69da-4902-b00a-47abfa863783","meta":{"profile":["http://hl7.org/fhir/us/core/StructureDefinition/us-core-observation-lab"]},"status":"final","category":[{"coding":[{"system":"http://terminology.hl7.org/CodeSystem/observation-category","code":"laboratory","display":"Laboratory"}]}],"code":{"coding":[{"system":"http://loinc.org","code":"46203-6"}]},"subject":{"reference":"Patient/1208297a-ae99-43eb-901b-05c29e5c97ad"},"effectiveDateTime":"2022-08-09T00:00:00+00:00","valueRatio":{"numerator":{"value":1},"denominator":{"value":4}}},"request":{"method":"POST","url":"Observation"}},{"fullUrl":"Condition/e4f74bea-5e43-4040-9d90-8e4cb3087070","resource":{"resourceType":"Condition","id":"e4f74bea-5e43-4040-9d90-8e4cb3087070","meta":{"profile":["http://hl7.org/fhir/us/core/StructureDefinition/us-core-condition"]},"clinicalStatus":{"coding":[{"system":"http://terminology.hl7.org/CodeSystem/condition-clinical","code":"active","display":"Active"}]},"category":[{"coding":[{"system":"http://terminology.hl7.org/CodeSystem/condition-category","code":"problem-list-item"}]}],"code":{"coding":[{"system":"http://snomed.info/sct","code":"91554004"}]},"subject":{"reference":"Patient/1208297a-ae99-43eb-901b-05c29e5c97ad"},"onsetDateTime":"2022-07-16T00:00:00+00:00"},"request":{"method":"POST","url":"Condition"}},{"fullUrl":"Condition/eba207fa-c42a-4a89-884f-19f98b76998b","resource":{"resourceType":"Condition","id":"eba207fa-c42a-4a89-884f-19f98b76998b","meta":{"profile":["http://hl7.org/fhir/us/core/StructureDefinition/us-core-condition"]},"clinicalStatus":{"coding":[{"system":"http://terminology.hl7.org/CodeSystem/condition-clinical","code":"active","display":"Active"}]},"category":[{"coding":[{"system":"http://terminology.hl7.org/CodeSystem/condition-category","code":"problem-list-item"}]}],"code":{"coding":[{"system":"http://snomed.info/sct","code":"736686006"}]},"subject":{"reference":"Patient/1208297a-ae99-43eb-901b-05c29e5c97ad"},"onsetDateTime":"2022-01-05T00:00:00+00:00"},"request":{"method":"POST","url":"Condition"}},{"fullUrl":"Condition/3ac44813-0575-4919-bc64-7e2e7c34ca91","resource":{"resourceType":"Condition","id":"3ac44813-0575-4919-bc64-7e2e7c34ca91","meta":{"profile":["http://hl7.org/fhir/us/core/StructureDefinition/us-core-condition"]},"clinicalStatus":{"coding":[{"system":"http://terminology.hl7.org/CodeSystem/condition-clinical","code":"active","display":"Active"}]},"category":[{"coding":[{"system":"http://terminology.hl7.org/CodeSystem/condition-category","code":"problem-list-item"}]}],"code":{"coding":[{"system":"http://snomed.info/sct","code":"418290006"}]},"subject":{"reference":"Patient/1208297a-ae99-43eb-901b-05c29e5c97ad"},"onsetDateTime":"2022-07-28T00:00:00+00:00"},"request":{"method":"POST","url":"Condition"}},{"fullUrl":"Condition/eac6804e-3bfa-4893-98f5-826231649e1e","resource":{"resourceType":"Condition","id":"eac6804e-3bfa-4893-98f5-826231649e1e","meta":{"profile":["http://hl7.org/fhir/us/core/StructureDefinition/us-core-condition"]},"clinicalStatus":{"coding":[{"system":"http://terminology.hl7.org/CodeSystem/condition-clinical","code":"active","display":"Active"}]},"category":[{"coding":[{"system":"http://terminology.hl7.org/CodeSystem/condition-category","code":"problem-list-item"}]}],"code":{"coding":[{"system":"http://snomed.info/sct","code":"736686006"}]},"subject":{"reference":"Patient/1208297a-ae99-43eb-901b-05c29e5c97ad"},"onsetDateTime":"2022-04-13T00:00:00+00:00"},"request":{"method":"POST","url":"Condition"}},{"fullUrl":"Condition/04310755-f083-4c1f-a8dd-5c3feaac8b2a","resource":{"resourceType":"Condition","id":"04310755-f083-4c1f-a8dd-5c3feaac8b2a","meta":{"profile":["http://hl7.org/fhir/us/core/StructureDefinition/us-core-condition"]},"clinicalStatus":{"coding":[{"system":"http://terminology.hl7.org/CodeSystem/condition-clinical","code":"active","display":"Active"}]},"category":[{"coding":[{"system":"http://terminology.hl7.org/CodeSystem/condition-category","code":"problem-list-item"}]}],"code":{"coding":[{"system":"http://snomed.info/sct","code":"91554004"}]},"subject":{"reference":"Patient/1208297a-ae99-43eb-901b-05c29e5c97ad"},"onsetDateTime":"2022-05-27T00:00:00+00:00"},"request":{"method":"POST","url":"Condition"}},{"fullUrl":"Condition/d7a6889e-5514-4782-a776-d22c59e4cca2","resource":{"resourceType":"Condition","id":"d7a6889e-5514-4782-a776-d22c59e4cca2","meta":{"profile":["http://hl7.org/fhir/us/core/StructureDefinition/us-core-condition"]},"clinicalStatus":{"coding":[{"system":"http://terminology.hl7.org/CodeSystem/condition-clinical","code":"active","display":"Active"}]},"category":[{"coding":[{"system":"http://terminology.hl7.org/CodeSystem/condition-category","code":"problem-list-item"}]}],"code":{"coding":[{"system":"http://snomed.info/sct","code":"44882003"}]},"subject":{"reference":"Patient/1208297a-ae99-43eb-901b-05c29e5c97ad"},"onsetDateTime":"2022-03-28T00:00:00+00:00"},"request":{"method":"POST","url":"Condition"}},{"fullUrl":"Condition/6bb4330c-6b01-4a64-aeec-4ac51ed87651","resource":{"resourceType":"Condition","id":"6bb4330c-6b01-4a64-aeec-4ac51ed87651","meta":{"profile":["http://hl7.org/fhir/us/core/StructureDefinition/us-core-condition"]},"clinicalStatus":{"coding":[{"system":"http://terminology.hl7.org/CodeSystem/condition-clinical","code":"active","display":"Active"}]},"category":[{"coding":[{"system":"http://terminology.hl7.org/CodeSystem/condition-category","code":"problem-list-item"}]}],"code":{"coding":[{"system":"http://snomed.info/sct","code":"736686006"}]},"subject":{"reference":"Patient/1208297a-ae99-43eb-901b-05c29e5c97ad"},"onsetDateTime":"2022-03-29T00:00:00+00:00"},"request":{"method":"POST","url":"Condition"}},{"fullUrl":"Observation/ee8ca541-bf3f-4cfc-b86a-82428aad9811","resource":{"resourceType":"Observation","id":"ee8ca541-bf3f-4cfc-b86a-82428aad9811","meta":{"profile":["http://hl7.org/fhir/us/core/StructureDefinition/us-core-observation-lab"]},"status":"final","category":[{"coding":[{"system":"http://terminology.hl7.org/CodeSystem/observation-category","code":"laboratory","display":"Laboratory"}]}],"code":{"coding":[{"system":"http://loinc.org","code":"49498-9"}]},"subject":{"reference":"Patient/1208297a-ae99-43eb-901b-05c29e5c97ad"},"effectiveDateTime":"2022-07-01T00:00:00+00:00","valueQuantity":{"value":10.2}},"request":{"method":"POST","url":"Observation"}},{"fullUrl":"Observation/fb4a04f8-eab5-470b-a7d0-0bd5665a6a52","resource":{"resourceType":"Observation","id":"fb4a04f8-eab5-470b-a7d0-0bd5665a6a52","meta":{"profile":["http://hl7.org/fhir/us/core/StructureDefinition/us-core-observation-lab"]},"status":"final","category":[{"coding":[{"system":"http://terminology.hl7.org/CodeSystem/observation-category","code":"laboratory","display":"Laboratory"}]}],"code":{"coding":[{"system":"http://loinc.org","code":"26464-8"}]},"subject":{"reference":"Patient/1208297a-ae99-43eb-901b-05c29e5c97ad"},"effectiveDateTime":"2022-08-14T00:00:00+00:00","valueQuantity":{"value":8.2}},"request":{"method":"POST","url":"Observation"}},{"fullUrl":"Observation/2d668068-4f54-4450-80e3-71cdf5daa069","resource":{"resourceType":"Observation","id":"2d668068-4f54-4450-80e3-71cdf5daa069","meta":{"profile":["http://hl7.org/fhir/us/core/StructureDefinition/us-core-observation-lab"]},"status":"final","category":[{"coding":[{"system":"http://terminology.hl7.org/CodeSystem/observation-category","code":"laboratory","display":"Laboratory"}]}],"code":{"coding":[{"system":"http://loinc.org","code":"804-5"}]},"subject":{"reference":"Patient/1208297a-ae99-43eb-901b-05c29e5c97ad"},"effectiveDateTime":"2022-11-03T00:00:00+00:00","valueQuantity":{"value":5.8}},"request":{"method":"POST","url":"Observation"}},{"fullUrl":"Observation/7ac3a619-6eb2-4f83-9238-ff1545b4cd25","resource":{"resourceType":"Observation","id":"7ac3a619-6eb2-4f83-9238-ff1545b4cd25","meta":{"profile":["http://hl7.org/fhir/us/core/StructureDefinition/us-core-bmi"]},"status":"final","category":[{"coding":[{"system":"http://terminology.hl7.org/CodeSystem/observation-category","code":"vital-signs","display":"Vital Signs"}]}],"code":{"coding":[{"system":"http://loinc.org","code":"39156-5"}]},"subject":{"reference":"Patient/1208297a-ae99-43eb-901b-05c29e5c97ad"},"effectiveDateTime":"2022-08-23T00:00:00+00:00","valueQuantity":{"value":23.36,"unit":"kg/m2","system":"http://unitsofmeasure.org","code":"kg/m2"}},"request":{"method":"POST","url":"Observation"}},{"fullUrl":"Observation/8974a5b8-6e79-434f-9538-da286dba0207","resource":{"resourceType":"Observation","id":"8974a5b8-6e79-434f-9538-da286dba0207","meta":{"profile":["http://hl7.org/fhir/us/core/StructureDefinition/us-core-bmi"]},"status":"final","category":[{"coding":[{"system":"http://terminology.hl7.org/CodeSystem/observation-category","code":"vital-signs","display":"Vital Signs"}]}],"code":{"coding":[{"system":"http://loinc.org","code":"39156-5"}]},"subject":{"reference":"Patient/1208297a-ae99-43eb-901b-05c29e5c97ad"},"effectiveDateTime":"2022-06-15T00:00:00+00:00","valueQuantity":{"value":17.2,"unit":"kg/m2","system":"http://unitsofmeasure.org","code":"kg/m2"}},"request":{"method":"POST","url":"Observation"}},{"fullUrl":"Observation/1b432371-10d4-411b-b3b4-c4b5295fb30a","resource":{"resourceType":"Observation","id":"1b432371-10d4-411b-b3b4-c4b5295fb30a","meta":{"profile":["http://hl7.org/fhir/us/core/StructureDefinition/us-core-head-circumference"]},"status":"final","category":[{"coding":[{"system":"http://terminology.hl7.org/CodeSystem/observation-category","code":"vital-signs","display":"Vital Signs"}]}],"code":{"coding":[{"system":"http://loinc.org","code":"9843-4"}]},"subject":{"reference":"Patient/1208297a-ae99-43eb-901b-05c29e5c97ad"},"effectiveDateTime":"2022-12-29T00:00:00+00:00","valueQuantity":{"value":3.5,"unit":"Inch","system":"http://unitsofmeasure.org","code":"[in_i]"}},"request":{"method":"POST","url":"Observation"}},{"fullUrl":"Observation/0848e954-a389-4f7e-9ee2-e8564af71844","resource":{"resourceType":"Observation","id":"0848e954-a389-4f7e-9ee2-e8564af71844","meta":{"profile":["http://hl7.org/fhir/us/core/StructureDefinition/us-core-head-circumference"]},"status":"final","category":[{"coding":[{"system":"http://terminology.hl7.org/CodeSystem/observation-category","code":"vital-signs","display":"Vital Signs"}]}],"code":{"coding":[{"system":"http://loinc.org","code":"9843-4"}]},"subject":{"reference":"Patient/1208297a-ae99-43eb-901b-05c29e5c97ad"},"effectiveDateTime":"2022-07-08T00:00:00+00:00","valueQuantity":{"value":6.2,"unit":"Inch","system":"http://unitsofmeasure.org","code":"[in_i]"}},"request":{"method":"POST","url":"Observation"}},{"fullUrl":"Observation/7968aa74-6a6b-42fc-96a0-4ded08b7663f","resource":{"resourceType":"Observation","id":"7968aa74-6a6b-42fc-96a0-4ded08b7663f","meta":{"profile":["http://hl7.org/fhir/us/core/StructureDefinition/us-core-body-height"]},"status":"final","category":[{"coding":[{"system":"http://terminology.hl7.org/CodeSystem/observation-category","code":"vital-signs","display":"Vital Signs"}]}],"code":{"coding":[{"system":"http://loinc.org","code":"8302-2"}]},"subject":{"reference":"Patient/1208297a-ae99-43eb-901b-05c29e5c97ad"},"effectiveDateTime":"2022-06-09T00:00:00+00:00","valueQuantity":{"value":75.2,"unit":"Inch","system":"http://unitsofmeasure.org","code":"[in_i]"}},"request":{"method":"POST","url":"Observation"}},{"fullUrl":"Observation/1a79531c-147b-4c72-8d82-d425c888dbd2","resource":{"resourceType":"Observation","id":"1a79531c-147b-4c72-8d82-d425c888dbd2","meta":{"profile":["http://hl7.org/fhir/us/core/StructureDefinition/us-core-body-weight"]},"status":"final","category":[{"coding":[{"system":"http://terminology.hl7.org/CodeSystem/observation-category","code":"vital-signs","display":"Vital Signs"}]}],"code":{"coding":[{"system":"http://loinc.org","code":"29463-7"}]},"subject":{"reference":"Patient/1208297a-ae99-43eb-901b-05c29e5c97ad"},"effectiveDateTime":"2022-01-10T00:00:00+00:00","valueQuantity":{"value":22.12,"unit":"kilogram","system":"http://unitsofmeasure.org","code":"kg"}},"request":{"method":"POST","url":"Observation"}},{"fullUrl":"Observation/2f3276d1-f45c-4bbe-858a-74b308d1f605","resource":{"resourceType":"Observation","id":"2f3276d1-f45c-4bbe-858a-74b308d1f605","meta":{"profile":["http://hl7.org/fhir/us/core/StructureDefinition/us-core-body-weight"]},"status":"final","category":[{"coding":[{"system":"http://terminology.hl7.org/CodeSystem/observation-category","code":"vital-signs","display":"Vital Signs"}]}],"code":{"coding":[{"system":"http://loinc.org","code":"29463-7"}]},"subject":{"reference":"Patient/1208297a-ae99-43eb-901b-05c29e5c97ad"},"effectiveDateTime":"2022-02-02T00:00:00+00:00","valueQuantity":{"value":74.59,"unit":"kilogram","system":"http://unitsofmeasure.org","code":"kg"}},"request":{"method":"POST","url":"Observation"}},{"fullUrl":"Observation/8a722185-e413-4242-8806-10a2467462ac","resource":{"resourceType":"Observation","id":"8a722185-e413-4242-8806-10a2467462ac","meta":{"profile":["http://hl7.org/fhir/us/core/StructureDefinition/us-core-body-temperature"]},"status":"final","category":[{"coding":[{"system":"http://terminology.hl7.org/CodeSystem/observation-category","code":"vital-signs","display":"Vital Signs"}]}],"code":{"coding":[{"system":"http://loinc.org","code":"8310-5"}]},"subject":{"reference":"Patient/1208297a-ae99-43eb-901b-05c29e5c97ad"},"effectiveDateTime":"2022-02-09T00:00:00+00:00","valueQuantity":{"value":57.16,"unit":"Degrees Fahrenheit","system":"http://unitsofmeasure.org","code":"[degF]"}},"request":{"method":"POST","url":"Observation"}},{"fullUrl":"Observation/808c4987-0932-4e9f-aa22-29d885807ee7","resource":{"resourceType":"Observation","id":"808c4987-0932-4e9f-aa22-29d885807ee7","meta":{"profile":["http://hl7.org/fhir/us/core/StructureDefinition/us-core-body-temperature"]},"status":"final","category":[{"coding":[{"system":"http://terminology.hl7.org/CodeSystem/observation-category","code":"vital-signs","display":"Vital Signs"}]}],"code":{"coding":[{"system":"http://loinc.org","code":"8310-5"}]},"subject":{"reference":"Patient/1208297a-ae99-43eb-901b-05c29e5c97ad"},"effectiveDateTime":"2022-10-27T00:00:00+00:00","valueQuantity":{"value":137.88,"unit":"Degrees Fahrenheit","system":"http://unitsofmeasure.org","code":"[degF]"}},"request":{"method":"POST","url":"Observation"}},{"fullUrl":"Observation/2431111c-9058-4bbb-b6a7-97051ff168a0","resource":{"resourceType":"Observation","id":"2431111c-9058-4bbb-b6a7-97051ff168a0","meta":{"profile":["http://hl7.org/fhir/us/core/StructureDefinition/us-core-heart-rate"]},"status":"final","category":[{"coding":[{"system":"http://terminology.hl7.org/CodeSystem/observation-category","code":"vital-signs","display":"Vital Signs"}]}],"code":{"coding":[{"system":"http://loinc.org","code":"8867-4"}]},"subject":{"reference":"Patient/1208297a-ae99-43eb-901b-05c29e5c97ad"},"effectiveDateTime":"2022-12-16T00:00:00+00:00","valueQuantity":{"value":98.9,"unit":"Per Minute","system":"http://unitsofmeasure.org","code":"/min"}},"request":{"method":"POST","url":"Observation"}},{"fullUrl":"Observation/7f848386-558e-419b-9815-e928a38ce915","resource":{"resourceType":"Observation","id":"7f848386-558e-419b-9815-e928a38ce915","meta":{"profile":["http://hl7.org/fhir/us/core/StructureDefinition/us-core-heart-rate"]},"status":"final","category":[{"coding":[{"system":"http://terminology.hl7.org/CodeSystem/observation-category","code":"vital-signs","display":"Vital Signs"}]}],"code":{"coding":[{"system":"http://loinc.org","code":"8867-4"}]},"subject":{"reference":"Patient/1208297a-ae99-43eb-901b-05c29e5c97ad"},"effectiveDateTime":"2022-05-21T00:00:00+00:00","valueQuantity":{"value":98.1,"unit":"Per Minute","system":"http://unitsofmeasure.org","code":"/min"}},"request":{"method":"POST","url":"Observation"}},{"fullUrl":"Patient/02355857-e63f-4a82-a61c-30df2675e737","resource":{"resourceType":"Patient","id":"02355857-e63f-4a82-a61c-30df2675e737","meta":{"profile":["http://hl7.org/fhir/us/core/StructureDefinition/us-core-patient"]},"extension":[{"extension":[{"url":"ombCategory","valueCoding":{"system":"urn:oid:2.16.840.1.113883.6.238","code":"2106-3","display":"White"}},{"url":"text","valueString":"White"}],"url":"http://hl7.org/fhir/us/core/StructureDefinition/us-core-race"},{"extension":[{"url":"ombCategory","valueCoding":{"system":"urn:oid:2.16.840.1.113883.6.238","code":"2135-2","display":"Hispanic or Latino"}},{"url":"text","valueString":"Hispanic or Latino"}],"url":"http://hl7.org/fhir/us/core/StructureDefinition/us-core-ethnicity"}],"identifier":[{"type":{"coding":[{"system":"http://terminology.hl7.org/CodeSystem/v2-0203","code":"MR"}]},"system":"urn:fhirgen:mrn","value":"643-86-2959"}],"name":[{"use":"official","family":"Hansen","given":["Crystal"]},{"use":"maiden","family":"Grant"}],"telecom":[{"system":"phone","value":"+1-593-603-0772x308","use":"home"},{"system":"email","value":"craigtimothy@gmail.com","use":"work"}],"gender":"other","birthDate":"1965-05-07","address":[{"use":"home","line":["32712 James Meadows"],"city":"Brianton","state":"WV","postalCode":"38279"},{"use":"old","line":["5555 Kim Cove Apt. 018"],"city":"North Tanya","state":"WI","postalCode":"20166"}]},"request":{"method":"POST","url":"Patient"}},{"fullUrl":"Observation/90d6d98b-2d08-4d7e-9c0f-9d43764a787d","resource":{"resourceType":"Observation","id":"90d6d98b-2d08-4d7e-9c0f-9d43764a787d","meta":{"profile":["http://hl7.org/fhir/us/core/StructureDefinition/us-core-observation-lab"]},"status":"final","category":[{"coding":[{"system":"http://terminology.hl7.org/CodeSystem/observation-category","code":"laboratory","display":"Laboratory"}]}],"code":{"coding":[{"system":"http://loinc.org","code":"47235-7"}]},"subject":{"reference":"Patient/02355857-e63f-4a82-a61c-30df2675e737"},"effectiveDateTime":"2022-05-18T00:00:00+00:00","valueRatio":{"numerator":{"value":1},"denominator":{"value":32}}},"request":{"method":"POST","url":"Observation"}},{"fullUrl":"Observation/e8b42a38-bca2-4d60-9f3d-9ad632f8a607","resource":{"resourceType":"Observation","id":"e8b42a38-bca2-4d60-9f3d-9ad632f8a607","meta":{"profile":["http://hl7.org/fhir/us/core/StructureDefinition/us-core-observation-lab"]},"status":"final","category":[{"coding":[{"system":"http://terminology.hl7.org/CodeSystem/observation-category","code":"laboratory","display":"Laboratory"}]}],"code":{"coding":[{"system":"http://loinc.org","code":"31147-2"}]},"subject":{"reference":"Patient/02355857-e63f-4a82-a61c-30df2675e737"},"effectiveDateTime":"2022-02-16T00:00:00+00:00","valueRatio":{"numerator":{"value":1},"denominator":{"value":32}}},"request":{"method":"POST","url":"Observation"}},{"fullUrl":"Condition/0a6b907d-f09c-449d-8f61-fc3bc33a8366","resource":{"resourceType":"Condition","id":"0a6b907d-f09c-449d-8f61-fc3bc33a8366","meta":{"profile":["http://hl7.org/fhir/us/core/StructureDefinition/us-core-condition"]},"clinicalStatus":{"coding":[{"system":"http://terminology.hl7.org/CodeSystem/condition-clinical","code":"active","display":"Active"}]},"category":[{"coding":[{"system":"http://terminology.hl7.org/CodeSystem/condition-category","code":"problem-list-item"}]}],"code":{"coding":[{"system":"http://snomed.info/sct","code":"709977002"}]},"subject":{"reference":"Patient/02355857-e63f-4a82-a61c-30df2675e737"},"onsetDateTime":"2022-09-06T00:00:00+00:00"},"request":{"method":"POST","url":"Condition"}},{"fullUrl":"Condition/cf87c7da-8dad-48d5-b3ad-2b456c1b6802","resource":{"resourceType":"Condition","id":"cf87c7da-8dad-48d5-b3ad-2b456c1b6802","meta":{"profile":["http://hl7.org/fhir/us/core/StructureDefinition/us-core-condition"]},"clinicalStatus":{"coding":[{"system":"http://terminology.hl7.org/CodeSystem/condition-clinical","code":"active","display":"Active"}]},"category":[{"coding":[{"system":"http://terminology.hl7.org/CodeSystem/condition-category","code":"problem-list-item"}]}],"code":{"coding":[{"system":"http://snomed.info/sct","code":"736686006"}]},"subject":{"reference":"Patient/02355857-e63f-4a82-a61c-30df2675e737"},"onsetDateTime":"2022-07-20T00:00:00+00:00"},"request":{"method":"POST","url":"Condition"}},{"fullUrl":"Condition/587e4924-e7c7-4867-a7cc-7f6eac5b2d6b","resource":{"resourceType":"Condition","id":"587e4924-e7c7-4867-a7cc-7f6eac5b2d6b","meta":{"profile":["http://hl7.org/fhir/us/core/StructureDefinition/us-core-condition"]},"clinicalStatus":{"coding":[{"system":"http://terminology.hl7.org/CodeSystem/condition-clinical","code":"active","display":"Active"}]},"category":[{"coding":[{"system":"http://terminology.hl7.org/CodeSystem/condition-category","code":"problem-list-item"}]}],"code":{"coding":[{"system":"http://snomed.info/sct","code":"44882003"}]},"subject":{"reference":"Patient/02355857-e63f-4a82-a61c-30df2675e737"},"onsetDateTime":"2022-03-24T00:00:00+00:00"},"request":{"method":"POST","url":"Condition"}},{"fullUrl":"Condition/ac1f969c-6673-4d0a-8753-35d880f0c20e","resource":{"resourceType":"Condition","id":"ac1f969c-6673-4d0a-8753-35d880f0c20e","meta":{"profile":["http://hl7.org/fhir/us/core/StructureDefinition/us-core-condition"]},"clinicalStatus":{"coding":[{"system":"http://terminology.hl7.org/CodeSystem/condition-clinical","code":"active","display":"Active"}]},"category":[{"coding":[{"system":"http://terminology.hl7.org/CodeSystem/condition-category","code":"problem-list-item"}]}],"code":{"coding":[{"system":"http://snomed.info/sct","code":"44882003"}]},"subject":{"reference":"Patient/02355857-e63f-4a82-a61c-30df2675e737"},"onsetDateTime":"2022-05-16T00:00:00+00:00"},"request":{"method":"POST","url":"Condition"}},{"fullUrl":"Condition/3cca51af-9ac8-4681-8cc3-c178e6f10ffd","resource":{"resourceType":"Condition","id":"3cca51af-9ac8-4681-8cc3-c178e6f10ffd","meta":{"profile":["http://hl7.org/fhir/us/core/StructureDefinition/us-core-condition"]},"clinicalStatus":{"coding":[{"system":"http://terminology.hl7.org/CodeSystem/condition-clinical","code":"active","display":"Active"}]},"category":[{"coding":[{"system":"http://terminology.hl7.org/CodeSystem/condition-category","code":"problem-list-item"}]}],"code":{"coding":[{"system":"http://snomed.info/sct","code":"91554004"}]},"subject":{"reference":"Patient/02355857-e63f-4a82-a61c-30df2675e737"},"onsetDateTime":"2022-02-14T00:00:00+00:00"},"request":{"method":"POST","url":"Condition"}},{"fullUrl":"Observation/6d73ea16-a92c-4e07-b2aa-ccb2cd771330","resource":{"resourceType":"Observation","id":"6d73ea16-a92c-4e07-b2aa-ccb2cd771330","meta":{"profile":["http://hl7.org/fhir/us/core/StructureDefinition/us-core-observation-lab"]},"status":"final","category":[{"coding":[{"system":"http://terminology.hl7.org/CodeSystem/observation-category","code":"laboratory","display":"Laboratory"}]}],"code":{"coding":[{"system":"http://loinc.org","code":"26464-8"}]},"subject":{"reference":"Patient/02355857-e63f-4a82-a61c-30df2675e737"},"effectiveDateTime":"2022-06-19T00:00:00+00:00","valueQuantity":{"value":6}},"request":{"method":"POST","url":"Observation"}},{"fullUrl":"Observation/c32ab9ee-5eb2-4dcd-8029-4c8259879380","resource":{"resourceType":"Observation","id":"c32ab9ee-5eb2-4dcd-8029-4c8259879380","meta":{"profile":["http://hl7.org/fhir/us/core/StructureDefinition/us-core-observation-lab"]},"status":"final","category":[{"coding":[{"system":"http://terminology.hl7.org/CodeSystem/observation-category","code":"laboratory","display":"Laboratory"}]}],"code":{"coding":[{"system":"http://loinc.org","code":"49498-9"}]},"subject":{"reference":"Patient/02355857-e63f-4a82-a61c-30df2675e737"},"effectiveDateTime":"2022-03-28T00:00:00+00:00","valueQuantity":{"value":8.3}},"request":{"method":"POST","url":"Observation"}},{"fullUrl":"Observation/2cba4a35-ded8-4e27-a02a-20fb6bdb4455","resource":{"resourceType":"Observation","id":"2cba4a35-ded8-4e27-a02a-20fb6bdb4455","meta":{"profile":["http://hl7.org/fhir/us/core/StructureDefinition/us-core-observation-lab"]},"status":"final","category":[{"coding":[{"system":"http://terminology.hl7.org/CodeSystem/observation-category","code":"laboratory","display":"Laboratory"}]}],"code":{"coding":[{"system":"http://loinc.org","code":"804-5"}]},"subject":{"reference":"Patient/02355857-e63f-4a82-a61c-30df2675e737"},"effectiveDateTime":"2022-12-02T00:00:00+00:00","valueQuantity":{"value":9.8}},"request":{"method":"POST","url":"Observation"}},{"fullUrl":"Observation/f1c81404-0860-4975-a092-046638111df1","resource":{"resourceType":"Observation","id":"f1c81404-0860-4975-a092-046638111df1","meta":{"profile":["http://hl7.org/fhir/us/core/StructureDefinition/us-core-bmi"]},"status":"final","category":[{"coding":[{"system":"http://terminology.hl7.org/CodeSystem/observation-category","code":"vital-signs","display":"Vital Signs"}]}],"code":{"coding":[{"system":"http://loinc.org","code":"39156-5"}]},"subject":{"reference":"Patient/02355857-e63f-4a82-a61c-30df2675e737"},"effectiveDateTime":"2022-07-08T00:00:00+00:00","valueQuantity":{"value":23.19,"unit":"kg/m2","system":"http://unitsofmeasure.org","code":"kg/m2"}},"request":{"method":"POST","url":"Observation"}},{"fullUrl":"Observation/86012cbd-187b-4741-a7fc-c2fd508e39a2","resource":{"resourceType":"Observation","id":"86012cbd-187b-4741-a7fc-c2fd508e39a2","meta":{"profile":["http://hl7.org/fhir/us/core/StructureDefinition/us-core-head-circumference"]},"status":"final","category":[{"coding":[{"system":"http://terminology.hl7.org/CodeSystem/observation-category","code":"vital-signs","display":"Vital Signs"}]}],"code":{"coding":[{"system":"http://loinc.org","code":"9843-4"}]},"subject":{"reference":"Patient/02355857-e63f-4a82-a61c-30df2675e737"},"effectiveDateTime":"2022-01-24T00:00:00+00:00","valueQuantity":{"value":4.4,"unit":"Inch","system":"http://unitsofmeasure.org","code":"[in_i]"}},"request":{"method":"POST","url":"Observation"}},{"fullUrl":"Observation/cff8eb05-fbc2-475f-a883-6f4f6cf5c9fa","resource":{"resourceType":"Observation","id":"cff8eb05-fbc2-475f-a883-6f4f6cf5c9fa","meta":{"profile":["http://hl7.org/fhir/us/core/StructureDefinition/us-core-head-circumference"]},"status":"final","category":[{"coding":[{"system":"http://terminology.hl7.org/CodeSystem/observation-category","code":"vital-signs","display":"Vital Signs"}]}],"code":{"coding":[{"system":"http://loinc.org","code":"9843-4"}]},"subject":{"reference":"Patient/02355857-e63f-4a82-a61c-30df2675e737"},"effectiveDateTime":"2022-09-06T00:00:00+00:00","valueQuantity":{"value":1.6,"unit":"Inch","system":"http://unitsofmeasure.org","code":"[in_i]"}},"request":{"method":"POST","url":"Observation"}},{"fullUrl":"Observation/95a3c75f-1290-43b3-a703-1c833a880de2","resource":{"resourceType":"Observation","id":"95a3c75f-1290-43b3-a703-1c833a880de2","meta":{"profile":["http://hl7.org/fhir/us/core/StructureDefinition/us-core-body-height"]},"status":"final","category":[{"coding":[{"system":"http://terminology.hl7.org/CodeSystem/observation-category","code":"vital-signs","display":"Vital Signs"}]}],"code":{"coding":[{"system":"http://loinc.org","code":"8302-2"}]},"subject":{"reference":"Patient/02355857-e63f-4a82-a61c-30df2675e737"},"effectiveDateTime":"2022-09-02T00:00:00+00:00","valueQuantity":{"value":71.2,"unit":"Inch","system":"http://unitsofmeasure.org","code":"[in_i]"}},"request":{"method":"POST","url":"Observation"}},{"fullUrl":"Observation/67739030-e065-43d3-8b81-2459a6214615","resource":{"resourceType":"Observation","id":"67739030-e065-43d3-8b81-2459a6214615","meta":{"profile":["http://hl7.org/fhir/us/core/StructureDefinition/us-core-body-weight"]},"status":"final","category":[{"coding":[{"system":"http://terminology.hl7.org/CodeSystem/observation-category","code":"vital-signs","display":"Vital Signs"}]}],"code":{"coding":[{"system":"http://loinc.org","code":"29463-7"}]},"subject":{"reference":"Patient/02355857-e63f-4a82-a61c-30df2675e737"},"effectiveDateTime":"2022-11-14T00:00:00+00:00","valueQuantity":{"value":40.96,"unit":"kilogram","system":"http://unitsofmeasure.org","code":"kg"}},"request":{"method":"POST","url":"Observation"}},{"fullUrl":"Observation/6c92f72e-a853-413c-af79-ea11eaf5fa62","resource":{"resourceType":"Observation","id":"6c92f72e-a853-413c-af79-ea11eaf5fa62","meta":{"profile":["http://hl7.org/fhir/us/core/StructureDefinition/us-core-body-temperature"]},"status":"final","category":[{"coding":[{"system":"http://terminology.hl7.org/CodeSystem/observation-category","code":"vital-signs","display":"Vital Signs"}]}],"code":{"coding":[{"system":"http://loinc.org","code":"8310-5"}]},"subject":{"reference":"Patient/02355857-e63f-4a82-a61c-30df2675e737"},"effectiveDateTime":"2022-11-10T00:00:00+00:00","valueQuantity":{"value":78.46,"unit":"Degrees Fahrenheit","system":"http://unitsofmeasure.org","code":"[degF]"}},"request":{"method":"POST","url":"Observation"}},{"fullUrl":"Observation/351ea1a9-dc66-455c-ac9c-68062c7a3dc9","resource":{"resourceType":"Observation","id":"351ea1a9-dc66-455c-ac9c-68062c7a3dc9","meta":{"profile":["http://hl7.org/fhir/us/core/StructureDefinition/us-core-body-temperature"]},"status":"final","category":[{"coding":[{"system":"http://terminology.hl7.org/CodeSystem/observation-category","code":"vital-signs","display":"Vital Signs"}]}],"code":{"coding":[{"system":"http://loinc.org","code":"8310-5"}]},"subject":{"reference":"Patient/02355857-e63f-4a82-a61c-30df2675e737"},"effectiveDateTime":"2022-03-18T00:00:00+00:00","valueQuantity":{"value":73.34,"unit":"Degrees Fahrenheit","system":"http://unitsofmeasure.org","code":"[degF]"}},"request":{"method":"POST","url":"Observation"}},{"fullUrl":"Observation/1890aef6-b48f-490d-a5d6-d8588d34393b","resource":{"resourceType":"Observation","id":"1890aef6-b48f-490d-a5d6-d8588d34393b","meta":{"profile":["http://hl7.org/fhir/us/core/StructureDefinition/us-core-heart-rate"]},"status":"final","category":[{"coding":[{"system":"http://terminology.hl7.org/CodeSystem/observation-category","code":"vital-signs","display":"Vital Signs"}]}],"code":{"coding":[{"system":"http://loinc.org","code":"8867-4"}]},"subject":{"reference":"Patient/02355857-e63f-4a82-a61c-30df2675e737"},"effectiveDateTime":"2022-06-18T00:00:00+00:00","valueQuantity":{"value":99.7,"unit":"Per Minute","system":"http://unitsofmeasure.org","code":"/min"}},"request":{"method":"POST","url":"Observation"}},{"fullUrl":"Observation/966049a2-827d-4d48-b079-48746f19bd39","resource":{"resourceType":"Observation","id":"966049a2-827d-4d48-b079-48746f19bd39","meta":{"profile":["http://hl7.org/fhir/us/core/StructureDefinition/us-core-heart-rate"]},"status":"final","category":[{"coding":[{"system":"http://terminology.hl7.org/CodeSystem/observation-category","code":"vital-signs","display":"Vital Signs"}]}],"code":{"coding":[{"system":"http://loinc.org","code":"8867-4"}]},"subject":{"reference":"Patient/02355857-e63f-4a82-a61c-30df2675e737"},"effectiveDateTime":"2022-04-22T00:00:00+00:00","valueQuantity":{"value":95.5,"unit":"Per Minute","system":"http://unitsofmeasure.org","code":"/min"}},"request":{"method":"POST","url":"Observation"}}]}