{"resourceType":"Bundle","id":"241b8e0e-f306-4a09-a3f3-83b4676c5b56","type":"collection","entry":[{"fullUrl":"Patient/2df23cd3-ac9d-4ce7-86a6-16502bbe88dc","resource":{"resourceType":"Patient","id":"2df23cd3-ac9d-4ce7-86a6-16502bbe88dc","meta":{"profile":["http://hl7.org/fhir/us/core/StructureDefinition/us-core-patient"]},"extension":[{"extension":[{"url":"ombCategory","valueCoding":{"system":"http://terminology.hl7.org/CodeSystem/v3-NullFlavor","code":"ASKU","display":"asked but unknown"}},{"url":"text","valueString":"asked but unknown"}],"url":"http://hl7.org/fhir/us/core/StructureDefinition/us-core-race"},{"extension":[{"url":"ombCategory","valueCoding":{"system":"urn:oid:2.16.840.1.113883.6.238","code":"2135-2","display":"Hispanic or Latino"}},{"url":"text","valueString":"Hispanic or Latino"}],"url":"http://hl7.org/fhir/us/core/StructureDefinition/us-core-ethnicity"}],"identifier":[{"type":{"coding":[{"system":"http://terminology.hl7.org/CodeSystem/v2-0203","code":"MR"}]},"system":"urn:fhirgen:mrn","value":"730-58-6743"}],"name":[{"use":"official","family":"Fisher","given":["Evan"]},{"use":"maiden","family":"Gardner"}],"telecom":[{"system":"phone","value":"+1-117-858-3834","use":"mobile"},{"system":"email","value":"blackburnnicole@hotmail.com","use":"home"}],"gender":"male","birthDate":"1958-04-23","address":[{"use":"home","line":["767 Derek Burgs"],"city":"Robertsonport","state":"KS","postalCode":"34749"},{"use":"old","line":["51940 Sullivan Plains Apt. 388"],"city":"Wendyberg","state":"MT","postalCode":"36504"}]}},{"fullUrl":"Observation/3f8c756f-c24d-4ed8-aa1e-131f36a3d34a","resource":{"resourceType":"Observation","id":"3f8c756f-c24d-4ed8-aa1e-131f36a3d34a","meta":{"profile":["http://hl7.org/fhir/us/core/StructureDefinition/us-core-observation-lab"]},"status":"final","category":[{"coding":[{"system":"http://terminology.hl7.org/CodeSystem/observation-category","code":"laboratory","display":"Laboratory"}]}],"code":{"coding":[{"system":"http://loinc.org","code":"26009-1"}]},"subject":{"reference":"Patient/2df23cd3-ac9d-4ce7-86a6-16502bbe88dc"},"effectiveDateTime":"2022-06-01T00:00:00+00:00","valueRatio":{"numerator":{"value":1},"denominator":{"value":4}}}},{"fullUrl":"Observation/9ada7918-2351-4b97-b27e-0fbdadc74b22","resource":{"resourceType":"Observation","id":"9ada7918-2351-4b97-b27e-0fbdadc74b22","meta":{"profile":["http://hl7.org/fhir/us/core/StructureDefinition/us-core-observation-lab"]},"status":"final","category":[{"coding":[{"system":"http://terminology.hl7.org/CodeSystem/observation-category","code":"laboratory","display":"Laboratory"}]}],"code":{"coding":[{"system":"http://loinc.org","code":"46203-6"}]},"subject":{"reference":"Patient/2df23cd3-ac9d-4ce7-86a6-16502bbe88dc"},"effectiveDateTime":"2022-10-27T00:00:00+00:00","valueRatio":{"numerator":{"value":1},"denominator":{"value":32}}}},{"fullUrl":"Condition/4d98cdd7-5d34-41c4-b9bf-3c5fd1e8267c","resource":{"resourceType":"Condition","id":"4d98cdd7-5d34-41c4-b9bf-3c5fd1e8267c","meta":{"profile":["http://hl7.org/fhir/us/core/StructureDefinition/us-core-condition"]},"clinicalStatus":{"coding":[{"system":"http://terminology.hl7.org/CodeSystem/condition-clinical","code":"active","display":"Active"}]},"category":[{"coding":[{"system":"http://terminology.hl7.org/CodeSystem/condition-category","code":"problem-list-item"}]}],"code":{"coding":[{"system":"http://snomed.info/sct","code":"91554004"}]},"subject":{"reference":"Patient/2df23cd3-ac9d-4ce7-86a6-16502bbe88dc"},"onsetDateTime":"2022-01-24T00:00:00+00:00"}},{"fullUrl":"Condition/94a02524-9923-43b0-ba69-a264b405acac","resource":{"resourceType":"Condition","id":"94a02524-9923-43b0-ba69-a264b405acac","meta":{"profile":["http://hl7.org/fhir/us/core/StructureDefinition/us-core-condition"]},"clinicalStatus":{"coding":[{"system":"http://terminology.hl7.org/CodeSystem/condition-clinical","code":"active","display":"Active"}]},"category":[{"coding":[{"system":"http://terminology.hl7.org/CodeSystem/condition-category","code":"problem-list-item"}]}],"code":{"coding":[{"system":"http://snomed.info/sct","code":"91554004"}]},"subject":{"reference":"Patient/2df23cd3-ac9d-4ce7-86a6-16502bbe88dc"},"onsetDateTime":"2022-01-30T00:00:00+00:00"}},{"fullUrl":"Condition/7ba44e16-aff6-4b61-8316-79790889fcf6","resource":{"resourceType":"Condition","id":"7ba44e16-aff6-4b61-8316-79790889fcf6","meta":{"profile":["http://hl7.org/fhir/us/core/StructureDefinition/us-core-condition"]},"clinicalStatus":{"coding":[{"system":"http://terminology.hl7.org/CodeSystem/condition-clinical","code":"active","display":"Active"}]},"category":[{"coding":[{"system":"http://terminology.hl7.org/CodeSystem/condition-category","code":"problem-list-item"}]}],"code":{"coding":[{"system":"http://snomed.info/sct","code":"44882003"}]},"subject":{"reference":"Patient/2df23cd3-ac9d-4ce7-86a6-16502bbe88dc"},"onsetDateTime":"2022-12-10T00:00:00+00:00"}},{"fullUrl":"Condition/d9bdc16e-50af-4367-a2a6-615411ccd511","resource":{"resourceType":"Condition","id":"d9bdc16e-50af-4367-a2a6-615411ccd511","meta":{"profile":["http://hl7.org/fhir/us/core/StructureDefinition/us-core-condition"]},"clinicalStatus":{"coding":[{"system":"http://terminology.hl7.org/CodeSystem/condition-clinical","code":"active","display":"Active"}]},"category":[{"coding":[{"system":"http://terminology.hl7.org/CodeSystem/condition-category","code":"problem-list-item"}]}],"code":{"coding":[{"system":"http://snomed.info/sct","code":"709977002"}]},"subject":{"reference":"Patient/2df23cd3-ac9d-4ce7-86a6-16502bbe88dc"},"onsetDateTime":"2022-01-29T00:00:00+00:00"}},{"fullUrl":"Condition/0c3825bc-6fe3-423b-b0de-9f45e9d20099","resource":{"resourceType":"Condition","id":"0c3825bc-6fe3-423b-b0de-9f45e9d20099","meta":{"profile":["http://hl7.org/fhir/us/core/StructureDefinition/us-core-condition"]},"clinicalStatus":{"coding":[{"system":"http://terminology.hl7.org/CodeSystem/condition-clinical","code":"active","display":"Active"}]},"category":[{"coding":[{"system":"http://terminology.hl7.org/CodeSystem/condition-category","code":"problem-list-item"}]}],"code":{"coding":[{"system":"http://snomed.info/sct","code":"709977002"}]},"subject":{"reference":"Patient/2df23cd3-ac9d-4ce7-86a6-16502bbe88dc"},"onsetDateTime":"2022-06-02T00:00:00+00:00"}},{"fullUrl":"Observation/f581d585-495a-4bd4-8e26-29605a98eb9e","resource":{"resourceType":"Observation","id":"f581d585-495a-4bd4-8e26-29605a98eb9e","meta":{"profile":["http://hl7.org/fhir/us/core/StructureDefinition/us-core-observation-lab"]},"status":"final","category":[{"coding":[{"system":"http://terminology.hl7.org/CodeSystem/observation-category","code":"laboratory","display":"Laboratory"}]}],"code":{"coding":[{"system":"http://loinc.org","code":"6690-2"}]},"subject":{"reference":"Patient/2df23cd3-ac9d-4ce7-86a6-16502bbe88dc"},"effectiveDateTime":"2022-04-25T00:00:00+00:00","valueQuantity":{"value":7.5}}},{"fullUrl":"Observation/be3001fb-3103-440a-9b1e-12ab632c6920","resource":{"resourceType":"Observation","id":"be3001fb-3103-440a-9b1e-12ab632c6920","meta":{"profile":["http://hl7.org/fhir/us/core/StructureDefinition/us-core-observation-lab"]},"status":"final","category":[{"coding":[{"system":"http://terminology.hl7.org/CodeSystem/observation-category","code":"laboratory","display":"Laboratory"}]}],"code":{"coding":[{"system":"http://loinc.org","code":"6690-2"}]},"subject":{"reference":"Patient/2df23cd3-ac9d-4ce7-86a6-16502bbe88dc"},"effectiveDateTime":"2022-12-31T00:00:00+00:00","valueQuantity":{"value":9.8}}},{"fullUrl":"Observation/e9c3afe2-9d1b-423f-821c-b703d885320d","resource":{"resourceType":"Observation","id":"e9c3afe2-9d1b-423f-821c-b703d885320d","meta":{"profile":["http://hl7.org/fhir/us/core/StructureDefinition/us-core-bmi"]},"status":"final","category":[{"coding":[{"system":"http://terminology.hl7.org/CodeSystem/observation-category","code":"vital-signs","display":"Vital Signs"}]}],"code":{"coding":[{"system":"http://loinc.org","code":"39156-5"}]},"subject":{"reference":"Patient/2df23cd3-ac9d-4ce7-86a6-16502bbe88dc"},"effectiveDateTime":"2022-08-14T00:00:00+00:00","valueQuantity":{"value":14.78,"unit":"kg/m2","system":"http://unitsofmeasure.org","code":"kg/m2"}}},{"fullUrl":"Observation/4ccc2e12-8a64-4156-a3d0-4a80499dbe40","resource":{"resourceType":"Observation","id":"4ccc2e12-8a64-4156-a3d0-4a80499dbe40","meta":{"profile":["http://hl7.org/fhir/us/core/StructureDefinition/us-core-head-circumference"]},"status":"final","category":[{"coding":[{"system":"http://terminology.hl7.org/CodeSystem/observation-category","code":"vital-signs","display":"Vital Signs"}]}],"code":{"coding":[{"system":"http://loinc.org","code":"9843-4"}]},"subject":{"reference":"Patient/2df23cd3-ac9d-4ce7-86a6-16502bbe88dc"},"effectiveDateTime":"2022-05-14T00:00:00+00:00","valueQuantity":{"value":3.4,"unit":"Inch","system":"http://unitsofmeasure.org","code":"[in_i]"}}},{"fullUrl":"Observation/96d66c80-a8de-44ee-882c-1b0e4a3dddd6","resource":{"resourceType":"Observation","id":"96d66c80-a8de-44ee-882c-1b0e4a3dddd6","meta":{"profile":["http://hl7.org/fhir/us/core/StructureDefinition/us-core-body-height"]},"status":"final","category":[{"coding":[{"system":"http://terminology.hl7.org/CodeSystem/observation-category","code":"vital-signs","display":"Vital Signs"}]}],"code":{"coding":[{"system":"http://loinc.org","code":"8302-2"}]},"subject":{"reference":"Patient/2df23cd3-ac9d-4ce7-86a6-16502bbe88dc"},"effectiveDateTime":"2022-06-06T00:00:00+00:00","valueQuantity":{"value":82.3,"unit":"Inch","system":"http://unitsofmeasure.org","code":"[in_i]"}}},{"fullUrl":"Observation/7a10174f-9e51-4b20-81f7-272c44919ac5","resource":{"resourceType":"Observation","id":"7a10174f-9e51-4b20-81f7-272c44919ac5","meta":{"profile":["http://hl7.org/fhir/us/core/StructureDefinition/us-core-body-height"]},"status":"final","category":[{"coding":[{"system":"http://terminology.hl7.org/CodeSystem/observation-category","code":"vital-signs","display":"Vital Signs"}]}],"code":{"coding":[{"system":"http://loinc.org","code":"8302-2"}]},"subject":{"reference":"Patient/2df23cd3-ac9d-4ce7-86a6-16502bbe88dc"},"effectiveDateTime":"2022-05-20T00:00:00+00:00","valueQuantity":{"value":61.7,"unit":"Inch","system":"http://unitsofmeasure.org","code":"[in_i]"}}},{"fullUrl":"Observation/7ed21233-09f1-4adb-87ab-3579a57b98c9","resource":{"resourceType":"Observation","id":"7ed21233-09f1-4adb-87ab-3579a57b98c9","meta":{"profile":["http://hl7.org/fhir/us/core/StructureDefinition/us-core-body-weight"]},"status":"final","category":[{"coding":[{"system":"http://terminology.hl7.org/CodeSystem/observation-category","code":"vital-signs","display":"Vital Signs"}]}],"code":{"coding":[{"system":"http://loinc.org","code":"29463-7"}]},"subject":{"reference":"Patient/2df23cd3-ac9d-4ce7-86a6-16502bbe88dc"},"effectiveDateTime":"2022-01-29T00:00:00+00:00","valueQuantity":{"value":66.8,"unit":"kilogram","system":"http://unitsofmeasure.org","code":"kg"}}},{"fullUrl":"Observation/d1ec441e-2a0f-4e52-a645-5d3010952a74","resource":{"resourceType":"Observation","id":"d1ec441e-2a0f-4e52-a645-5d3010952a74","meta":{"profile":["http://hl7.org/fhir/us/core/StructureDefinition/us-core-body-temperature"]},"status":"final","category":[{"coding":[{"system":"http://terminology.hl7.org/CodeSystem/observation-category","code":"vital-signs","display":"Vital Signs"}]}],"code":{"coding":[{"system":"http://loinc.org","code":"8310-5"}]},"subject":{"reference":"Patient/2df23cd3-ac9d-4ce7-86a6-16502bbe88dc"},"effectiveDateTime":"2022-12-24T00:00:00+00:00","valueQuantity":{"value":132.94,"unit":"Degrees Fahrenheit","system":"http://unitsofmeasure.org","code":"[degF]"}}},{"fullUrl":"Observation/a9fa585b-4141-4234-9d8d-12313edd1d25","resource":{"resourceType":"Observation","id":"a9fa585b-4141-4234-9d8d-12313edd1d25","meta":{"profile":["http://hl7.org/fhir/us/core/StructureDefinition/us-core-body-temperature"]},"status":"final","category":[{"coding":[{"system":"http://terminology.hl7.org/CodeSystem/observation-category","code":"vital-signs","display":"Vital Signs"}]}],"code":{"coding":[{"system":"http://loinc.org","code":"8310-5"}]},"subject":{"reference":"Patient/2df23cd3-ac9d-4ce7-86a6-16502bbe88dc"},"effectiveDateTime":"2022-10-11T00:00:00+00:00","valueQuantity":{"value":54.63,"unit":"Degrees Fahrenheit","system":"http://unitsofmeasure.org","code":"[degF]"}}},{"fullUrl":"Observation/ad04b66c-5470-416d-b9e5-223248d4a387","resource":{"resourceType":"Observation","id":"ad04b66c-5470-416d-b9e5-223248d4a387","meta":{"profile":["http://hl7.org/fhir/us/core/StructureDefinition/us-core-heart-rate"]},"status":"final","category":[{"coding":[{"system":"http://terminology.hl7.org/CodeSystem/observation-category","code":"vital-signs","display":"Vital Signs"}]}],"code":{"coding":[{"system":"http://loinc.org","code":"8867-4"}]},"subject":{"reference":"Patient/2df23cd3-ac9d-4ce7-86a6-16502bbe88dc"},"effectiveDateTime":"2022-11-09T00:00:00+00:00","valueQuantity":{"value":97.6,"unit":"Per Minute","system":"http://unitsofmeasure.org","code":"/min"}}},{"fullUrl":"Patient/138c1d69-962b-4e70-988c-554cf2deb196","resource":{"resourceType":"Patient","id":"138c1d69-962b-4e70-988c-554cf2deb196","meta":{"profile":["http://hl7.org/fhir/us/core/StructureDefinition/us-core-patient"]},"extension":[{"extension":[{"url":"ombCategory","valueCoding":{"system":"urn:oid:2.16.840.1.113883.6.238","code":"1002-5","display":"American Indian or Alaska Native"}},{"url":"text","valueString":"American Indian or Alaska Native"}],"url":"http://hl7.org/fhir/us/core/StructureDefinition/us-core-race"},{"extension":[{"url":"ombCategory","valueCoding":{"system":"urn:oid:2.16.840.1.113883.6.238","code":"2135-2","display":"Hispanic or Latino"}},{"url":"text","valueString":"Hispanic or Latino"}],"url":"http://hl7.org/fhir/us/core/StructureDefinition/us-core-ethnicity"}],"identifier":[{"type":{"coding":[{"system":"http://terminology.hl7.org/CodeSystem/v2-0203","code":"MR"}]},"system":"urn:fhirgen:mrn","value":"200-80-2853"}],"name":[{"use":"official","family":"Snyder","given":["Michael"]},{"use":"maiden","family":"Terry"}],"telecom":[{"system":"phone","value":"506-677-6136x461","use":"mobile"},{"system":"email","value":"jessicahorn@gmail.com","use":"mobile"}],"gender":"male","birthDate":"1983-09-14","address":[{"use":"home","line":["877 Gilbert Club"],"city":"West Micheal","state":"NH","postalCode":"18281"},{"use":"old","line":["05635 Randolph Shoal"],"city":"Knightton","state":"KY","postalCode":"32065"}]}},{"fullUrl":"Observation/e11ec2e8-a9a2-4a6e-bedc-720750fc35c7","resource":{"resourceType":"Observation","id":"e11ec2e8-a9a2-4a6e-bedc-720750fc35c7","meta":{"profile":["http://hl7.org/fhir/us/core/StructureDefinition/us-core-observation-lab"]},"status":"final","category":[{"coding":[{"system":"http://terminology.hl7.org/CodeSystem/observation-category","code":"laboratory","display":"Laboratory"}]}],"code":{"coding":[{"system":"http://loinc.org","code":"51475-2"}]},"subject":{"reference":"Patient/138c1d69-962b-4e70-988c-554cf2deb196"},"effectiveDateTime":"2022-03-29T00:00:00+00:00","valueRatio":{"numerator":{"value":1},"denominator":{"value":64}}}},{"fullUrl":"Observation/cf92b6d7-5a02-4b37-878b-04a31ae74b13","resource":{"resourceType":"Observation","id":"cf92b6d7-5a02-4b37-878b-04a31ae74b13","meta":{"profile":["http://hl7.org/fhir/us/core/StructureDefinition/us-core-observation-lab"]},"status":"final","category":[{"coding":[{"system":"http://terminology.hl7.org/CodeSystem/observation-category","code":"laboratory","display":"Laboratory"}]}],"code":{"coding":[{"system":"http://loinc.org","code":"11084-1"}]},"subject":{"reference":"Patient/138c1d69-962b-4e70-988c-554cf2deb196"},"effectiveDateTime":"2022-11-05T00:00:00+00:00","valueRatio":{"numerator":{"value":1},"denominator":{"value":4}}}},{"fullUrl":"Observation/0d710c21-8de5-4cd4-a4a3-51f64a8a7f67","resource":{"resourceType":"Observation","id":"0d710c21-8de5-4cd4-a4a3-51f64a8a7f67","meta":{"profile":["http://hl7.org/fhir/us/core/StructureDefinition/us-core-observation-lab"]},"status":"final","category":[{"coding":[{"system":"http://terminology.hl7.org/CodeSystem/observation-category","code":"laboratory","display":"Laboratory"}]}],"code":{"coding":[{"system":"http://loinc.org","code":"31146-4"}]},"subject":{"reference":"Patient/138c1d69-962b-4e70-988c-554cf2deb196"},"effectiveDateTime":"2022-06-28T00:00:00+00:00","valueRatio":{"numerator":{"value":1},"denominator":{"value":32}}}},{"fullUrl":"Condition/a71a797d-90c8-4af5-a862-d5806eedfcf0","resource":{"resourceType":"Condition","id":"a71a797d-90c8-4af5-a862-d5806eedfcf0","meta":{"profile":["http://hl7.org/fhir/us/core/StructureDefinition/us-core-condition"]},"clinicalStatus":{"coding":[{"system":"http://terminology.hl7.org/CodeSystem/condition-clinical","code":"active","display":"Active"}]},"category":[{"coding":[{"system":"http://terminology.hl7.org/CodeSystem/condition-category","code":"problem-list-item"}]}],"code":{"coding":[{"system":"http://snomed.info/sct","code":"44882003"}]},"subject":{"reference":"Patient/138c1d69-962b-4e70-988c-554cf2deb196"},"onsetDateTime":"2022-10-06T00:00:00+00:00"}},{"fullUrl":"Condition/4e7efbb6-a708-4238-b5a6-638347227589","resource":{"resourceType":"Condition","id":"4e7efbb6-a708-4238-b5a6-638347227589","meta":{"profile":["http://hl7.org/fhir/us/core/StructureDefinition/us-core-condition"]},"clinicalStatus":{"coding":[{"system":"http://terminology.hl7.org/CodeSystem/condition-clinical","code":"active","display":"Active"}]},"category":[{"coding":[{"system":"http://terminology.hl7.org/CodeSystem/condition-category","code":"problem-list-item"}]}],"code":{"coding":[{"system":"http://snomed.info/sct","code":"418290006"}]},"subject":{"reference":"Patient/138c1d69-962b-4e70-988c-554cf2deb196"},"onsetDateTime":"2022-06-21T00:00:00+00:00"}},{"fullUrl":"Condition/4bde8ece-d08f-4d8d-93b7-f6ea23cd6e00","resource":{"resourceType":"Condition","id":"4bde8ece-d08f-4d8d-93b7-f6ea23cd6e00","meta":{"profile":["http://hl7.org/fhir/us/core/StructureDefinition/us-core-condition"]},"clinicalStatus":{"coding":[{"system":"http://terminology.hl7.org/CodeSystem/condition-clinical","code":"active","display":"Active"}]},"category":[{"coding":[{"system":"http://terminology.hl7.org/CodeSystem/condition-category","code":"problem-list-item"}]}],"code":{"coding":[{"system":"http://snomed.info/sct","code":"736686006"}]},"subject":{"reference":"Patient/138c1d69-962b-4e70-988c-554cf2deb196"},"onsetDateTime":"2022-04-10T00:00:00+00:00"}},{"fullUrl":"Condition/8b36cca1-4e99-4111-a8c1-89332b53f55d","resource":{"resourceType":"Condition","id":"8b36cca1-4e99-4111-a8c1-89332b53f55d","meta":{"profile":["http://hl7.org/fhir/us/core/StructureDefinition/us-core-condition"]},"clinicalStatus":{"coding":[{"system":"http://terminology.hl7.org/CodeSystem/condition-clinical","code":"active","display":"Active"}]},"category":[{"coding":[{"system":"http://terminology.hl7.org/CodeSystem/condition-category","code":"problem-list-item"}]}],"code":{"coding":[{"system":"http://snomed.info/sct","code":"709977002"}]},"subject":{"reference":"Patient/138c1d69-962b-4e70-988c-554cf2deb196"},"onsetDateTime":"2022-01-29T00:00:00+00:00"}},{"fullUrl":"Observation/a341c15d-9b1f-4447-9fd9-a4d3116d2b47","resource":{"resourceType":"Observation","id":"a341c15d-9b1f-4447-9fd9-a4d3116d2b47","meta":{"profile":["http://hl7.org/fhir/us/core/StructureDefinition/us-core-observation-lab"]},"status":"final","category":[{"coding":[{"system":"http://terminology.hl7.org/CodeSystem/observation-category","code":"laboratory","display":"Laboratory"}]}],"code":{"coding":[{"system":"http://loinc.org","code":"6690-2"}]},"subject":{"reference":"Patient/138c1d69-962b-4e70-988c-554cf2deb196"},"effectiveDateTime":"2022-07-04T00:00:00+00:00","valueQuantity":{"value":4.9}}},{"fullUrl":"Observation/499f1841-9270-4408-b5f7-d7f81e30652d","resource":{"resourceType":"Observation","id":"499f1841-9270-4408-b5f7-d7f81e30652d","meta":{"profile":["http://hl7.org/fhir/us/core/StructureDefinition/us-core-observation-lab"]},"status":"final","category":[{"coding":[{"system":"http://terminology.hl7.org/CodeSystem/observation-category","code":"laboratory","display":"Laboratory"}]}],"code":{"coding":[{"system":"http://loinc.org","code":"6690-2"}]},"subject":{"reference":"Patient/138c1d69-962b-4e70-988c-554cf2deb196"},"effectiveDateTime":"2022-05-21T00:00:00+00:00","valueQuantity":{"value":6.5}}},{"fullUrl":"Observation/1dc1a817-58eb-4371-b070-eb33b11cfd9c","resource":{"resourceType":"Observation","id":"1dc1a817-58eb-4371-b070-eb33b11cfd9c","meta":{"profile":["http://hl7.org/fhir/us/core/StructureDefinition/us-core-bmi"]},"status":"final","category":[{"coding":[{"system":"http://terminology.hl7.org/CodeSystem/observation-category","code":"vital-signs","display":"Vital Signs"}]}],"code":{"coding":[{"system":"http://loinc.org","code":"39156-5"}]},"subject":{"reference":"Patient/138c1d69-962b-4e70-988c-554cf2deb196"},"effectiveDateTime":"2022-10-15T00:00:00+00:00","valueQuantity":{"value":28.24,"unit":"kg/m2","system":"http://unitsofmeasure.org","code":"kg/m2"}}},{"fullUrl":"Observation/19ecc135-7bdb-4715-bc5c-49be811f6bc7","resource":{"resourceType":"Observation","id":"19ecc135-7bdb-4715-bc5c-49be811f6bc7","meta":{"profile":["http://hl7.org/fhir/us/core/StructureDefinition/us-core-head-circumference"]},"status":"final","category":[{"coding":[{"system":"http://terminology.hl7.org/CodeSystem/observation-category","code":"vital-signs","display":"Vital Signs"}]}],"code":{"coding":[{"system":"http://loinc.org","code":"9843-4"}]},"subject":{"reference":"Patient/138c1d69-962b-4e70-988c-554cf2deb196"},"effectiveDateTime":"2022-08-24T00:00:00+00:00","valueQuantity":{"value":9.2,"unit":"Inch","system":"http://unitsofmeasure.org","code":"[in_i]"}}},{"fullUrl":"Observation/535631c6-61db-4edf-baaf-ae83e3faf927","resource":{"resourceType":"Observation","id":"535631c6-61db-4edf-baaf-ae83e3faf927","meta":{"profile":["http://hl7.org/fhir/us/core/StructureDefinition/us-core-head-circumference"]},"status":"final","category":[{"coding":[{"system":"http://terminology.hl7.org/CodeSystem/observation-category","code":"vital-signs","display":"Vital Signs"}]}],"code":{"coding":[{"system":"http://loinc.org","code":"9843-4"}]},"subject":{"reference":"Patient/138c1d69-962b-4e70-988c-554cf2deb196"},"effectiveDateTime":"2022-12-09T00:00:00+00:00","valueQuantity":{"value":1.6,"unit":"Inch","system":"http://unitsofmeasure.org","code":"[in_i]"}}},{"fullUrl":"Observation/ba1cbea1-f5c4-4dcd-8d34-197ebf769996","resource":{"resourceType":"Observation","id":"ba1cbea1-f5c4-4dcd-8d34-197ebf769996","meta":{"profile":["http://hl7.org/fhir/us/core/StructureDefinition/us-core-body-height"]},"status":"final","category":[{"coding":[{"system":"http://terminology.hl7.org/CodeSystem/observation-category","code":"vital-signs","display":"Vital Signs"}]}],"code":{"coding":[{"system":"http://loinc.org","code":"8302-2"}]},"subject":{"reference":"Patient/138c1d69-962b-4e70-988c-554cf2deb196"},"effectiveDateTime":"2022-10-18T00:00:00+00:00","valueQuantity":{"value":80.5,"unit":"Inch","system":"http://unitsofmeasure.org","code":"[in_i]"}}},{"fullUrl":"Observation/c34c15c3-f166-4f37-bf5a-f35d37a63ca0","resource":{"resourceType":"Observation","id":"c34c15c3-f166-4f37-bf5a-f35d37a63ca0","meta":{"profile":["http://hl7.org/fhir/us/core/StructureDefinition/us-core-body-weight"]},"status":"final","category":[{"coding":[{"system":"http://terminology.hl7.org/CodeSystem/observation-category","code":"vital-signs","display":"Vital Signs"}]}],"code":{"coding":[{"system":"http://loinc.org","code":"29463-7"}]},"subject":{"reference":"Patient/138c1d69-962b-4e70-988c-554cf2deb196"},"effectiveDateTime":"2022-07-10T00:00:00+00:00","valueQuantity":{"value":124.67,"unit":"kilogram","system":"http://unitsofmeasure.org","code":"kg"}}},{"fullUrl":"Observation/6bc7a28a-2445-4b47-858e-5eb30c72a8a5","resource":{"resourceType":"Observation","id":"6bc7a28a-2445-4b47-858e-5eb30c72a8a5","meta":{"profile":["http://hl7.org/fhir/us/core/StructureDefinition/us-core-body-weight"]},"status":"final","category":[{"coding":[{"system":"http://terminology.hl7.org/CodeSystem/observation-category","code":"vital-signs","display":"Vital Signs"}]}],"code":{"coding":[{"system":"http://loinc.org","code":"29463-7"}]},"subject":{"reference":"Patient/138c1d69-962b-4e70-988c-554cf2deb196"},"effectiveDateTime":"2022-05-20T00:00:00+00:00","valueQuantity":{"value":48.8,"unit":"kilogram","system":"http://unitsofmeasure.org","code":"kg"}}},{"fullUrl":"Observation/b3280871-34ff-4949-9ab2-c1437e1b1f53","resource":{"resourceType":"Observation","id":"b3280871-34ff-4949-9ab2-c1437e1b1f53","meta":{"profile":["http://hl7.org/fhir/us/core/StructureDefinition/us-core-body-temperature"]},"status":"final","category":[{"coding":[{"system":"http://terminology.hl7.org/CodeSystem/observation-category","code":"vital-signs","display":"Vital Signs"}]}],"code":{"coding":[{"system":"http://loinc.org","code":"8310-5"}]},"subject":{"reference":"Patient/138c1d69-962b-4e70-988c-554cf2deb196"},"effectiveDateTime":"2022-01-30T00:00:00+00:00","valueQuantity":{"value":66.64,"unit":"Degrees Fahrenheit","system":"http://unitsofmeasure.org","code":"[degF]"}}},{"fullUrl":"Observation/77383b5c-4f73-4bda-8e20-4df3877baaf0","resource":{"resourceType":"Observation","id":"77383b5c-4f73-4bda-8e20-4df3877baaf0","meta":{"profile":["http://hl7.org/fhir/us/core/StructureDefinition/us-core-body-temperature"]},"status":"final","category":[{"coding":[{"system":"http://terminology.hl7.org/CodeSystem/observation-category","code":"vital-signs","display":"Vital Signs"}]}],"code":{"coding":[{"system":"http://loinc.org","code":"8310-5"}]},"subject":{"reference":"Patient/138c1d69-962b-4e70-988c-554cf2deb196"},"effectiveDateTime":"2022-01-16T00:00:00+00:00","valueQuantity":{"value":27.33,"unit":"Degrees Fahrenheit","system":"http://unitsofmeasure.org","code":"[degF]"}}},{"fullUrl":"Observation/08aea44c-94df-4852-8785-068b6bbbbb9d","resource":{"resourceType":"Observation","id":"08aea44c-94df-4852-8785-068b6bbbbb9d","meta":{"profile":["http://hl7.org/fhir/us/core/StructureDefinition/us-core-heart-rate"]},"status":"final","category":[{"coding":[{"system":"http://terminology.hl7.org/CodeSystem/observation-category","code":"vital-signs","display":"Vital Signs"}]}],"code":{"coding":[{"system":"http://loinc.org","code":"8867-4"}]},"subject":{"reference":"Patient/138c1d69-962b-4e70-988c-554cf2deb196"},"effectiveDateTime":"2022-08-05T00:00:00+00:00","valueQuantity":{"value":96.9,"unit":"Per Minute","system":"http://unitsofmeasure.org","code":"/min"}}},{"fullUrl":"Patient/3858472b-7a41-4cdb-83a5-66add2fb0bf5","resource":{"resourceType":"Patient","id":"3858472b-7a41-4cdb-83a5-66add2fb0bf5","meta":{"profile":["http://hl7.org/fhir/us/core/StructureDefinition/us-core-patient"]},"extension":[{"extension":[{"url":"ombCategory","valueCoding":{"system":"urn:oid:2.16.840.1.113883.6.238","code":"2106-3","display":"White"}},{"url":"text","valueString":"White"}],"url":"http://hl7.org/fhir/us/core/StructureDefinition/us-core-race"},{"extension":[{"url":"ombCategory","valueCoding":{"system":"urn:oid:2.16.840.1.113883.6.238","code":"2186-5","display":"Non Hispanic or Latino"}},{"url":"text","valueString":"Non Hispanic or Latino"}],"url":"http://hl7.org/fhir/us/core/StructureDefinition/us-core-ethnicity"}],"identifier":[{"type":{"coding":[{"system":"http://terminology.hl7.org/CodeSystem/v2-0203","code":"MR"}]},"system":"urn:fhirgen:mrn","value":"757-58-3351"}],"name":[{"use":"official","family":"Liu","given":["Laura"]},{"use":"maiden","family":"Espinoza"}],"telecom":[{"system":"phone","value":"001-825-515-8443x50422","use":"home"},{"system":"email","value":"bryan97@gmail.com","use":"mobile"}],"gender":"female","birthDate":"1950-12-07","address":[{"use":"home","line":["25826 Angelica Place"],"city":"Fosterberg","state":"NY","postalCode":"95839"},{"use":"old","line":["630 Robert Ways"],"city":"North Lauraport","state":"AR","postalCode":"04113"}]}},{"fullUrl":"Observation/2535c660-3731-47b5-84e6-757f7a554d70","resource":{"resourceType":"Observation","id":"2535c660-3731-47b5-84e6-757f7a554d70","meta":{"profile":["http://hl7.org/fhir/us/core/StructureDefinition/us-core-observation-lab"]},"status":"final","category":[{"coding":[{"system":"http://terminology.hl7.org/CodeSystem/observation-category","code":"laboratory","display":"Laboratory"}]}],"code":{"coding":[{"system":"http://loinc.org","code":"11084-1"}]},"subject":{"reference":"Patient/3858472b-7a41-4cdb-83a5-66add2fb0bf5"},"effectiveDateTime":"2022-07-15T00:00:00+00:00","valueRatio":{"numerator":{"value":1},"denominator":{"value":4}}}},{"fullUrl":"Observation/8c28f475-1f65-456e-8b2b-044192b131fd","resource":{"resourceType":"Observation","id":"8c28f475-1f65-456e-8b2b-044192b131fd","meta":{"profile":["http://hl7.org/fhir/us/core/StructureDefinition/us-core-observation-lab"]},"status":"final","category":[{"coding":[{"system":"http://terminology.hl7.org/CodeSystem/observation-category","code":"laboratory","display":"Laboratory"}]}],"code":{"coding":[{"system":"http://loinc.org","code":"31147-2"}]},"subject":{"reference":"Patient/3858472b-7a41-4cdb-83a5-66add2fb0bf5"},"effectiveDateTime":"2022-01-17T00:00:00+00:00","valueRatio":{"numerator":{"value":1},"denominator":{"value":4}}}},{"fullUrl":"Observation/0c841d56-3cc9-4863-ae8e-92a92a2f26e4","resource":{"resourceType":"Observation","id":"0c841d56-3cc9-4863-ae8e-92a92a2f26e4","meta":{"profile":["http://hl7.org/fhir/us/core/StructureDefinition/us-core-observation-lab"]},"status":"final","category":[{"coding":[{"system":"http://terminology.hl7.org/CodeSystem/observation-category","code":"laboratory","display":"Laboratory"}]}],"code":{"coding":[{"system":"http://loinc.org","code":"11084-1"}]},"subject":{"reference":"Patient/3858472b-7a41-4cdb-83a5-66add2fb0bf5"},"effectiveDateTime":"2022-06-01T00:00:00+00:00","valueRatio":{"numerator":{"value":1},"denominator":{"value":32}}}},{"fullUrl":"Condition/511081f8-c211-496e-ad06-5cef08b069e3","resource":{"resourceType":"Condition","id":"511081f8-c211-496e-ad06-5cef08b069e3","meta":{"profile":["http://hl7.org/fhir/us/core/StructureDefinition/us-core-condition"]},"clinicalStatus":{"coding":[{"system":"http://terminology.hl7.org/CodeSystem/condition-clinical","code":"active","display":"Active"}]},"category":[{"coding":[{"system":"http://terminology.hl7.org/CodeSystem/condition-category","code":"problem-list-item"}]}],"code":{"coding":[{"system":"http://snomed.info/sct","code":"91554004"}]},"subject":{"reference":"Patient/3858472b-7a41-4cdb-83a5-66add2fb0bf5"},"onsetDateTime":"2022-07-05T00:00:00+00:00"}},{"fullUrl":"Condition/4ca9fb4b-7f86-47e2-967b-85399f5efb23","resource":{"resourceType":"Condition","id":"4ca9fb4b-7f86-47e2-967b-85399f5efb23","meta":{"profile":["http://hl7.org/fhir/us/core/StructureDefinition/us-core-condition"]},"clinicalStatus":{"coding":[{"system":"http://terminology.hl7.org/CodeSystem/condition-clinical","code":"active","display":"Active"}]},"category":[{"coding":[{"system":"http://terminology.hl7.org/CodeSystem/condition-category","code":"problem-list-item"}]}],"code":{"coding":[{"system":"http://snomed.info/sct","code":"44882003"}]},"subject":{"reference":"Patient/3858472b-7a41-4cdb-83a5-66add2fb0bf5"},"onsetDateTime":"2022-01-14T00:00:00+00:00"}},{"fullUrl":"Condition/fbed0999-5de7-44ab-a893-8624ffcc1edc","resource":{"resourceType":"Condition","id":"fbed0999-5de7-44ab-a893-8624ffcc1edc","meta":{"profile":["http://hl7.org/fhir/us/core/StructureDefinition/us-core-condition"]},"clinicalStatus":{"coding":[{"system":"http://terminology.hl7.org/CodeSystem/condition-clinical","code":"active","display":"Active"}]},"category":[{"coding":[{"system":"http://terminology.hl7.org/CodeSystem/condition-category","code":"problem-list-item"}]}],"code":{"coding":[{"system":"http://snomed.info/sct","code":"709977002"}]},"subject":{"reference":"Patient/3858472b-7a41-4cdb-83a5-66add2fb0bf5"},"onsetDateTime":"2022-07-29T00:00:00+00:00"}},{"fullUrl":"Condition/458de60b-4b22-4a9e-9681-2b1c27492c50","resource":{"resourceType":"Condition","id":"458de60b-4b22-4a9e-9681-2b1c27492c50","meta":{"profile":["http://hl7.org/fhir/us/core/StructureDefinition/us-core-condition"]},"clinicalStatus":{"coding":[{"system":"http://terminology.hl7.org/CodeSystem/condition-clinical","code":"active","display":"Active"}]},"category":[{"coding":[{"system":"http://terminology.hl7.org/CodeSystem/condition-category","code":"problem-list-item"}]}],"code":{"coding":[{"system":"http://snomed.info/sct","code":"418290006"}]},"subject":{"reference":"Patient/3858472b-7a41-4cdb-83a5-66add2fb0bf5"},"onsetDateTime":"2022-11-17T00:00:00+00:00"}},{"fullUrl":"Condition/d5d3d6ee-7ddb-4bc2-bc41-524b6b79366c","resource":{"resourceType":"Condition","id":"d5d3d6ee-7ddb-4bc2-bc41-524b6b79366c","meta":{"profile":["http://hl7.org/fhir/us/core/StructureDefinition/us-core-condition"]},"clinicalStatus":{"coding":[{"system":"http://terminology.hl7.org/CodeSystem/condition-clinical","code":"active","display":"Active"}]},"category":[{"coding":[{"system":"http://terminology.hl7.org/CodeSystem/condition-category","code":"problem-list-item"}]}],"code":{"coding":[{"system":"http://snomed.info/sct","code":"709977002"}]},"subject":{"reference":"Patient/3858472b-7a41-4cdb-83a5-66add2fb0bf5"},"onsetDateTime":"2022-11-20T00:00:00+00:00"}},{"fullUrl":"Condition/aa5c2be5-68ca-43a5-81da-8fd58e5a3d48","resource":{"resourceType":"Condition","id":"aa5c2be5-68ca-43a5-81da-8fd58e5a3d48","meta":{"profile":["http://hl7.org/fhir/us/core/StructureDefinition/us-core-condition"]},"clinicalStatus":{"coding":[{"system":"http://terminology.hl7.org/CodeSystem/condition-clinical","code":"active","display":"Active"}]},"category":[{"coding":[{"system":"http://terminology.hl7.org/CodeSystem/condition-category","code":"problem-list-item"}]}],"code":{"coding":[{"system":"http://snomed.info/sct","code":"44882003"}]},"subject":{"reference":"Patient/3858472b-7a41-4cdb-83a5-66add2fb0bf5"},"onsetDateTime":"2022-11-28T00:00:00+00:00"}},{"fullUrl":"Observation/5d358ee2-1080-44bd-94ab-4a7de3f844b7","resource":{"resourceType":"Observation","id":"5d358ee2-1080-44bd-94ab-4a7de3f844b7","meta":{"profile":["http://hl7.org/fhir/us/core/StructureDefinition/us-core-observation-lab"]},"status":"final","category":[{"coding":[{"system":"http://terminology.hl7.org/CodeSystem/observation-category","code":"laboratory","display":"Laboratory"}]}],"code":{"coding":[{"system":"http://loinc.org","code":"26464-8"}]},"subject":{"reference":"Patient/3858472b-7a41-4cdb-83a5-66add2fb0bf5"},"effectiveDateTime":"2022-08-22T00:00:00+00:00","valueQuantity":{"value":5.2}}},{"fullUrl":"Observation/7e6d77fc-9d03-4545-a8ee-8db1693be3c0","resource":{"resourceType":"Observation","id":"7e6d77fc-9d03-4545-a8ee-8db1693be3c0","meta":{"profile":["http://hl7.org/fhir/us/core/StructureDefinition/us-core-observation-lab"]},"status":"final","category":[{"coding":[{"system":"http://terminology.hl7.org/CodeSystem/observation-category","code":"laboratory","display":"Laboratory"}]}],"code":{"coding":[{"system":"http://loinc.org","code":"6690-2"}]},"subject":{"reference":"Patient/3858472b-7a41-4cdb-83a5-66add2fb0bf5"},"effectiveDateTime":"2022-01-07T00:00:00+00:00","valueQuantity":{"value":10.5}}},{"fullUrl":"Observation/179d17d7-5770-413c-8632-ae4c2093ad62","resource":{"resourceType":"Observation","id":"179d17d7-5770-413c-8632-ae4c2093ad62","meta":{"profile":["http://hl7.org/fhir/us/core/StructureDefinition/us-core-observation-lab"]},"status":"final","category":[{"coding":[{"system":"http://terminology.hl7.org/CodeSystem/observation-category","code":"laboratory","display":"Laboratory"}]}],"code":{"coding":[{"system":"http://loinc.org","code":"26464-8"}]},"subject":{"reference":"Patient/3858472b-7a41-4cdb-83a5-66add2fb0bf5"},"effectiveDateTime":"2022-01-01T00:00:00+00:00","valueQuantity":{"value":6.2}}},{"fullUrl":"Observation/98e76e4f-22eb-4896-b83b-728e2500a235","resource":{"resourceType":"Observation","id":"98e76e4f-22eb-4896-b83b-728e2500a235","meta":{"profile":["http://hl7.org/fhir/us/core/StructureDefinition/us-core-bmi"]},"status":"final","category":[{"coding":[{"system":"http://terminology.hl7.org/CodeSystem/observation-category","code":"vital-signs","display":"Vital Signs"}]}],"code":{"coding":[{"system":"http://loinc.org","code":"39156-5"}]},"subject":{"reference":"Patient/3858472b-7a41-4cdb-83a5-66add2fb0bf5"},"effectiveDateTime":"2022-03-18T00:00:00+00:00","valueQuantity":{"value":15.56,"unit":"kg/m2","system":"http://unitsofmeasure.org","code":"kg/m2"}}},{"fullUrl":"Observation/e23153bd-5e31-46ac-a515-ddad11fd6fb7","resource":{"resourceType":"Observation","id":"e23153bd-5e31-46ac-a515-ddad11fd6fb7","meta":{"profile":["http://hl7.org/fhir/us/core/StructureDefinition/us-core-head-circumference"]},"status":"final","category":[{"coding":[{"system":"http://terminology.hl7.org/CodeSystem/observation-category","code":"vital-signs","display":"Vital Signs"}]}],"code":{"coding":[{"system":"http://loinc.org","code":"9843-4"}]},"subject":{"reference":"Patient/3858472b-7a41-4cdb-83a5-66add2fb0bf5"},"effectiveDateTime":"2022-05-17T00:00:00+00:00","valueQuantity":{"value":3,"unit":"Inch","system":"http://unitsofmeasure.org","code":"[in_i]"}}},{"fullUrl":"Observation/e1048bbc-3158-4abb-96b6-ebecad0c4c28","resource":{"resourceType":"Observation","id":"e1048bbc-3158-4abb-96b6-ebecad0c4c28","meta":{"profile":["http://hl7.org/fhir/us/core/StructureDefinition/us-core-head-circumference"]},"status":"final","category":[{"coding":[{"system":"http://terminology.hl7.org/CodeSystem/observation-category","code":"vital-signs","display":"Vital Signs"}]}],"code":{"coding":[{"system":"http://loinc.org","code":"9843-4"}]},"subject":{"reference":"Patient/3858472b-7a41-4cdb-83a5-66add2fb0bf5"},"effectiveDateTime":"2022-07-05T00:00:00+00:00","valueQuantity":{"value":1.2,"unit":"Inch","system":"http://unitsofmeasure.org","code":"[in_i]"}}},{"fullUrl":"Observation/ccf3869d-582f-4364-82ce-09312015e64a","resource":{"resourceType":"Observation","id":"ccf3869d-582f-4364-82ce-09312015e64a","meta":{"profile":["http://hl7.org/fhir/us/core/StructureDefinition/us-core-body-height"]},"status":"final","category":[{"coding":[{"system":"http://terminology.hl7.org/CodeSystem/observation-category","code":"vital-signs","display":"Vital Signs"}]}],"code":{"coding":[{"system":"http://loinc.org","code":"8302-2"}]},"subject":{"reference":"Patient/3858472b-7a41-4cdb-83a5-66add2fb0bf5"},"effectiveDateTime":"2022-02-10T00:00:00+00:00","valueQuantity":{"value":82.4,"unit":"Inch","system":"http://unitsofmeasure.org","code":"[in_i]"}}},{"fullUrl":"Observation/85676c84-65a3-4570-929b-ca9fed3f01a0","resource":{"resourceType":"Observation","id":"85676c84-65a3-4570-929b-ca9fed3f01a0","meta":{"profile":["http://hl7.org/fhir/us/core/StructureDefinition/us-core-body-weight"]},"status":"final","category":[{"coding":[{"system":"http://terminology.hl7.org/CodeSystem/observation-category","code":"vital-signs","display":"Vital Signs"}]}],"code":{"coding":[{"system":"http://loinc.org","code":"29463-7"}]},"subject":{"reference":"Patient/3858472b-7a41-4cdb-83a5-66add2fb0bf5"},"effectiveDateTime":"2022-02-17T00:00:00+00:00","valueQuantity":{"value":34.76,"unit":"kilogram","system":"http://unitsofmeasure.org","code":"kg"}}},{"fullUrl":"Observation/a83a793e-6166-4313-9059-d2ae293a31d0","resource":{"resourceType":"Observation","id":"a83a793e-6166-4313-9059-d2ae293a31d0","meta":{"profile":["http://hl7.org/fhir/us/core/StructureDefinition/us-core-body-weight"]},"status":"final","category":[{"coding":[{"system":"http://terminology.hl7.org/CodeSystem/observation-category","code":"vital-signs","display":"Vital Signs"}]}],"code":{"coding":[{"system":"http://loinc.org","code":"29463-7"}]},"subject":{"reference":"Patient/3858472b-7a41-4cdb-83a5-66add2fb0bf5"},"effectiveDateTime":"2022-12-01T00:00:00+00:00","valueQuantity":{"value":139.64,"unit":"kilogram","system":"http://unitsofmeasure.org","code":"kg"}}},{"fullUrl":"Observation/ea034df7-2087-4d49-b381-24e197bbc08a","resource":{"resourceType":"Observation","id":"ea034df7-2087-4d49-b381-24e197bbc08a","meta":{"profile":["http://hl7.org/fhir/us/core/StructureDefinition/us-core-body-temperature"]},"status":"final","category":[{"coding":[{"system":"http://terminology.hl7.org/CodeSystem/observation-category","code":"vital-signs","display":"Vital Signs"}]}],"code":{"coding":[{"system":"http://loinc.org","code":"8310-5"}]},"subject":{"reference":"Patient/3858472b-7a41-4cdb-83a5-66add2fb0bf5"},"effectiveDateTime":"2022-01-18T00:00:00+00:00","valueQuantity":{"value":61.58,"unit":"Degrees Fahrenheit","system":"http://unitsofmeasure.org","code":"[degF]"}}},{"fullUrl":"Observation/89ff7291-846d-49da-a08c-4b1c94490ef5","resource":{"resourceType":"Observation","id":"89ff7291-846d-49da-a08c-4b1c94490ef5","meta":{"profile":["http://hl7.org/fhir/us/core/StructureDefinition/us-core-body-temperature"]},"status":"final","category":[{"coding":[{"system":"http://terminology.hl7.org/CodeSystem/observation-category","code":"vital-signs","display":"Vital Signs"}]}],"code":{"coding":[{"system":"http://loinc.org","code":"8310-5"}]},"subject":{"reference":"Patient/3858472b-7a41-4cdb-83a5-66add2fb0bf5"},"effectiveDateTime":"2022-01-30T00:00:00+00:00","valueQuantity":{"value":111.6,"unit":"Degrees Fahrenheit","system":"http://unitsofmeasure.org","code":"[degF]"}}},{"fullUrl":"Observation/3f7ec040-0a45-4792-a6d3-7451889c893f","resource":{"resourceType":"Observation","id":"3f7ec040-0a45-4792-a6d3-7451889c893f","meta":{"profile":["http://hl7.org/fhir/us/core/StructureDefinition/us-core-heart-rate"]},"status":"final","category":[{"coding":[{"system":"http://terminology.hl7.org/CodeSystem/observation-category","code":"vital-signs","display":"Vital Signs"}]}],"code":{"coding":[{"system":"http://loinc.org","code":"8867-4"}]},"subject":{"reference":"Patient/3858472b-7a41-4cdb-83a5-66add2fb0bf5"},"effectiveDateTime":"2022-05-29T00:00:00+00:00","valueQuantity":{"value":99,"unit":"Per Minute","system":"http://unitsofmeasure.org","code":"/min"}}},{"fullUrl":"Patient/91b9745a-b094-4597-ac5f-390f4e1a9f65","resource":{"resourceType":"Patient","id":"91b9745a-b094-4597-ac5f-390f4e1a9f65","meta":{"profile":["http://hl7.org/fhir/us/core/StructureDefinition/us-core-patient"]},"extension":[{"extension":[{"url":"ombCategory","valueCoding":{"system":"urn:oid:2.16.840.1.113883.6.238","code":"2028-9","display":"Asian"}},{"url":"text","valueString":"Asian"}],"url":"http://hl7.org/fhir/us/core/StructureDefinition/us-core-race"},{"extension":[{"url":"ombCategory","valueCoding":{"system":"urn:oid:2.16.840.1.113883.6.238","code":"2186-5","display":"Non Hispanic or Latino"}},{"url":"text","valueString":"Non Hispanic or Latino"}],"url":"http://hl7.org/fhir/us/core/StructureDefinition/us-core-ethnicity"}],"identifier":[{"type":{"coding":[{"system":"http://terminology.hl7.org/CodeSystem/v2-0203","code":"MR"}]},"system":"urn:fhirgen:mrn","value":"785-33-7025"}],"name":[{"use":"official","family":"Hernandez","given":["Shelby"]},{"use":"maiden","family":"Page"}],"telecom":[{"system":"phone","value":"+1-863-328-0812x990","use":"home"},{"system":"email","value":"lisa82@hotmail.com","use":"mobile"}],"gender":"female","birthDate":"1957-09-14","address":[{"use":"home","line":["1137 Gina Ford"],"city":"Gomezburgh","state":"DE","postalCode":"01340"},{"use":"old","line":["2447 Johnson Ferry"],"city":"West Elizabethland","state":"TN","postalCode":"70792"}]}},{"fullUrl":"Observation/8d6ba7ca-06ea-4371-af60-8fb9a6e58956","resource":{"resourceType":"Observation","id":"8d6ba7ca-06ea-4371-af60-8fb9a6e58956","meta":{"profile":["http://hl7.org/fhir/us/core/StructureDefinition/us-core-observation-lab"]},"status":"final","category":[{"coding":[{"system":"http://terminology.hl7.org/CodeSystem/observation-category","code":"laboratory","display":"Laboratory"}]}],"code":{"coding":[{"system":"http://loinc.org","code":"71793-4"}]},"subject":{"reference":"Patient/91b9745a-b094-4597-ac5f-390f4e1a9f65"},"effectiveDateTime":"2022-09-06T00:00:00+00:00","valueRatio":{"numerator":{"value":1},"denominator":{"value":4}}}},{"fullUrl":"Observation/64fc864d-d3db-4784-919f-b2b83e058f52","resource":{"resourceType":"Observation","id":"64fc864d-d3db-4784-919f-b2b83e058f52","meta":{"profile":["http://hl7.org/fhir/us/core/StructureDefinition/us-core-observation-lab"]},"status":"final","category":[{"coding":[{"system":"http://terminology.hl7.org/CodeSystem/observation-category","code":"laboratory","display":"Laboratory"}]}],"code":{"coding":[{"system":"http://loinc.org","code":"50695-6"}]},"subject":{"reference":"Patient/91b9745a-b094-4597-ac5f-390f4e1a9f65"},"effectiveDateTime":"2022-05-30T00:00:00+00:00","valueRatio":{"numerator":{"value":1},"denominator":{"value":4}}}},{"fullUrl":"Observation/1ccc398a-ab32-4757-8b08-26950daceaf8","resource":{"resourceType":"Observation","id":"1ccc398a-ab32-4757-8b08-26950daceaf8","meta":{"profile":["http://hl7.org/fhir/us/core/StructureDefinition/us-core-observation-lab"]},"status":"final","category":[{"coding":[{"system":"http://terminology.hl7.org/CodeSystem/observation-category","code":"laboratory","display":"Laboratory"}]}],"code":{"coding":[{"system":"http://loinc.org","code":"50690-7"}]},"subject":{"reference":"Patient/91b9745a-b094-4597-ac5f-390f4e1a9f65"},"effectiveDateTime":"2022-01-16T00:00:00+00:00","valueRatio":{"numerator":{"value":1},"denominator":{"value":4}}}},{"fullUrl":"Condition/daa7fd28-66f5-4fc2-ba1a-af8a94ace83c","resource":{"resourceType":"Condition","id":"daa7fd28-66f5-4fc2-ba1a-af8a94ace83c","meta":{"profile":["http://hl7.org/fhir/us/core/StructureDefinition/us-core-condition"]},"clinicalStatus":{"coding":[{"system":"http://terminology.hl7.org/CodeSystem/condition-clinical","code":"active","display":"Active"}]},"category":[{"coding":[{"system":"http://terminology.hl7.org/CodeSystem/condition-category","code":"problem-list-item"}]}],"code":{"coding":[{"system":"http://snomed.info/sct","code":"709977002"}]},"subject":{"reference":"Patient/91b9745a-b094-4597-ac5f-390f4e1a9f65"},"onsetDateTime":"2022-11-21T00:00:00+00:00"}},{"fullUrl":"Condition/65c31415-b192-4c48-909c-d55ecf3e5c00","resource":{"resourceType":"Condition","id":"65c31415-b192-4c48-909c-d55ecf3e5c00","meta":{"profile":["http://hl7.org/fhir/us/core/StructureDefinition/us-core-condition"]},"clinicalStatus":{"coding":[{"system":"http://terminology.hl7.org/CodeSystem/condition-clinical","code":"active","display":"Active"}]},"category":[{"coding":[{"system":"http://terminology.hl7.org/CodeSystem/condition-category","code":"problem-list-item"}]}],"code":{"coding":[{"system":"http://snomed.info/sct","code":"709977002"}]},"subject":{"reference":"Patient/91b9745a-b094-4597-ac5f-390f4e1a9f65"},"onsetDateTime":"2022-10-01T00:00:00+00:00"}},{"fullUrl":"Condition/8fbc392a-5b26-4ddd-bbad-58f2a1919f6a","resource":{"resourceType":"Condition","id":"8fbc392a-5b26-4ddd-bbad-58f2a1919f6a","meta":{"profile":["http://hl7.org/fhir/us/core/StructureDefinition/us-core-condition"]},"clinicalStatus":{"coding":[{"system":"http://terminology.hl7.org/CodeSystem/condition-clinical","code":"active","display":"Active"}]},"category":[{"coding":[{"system":"http://terminology.hl7.org/CodeSystem/condition-category","code":"problem-list-item"}]}],"code":{"coding":[{"system":"http://snomed.info/sct","code":"736686006"}]},"subject":{"reference":"Patient/91b9745a-b094-4597-ac5f-390f4e1a9f65"},"onsetDateTime":"2022-01-10T00:00:00+00:00"}},{"fullUrl":"Observation/1078c689-734f-4819-b56a-9f9ccdb1ac0e","resource":{"resourceType":"Observation","id":"1078c689-734f-4819-b56a-9f9ccdb1ac0e","meta":{"profile":["http://hl7.org/fhir/us/core/StructureDefinition/us-core-observation-lab"]},"status":"final","category":[{"coding":[{"system":"http://terminology.hl7.org/CodeSystem/observation-category","code":"laboratory","display":"Laboratory"}]}],"code":{"coding":[{"system":"http://loinc.org","code":"6690-2"}]},"subject":{"reference":"Patient/91b9745a-b094-4597-ac5f-390f4e1a9f65"},"effectiveDateTime":"2022-10-31T00:00:00+00:00","valueQuantity":{"value":7.9}}},{"fullUrl":"Observation/2fd0b606-ab47-406a-9743-a8f1607d9b0e","resource":{"resourceType":"Observation","id":"2fd0b606-ab47-406a-9743-a8f1607d9b0e","meta":{"profile":["http://hl7.org/fhir/us/core/StructureDefinition/us-core-observation-lab"]},"status":"final","category":[{"coding":[{"system":"http://terminology.hl7.org/CodeSystem/observation-category","code":"laboratory","display":"Laboratory"}]}],"code":{"coding":[{"system":"http://loinc.org","code":"49498-9"}]},"subject":{"reference":"Patient/91b9745a-b094-4597-ac5f-390f4e1a9f65"},"effectiveDateTime":"2022-09-07T00:00:00+00:00","valueQuantity":{"value":9.2}}},{"fullUrl":"Observation/6acc35ee-51e1-4fd7-9913-b2654e104299","resource":{"resourceType":"Observation","id":"6acc35ee-51e1-4fd7-9913-b2654e104299","meta":{"profile":["http://hl7.org/fhir/us/core/StructureDefinition/us-core-observation-lab"]},"status":"final","category":[{"coding":[{"system":"http://terminology.hl7.org/CodeSystem/observation-category","code":"laboratory","display":"Laboratory"}]}],"code":{"coding":[{"system":"http://loinc.org","code":"6690-2"}]},"subject":{"reference":"Patient/91b9745a-b094-4597-ac5f-390f4e1a9f65"},"effectiveDateTime":"2022-10-13T00:00:00+00:00","valueQuantity":{"value":9.8}}},{"fullUrl":"Observation/42e0e68e-329c-4548-a09a-2cf62949b441","resource":{"resourceType":"Observation","id":"42e0e68e-329c-4548-a09a-2cf62949b441","meta":{"profile":["http://hl7.org/fhir/us/core/StructureDefinition/us-core-bmi"]},"status":"final","category":[{"coding":[{"system":"http://terminology.hl7.org/CodeSystem/observation-category","code":"vital-signs","display":"Vital Signs"}]}],"code":{"coding":[{"system":"http://loinc.org","code":"39156-5"}]},"subject":{"reference":"Patient/91b9745a-b094-4597-ac5f-390f4e1a9f65"},"effectiveDateTime":"2022-09-20T00:00:00+00:00","valueQuantity":{"value":12.81,"unit":"kg/m2","system":"http://unitsofmeasure.org","code":"kg/m2"}}},{"fullUrl":"Observation/67d6414c-2a2d-4dd2-9231-9218918b28d2","resource":{"resourceType":"Observation","id":"67d6414c-2a2d-4dd2-9231-9218918b28d2","meta":{"profile":["http://hl7.org/fhir/us/core/StructureDefinition/us-core-bmi"]},"status":"final","category":[{"coding":[{"system":"http://terminology.hl7.org/CodeSystem/observation-category","code":"vital-signs","display":"Vital Signs"}]}],"code":{"coding":[{"system":"http://loinc.org","code":"39156-5"}]},"subject":{"reference":"Patient/91b9745a-b094-4597-ac5f-390f4e1a9f65"},"effectiveDateTime":"2022-10-19T00:00:00+00:00","valueQuantity":{"value":13.22,"unit":"kg/m2","system":"http://unitsofmeasure.org","code":"kg/m2"}}},{"fullUrl":"Observation/8c6ad7aa-c8ca-4cfb-a1c6-d267d9b78400","resource":{"resourceType":"Observation","id":"8c6ad7aa-c8ca-4cfb-a1c6-d267d9b78400","meta":{"profile":["http://hl7.org/fhir/us/core/StructureDefinition/us-core-head-circumference"]},"status":"final","category":[{"coding":[{"system":"http://terminology.hl7.org/CodeSystem/observation-category","code":"vital-signs","display":"Vital Signs"}]}],"code":{"coding":[{"system":"http://loinc.org","code":"9843-4"}]},"subject":{"reference":"Patient/91b9745a-b094-4597-ac5f-390f4e1a9f65"},"effectiveDateTime":"2022-11-11T00:00:00+00:00","valueQuantity":{"value":6.1,"unit":"Inch","system":"http://unitsofmeasure.org","code":"[in_i]"}}},{"fullUrl":"Observation/3bb1f3e5-73c9-4d61-96a3-a104828a552c","resource":{"resourceType":"Observation","id":"3bb1f3e5-73c9-4d61-96a3-a104828a552c","meta":{"profile":["http://hl7.org/fhir/us/core/StructureDefinition/us-core-head-circumference"]},"status":"final","category":[{"coding":[{"system":"http://terminology.hl7.org/CodeSystem/observation-category","code":"vital-signs","display":"Vital Signs"}]}],"code":{"coding":[{"system":"http://loinc.org","code":"9843-4"}]},"subject":{"reference":"Patient/91b9745a-b094-4597-ac5f-390f4e1a9f65"},"effectiveDateTime":"2022-05-20T00:00:00+00:00","valueQuantity":{"value":6.5,"unit":"Inch","system":"http://unitsofmeasure.org","code":"[in_i]"}}},{"fullUrl":"Observation/a5c18111-c855-4fa8-8f20-0ee5008dbeb1","resource":{"resourceType":"Observation","id":"a5c18111-c855-4fa8-8f20-0ee5008dbeb1","meta":{"profile":["http://hl7.org/fhir/us/core/StructureDefinition/us-core-body-height"]},"status":"final","category":[{"coding":[{"system":"http://terminology.hl7.org/CodeSystem/observation-category","code":"vital-signs","display":"Vital Signs"}]}],"code":{"coding":[{"system":"http://loinc.org","code":"8302-2"}]},"subject":{"reference":"Patient/91b9745a-b094-4597-ac5f-390f4e1a9f65"},"effectiveDateTime":"2022-08-10T00:00:00+00:00","valueQuantity":{"value":79.6,"unit":"Inch","system":"http://unitsofmeasure.org","code":"[in_i]"}}},{"fullUrl":"Observation/a74181c0-1794-481e-aaac-deb6a6d84942","resource":{"resourceType":"Observation","id":"a74181c0-1794-481e-aaac-deb6a6d84942","meta":{"profile":["http://hl7.org/fhir/us/core/StructureDefinition/us-core-body-height"]},"status":"final","category":[{"coding":[{"system":"http://terminology.hl7.org/CodeSystem/observation-category","code":"vital-signs","display":"Vital Signs"}]}],"code":{"coding":[{"system":"http://loinc.org","code":"8302-2"}]},"subject":{"reference":"Patient/91b9745a-b094-4597-ac5f-390f4e1a9f65"},"effectiveDateTime":"2022-06-15T00:00:00+00:00","valueQuantity":{"value":70,"unit":"Inch","system":"http://unitsofmeasure.org","code":"[in_i]"}}},{"fullUrl":"Observation/a8c08a69-fa7b-44e5-9b02-01ac18bda484","resource":{"resourceType":"Observation","id":"a8c08a69-fa7b-44e5-9b02-01ac18bda484","meta":{"profile":["http://hl7.org/fhir/us/core/StructureDefinition/us-core-body-weight"]},"status":"final","category":[{"coding":[{"system":"http://terminology.hl7.org/CodeSystem/observation-category","code":"vital-signs","display":"Vital Signs"}]}],"code":{"coding":[{"system":"http://loinc.org","code":"29463-7"}]},"subject":{"reference":"Patient/91b9745a-b094-4597-ac5f-390f4e1a9f65"},"effectiveDateTime":"2022-10-31T00:00:00+00:00","valueQuantity":{"value":120.91,"unit":"kilogram","system":"http://unitsofmeasure.org","code":"kg"}}},{"fullUrl":"Observation/55aee523-1694-439b-8715-e27b93b2b38c","resource":{"resourceType":"Observation","id":"55aee523-1694-439b-8715-e27b93b2b38c","meta":{"profile":["http://hl7.org/fhir/us/core/StructureDefinition/us-core-body-temperature"]},"status":"final","category":[{"coding":[{"system":"http://terminology.hl7.org/CodeSystem/observation-category","code":"vital-signs","display":"Vital Signs"}]}],"code":{"coding":[{"system":"http://loinc.org","code":"8310-5"}]},"subject":{"reference":"Patient/91b9745a-b094-4597-ac5f-390f4e1a9f65"},"effectiveDateTime":"2022-04-19T00:00:00+00:00","valueQuantity":{"value":35.29,"unit":"Degrees Fahrenheit","system":"http://unitsofmeasure.org","code":"[degF]"}}},{"fullUrl":"Observation/34509939-967e-4155-b620-d57d0856c24d","resource":{"resourceType":"Observation","id":"34509939-967e-4155-b620-d57d0856c24d","meta":{"profile":["http://hl7.org/fhir/us/core/StructureDefinition/us-core-body-temperature"]},"status":"final","category":[{"coding":[{"system":"http://terminology.hl7.org/CodeSystem/observation-category","code":"vital-signs","display":"Vital Signs"}]}],"code":{"coding":[{"system":"http://loinc.org","code":"8310-5"}]},"subject":{"reference":"Patient/91b9745a-b094-4597-ac5f-390f4e1a9f65"},"effectiveDateTime":"2022-10-05T00:00:00+00:00","valueQuantity":{"value":101.04,"unit":"Degrees Fahrenheit","system":"http://unitsofmeasure.org","code":"[degF]"}}},{"fullUrl":"Observation/0ae54c2e-b8cb-428d-9bf1-48f323f714c4","resource":{"resourceType":"Observation","id":"0ae54c2e-b8cb-428d-9bf1-48f323f714c4","meta":{"profile":["http://hl7.org/fhir/us/core/StructureDefinition/us-core-heart-rate"]},"status":"final","category":[{"coding":[{"system":"http://terminology.hl7.org/CodeSystem/observation-category","code":"vital-signs","display":"Vital Signs"}]}],"code":{"coding":[{"system":"http://loinc.org","code":"8867-4"}]},"subject":{"reference":"Patient/91b9745a-b094-4597-ac5f-390f4e1a9f65"},"effectiveDateTime":"2022-01-23T00:00:00+00:00","valueQuantity":{"value":96.4,"unit":"Per Minute","system":"http://unitsofmeasure.org","code":"/min"}}},{"fullUrl":"Patient/4283b1ba-bfac-4cdb-99bf-6cdc3beb5c44","resource":{"resourceType":"Patient","id":"4283b1ba-bfac-4cdb-99bf-6cdc3beb5c44","meta":{"profile":["http://hl7.org/fhir/us/core/StructureDefinition/us-core-patient"]},"extension":[{"extension":[{"url":"ombCategory","valueCoding":{"system":"urn:oid:2.16.840.1.113883.6.238","code":"1002-5","display":"American Indian or Alaska Native"}},{"url":"text","valueString":"American Indian or Alaska Native"}],"url":"http://hl7.org/fhir/us/core/StructureDefinition/us-core-race"},{"extension":[{"url":"ombCategory","valueCoding":{"system":"urn:oid:2.16.840.1.113883.6.238","code":"2135-2","display":"Hispanic or Latino"}},{"url":"text","valueString":"Hispanic or Latino"}],"url":"http://hl7.org/fhir/us/core/StructureDefinition/us-core-ethnicity"}],"identifier":[{"type":{"coding":[{"system":"http://terminology.hl7.org/CodeSystem/v2-0203","code":"MR"}]},"system":"urn:fhirgen:mrn","value":"510-35-0658"}],"name":[{"use":"official","family":"Kramer","given":["Richard"]},{"use":"maiden","family":"Johnson"}],"telecom":[{"system":"phone","value":"8684218782","use":"work"},{"system":"email","value":"williamscarl@yahoo.com","use":"work"}],"gender":"other","birthDate":"1959-11-12","address":[{"use":"home","line":["74332 Rebecca Square"],"city":"Jenniferstad","state":"GA","postalCode":"08965"},{"use":"old","line":["29441 Williams Flat Suite 059"],"city":"Davidstad","state":"MN","postalCode":"27146"}]}},{"fullUrl":"Observation/7d56ed2a-3626-41d5-be80-0149b098e361","resource":{"resourceType":"Observation","id":"7d56ed2a-3626-41d5-be80-0149b098e361","meta":{"profile":["http://hl7.org/fhir/us/core/StructureDefinition/us-core-observation-lab"]},"status":"final","category":[{"coding":[{"system":"http://terminology.hl7.org/CodeSystem/observation-category","code":"laboratory","display":"Laboratory"}]}],"code":{"coding":[{"system":"http://loinc.org","code":"31146-4"}]},"subject":{"reference":"Patient/4283b1ba-bfac-4cdb-99bf-6cdc3beb5c44"},"effectiveDateTime":"2022-08-17T00:00:00+00:00","valueRatio":{"numerator":{"value":1},"denominator":{"value":64}}}},{"fullUrl":"Observation/585d13c7-b81b-45db-b8e0-2062ca8f3d8c","resource":{"resourceType":"Observation","id":"585d13c7-b81b-45db-b8e0-2062ca8f3d8c","meta":{"profile":["http://hl7.org/fhir/us/core/StructureDefinition/us-core-observation-lab"]},"status":"final","category":[{"coding":[{"system":"http://terminology.hl7.org/CodeSystem/observation-category","code":"laboratory","display":"Laboratory"}]}],"code":{"coding":[{"system":"http://loinc.org","code":"87925-4"}]},"subject":{"reference":"Patient/4283b1ba-bfac-4cdb-99bf-6cdc3beb5c44"},"effectiveDateTime":"2022-12-12T00:00:00+00:00","valueRatio":{"numerator":{"value":1},"denominator":{"value":4}}}},{"fullUrl":"Condition/85eff14a-5cbf-4f48-839f-af6a8c40de84","resource":{"resourceType":"Condition","id":"85eff14a-5cbf-4f48-839f-af6a8c40de84","meta":{"profile":["http://hl7.org/fhir/us/core/StructureDefinition/us-core-condition"]},"clinicalStatus":{"coding":[{"system":"http://terminology.hl7.org/CodeSystem/condition-clinical","code":"active","display":"Active"}]},"category":[{"coding":[{"system":"http://terminology.hl7.org/CodeSystem/condition-category","code":"problem-list-item"}]}],"code":{"coding":[{"system":"http://snomed.info/sct","code":"418290006"}]},"subject":{"reference":"Patient/4283b1ba-bfac-4cdb-99bf-6cdc3beb5c44"},"onsetDateTime":"2022-12-28T00:00:00+00:00"}},{"fullUrl":"Condition/2d9f39e7-fb5e-4e95-ba17-ef62f84350e4","resource":{"resourceType":"Condition","id":"2d9f39e7-fb5e-4e95-ba17-ef62f84350e4","meta":{"profile":["http://hl7.org/fhir/us/core/StructureDefinition/us-core-condition"]},"clinicalStatus":{"coding":[{"system":"http://terminology.hl7.org/CodeSystem/condition-clinical","code":"active","display":"Active"}]},"category":[{"coding":[{"system":"http://terminology.hl7.org/CodeSystem/condition-category","code":"problem-list-item"}]}],"code":{"coding":[{"system":"http://snomed.info/sct","code":"418290006"}]},"subject":{"reference":"Patient/4283b1ba-bfac-4cdb-99bf-6cdc3beb5c44"},"onsetDateTime":"2022-07-29T00:00:00+00:00"}},{"fullUrl":"Condition/67dfa4f9-2231-424b-b9c7-aa773361c2c0","resource":{"resourceType":"Condition","id":"67dfa4f9-2231-424b-b9c7-aa773361c2c0","meta":{"profile":["http://hl7.org/fhir/us/core/StructureDefinition/us-core-condition"]},"clinicalStatus":{"coding":[{"system":"http://terminology.hl7.org/CodeSystem/condition-clinical","code":"active","display":"Active"}]},"category":[{"coding":[{"system":"http://terminology.hl7.org/CodeSystem/condition-category","code":"problem-list-item"}]}],"code":{"coding":[{"system":"http://snomed.info/sct","code":"44882003"}]},"subject":{"reference":"Patient/4283b1ba-bfac-4cdb-99bf-6cdc3beb5c44"},"onsetDateTime":"2022-05-25T00:00:00+00:00"}},{"fullUrl":"Condition/a44e5f81-6c0c-42c7-88ae-39c97651cc7e","resource":{"resourceType":"Condition","id":"a44e5f81-6c0c-42c7-88ae-39c97651cc7e","meta":{"profile":["http://hl7.org/fhir/us/core/StructureDefinition/us-core-condition"]},"clinicalStatus":{"coding":[{"system":"http://terminology.hl7.org/CodeSystem/condition-clinical","code":"active","display":"Active"}]},"category":[{"coding":[{"system":"http://terminology.hl7.org/CodeSystem/condition-category","code":"problem-list-item"}]}],"code":{"coding":[{"system":"http://snomed.info/sct","code":"44882003"}]},"subject":{"reference":"Patient/4283b1ba-bfac-4cdb-99bf-6cdc3beb5c44"},"onsetDateTime":"2022-10-31T00:00:00+00:00"}},{"fullUrl":"Condition/c1421d2e-12c6-49c7-a541-dd1d6c2792bb","resource":{"resourceType":"Condition","id":"c1421d2e-12c6-49c7-a541-dd1d6c2792bb","meta":{"profile":["http://hl7.org/fhir/us/core/StructureDefinition/us-core-condition"]},"clinicalStatus":{"coding":[{"system":"http://terminology.hl7.org/CodeSystem/condition-clinical","code":"active","display":"Active"}]},"category":[{"coding":[{"system":"http://terminology.hl7.org/CodeSystem/condition-category","code":"problem-list-item"}]}],"code":{"coding":[{"system":"http://snomed.info/sct","code":"736686006"}]},"subject":{"reference":"Patient/4283b1ba-bfac-4cdb-99bf-6cdc3beb5c44"},"onsetDateTime":"2022-08-22T00:00:00+00:00"}},{"fullUrl":"Condition/d7be294f-5d9c-44bf-b895-cd6db6bb1f35","resource":{"resourceType":"Condition","id":"d7be294f-5d9c-44bf-b895-cd6db6bb1f35","meta":{"profile":["http://hl7.org/fhir/us/core/StructureDefinition/us-core-condition"]},"clinicalStatus":{"coding":[{"system":"http://terminology.hl7.org/CodeSystem/condition-clinical","code":"active","display":"Active"}]},"category":[{"coding":[{"system":"http://terminology.hl7.org/CodeSystem/condition-category","code":"problem-list-item"}]}],"code":{"coding":[{"system":"http://snomed.info/sct","code":"736686006"}]},"subject":{"reference":"Patient/4283b1ba-bfac-4cdb-99bf-6cdc3beb5c44"},"onsetDateTime":"2022-10-26T00:00:00+00:00"}},{"fullUrl":"Observation/20593007-11d0-4204-9ac7-8779c42f6189","resource":{"resourceType":"Observation","id":"20593007-11d0-4204-9ac7-8779c42f6189","meta":{"profile":["http://hl7.org/fhir/us/core/StructureDefinition/us-core-observation-lab"]},"status":"final","category":[{"coding":[{"system":"http://terminology.hl7.org/CodeSystem/observation-category","code":"laboratory","display":"Laboratory"}]}],"code":{"coding":[{"system":"http://loinc.org","code":"26464-8"}]},"subject":{"reference":"Patient/4283b1ba-bfac-4cdb-99bf-6cdc3beb5c44"},"effectiveDateTime":"2022-10-18T00:00:00+00:00","valueQuantity":{"value":6.2}}},{"fullUrl":"Observation/3caee116-3529-40f1-93a1-f9b8cc8b9a17","resource":{"resourceType":"Observation","id":"3caee116-3529-40f1-93a1-f9b8cc8b9a17","meta":{"profile":["http://hl7.org/fhir/us/core/StructureDefinition/us-core-observation-lab"]},"status":"final","category":[{"coding":[{"system":"http://terminology.hl7.org/CodeSystem/observation-category","code":"laboratory","display":"Laboratory"}]}],"code":{"coding":[{"system":"http://loinc.org","code":"6690-2"}]},"subject":{"reference":"Patient/4283b1ba-bfac-4cdb-99bf-6cdc3beb5c44"},"effectiveDateTime":"2022-08-26T00:00:00+00:00","valueQuantity":{"value":6.5}}},{"fullUrl":"Observation/41ca734b-998a-41a2-9a78-08d848c21fa0","resource":{"resourceType":"Observation","id":"41ca734b-998a-41a2-9a78-08d848c21fa0","meta":{"profile":["http://hl7.org/fhir/us/core/StructureDefinition/us-core-observation-lab"]},"status":"final","category":[{"coding":[{"system":"http://terminology.hl7.org/CodeSystem/observation-category","code":"laboratory","display":"Laboratory"}]}],"code":{"coding":[{"system":"http://loinc.org","code":"6690-2"}]},"subject":{"reference":"Patient/4283b1ba-bfac-4cdb-99bf-6cdc3beb5c44"},"effectiveDateTime":"2022-05-05T00:00:00+00:00","valueQuantity":{"value":6.4}}},{"fullUrl":"Observation/266d4bf3-7610-44c0-906f-6c6ea15e6f16","resource":{"resourceType":"Observation","id":"266d4bf3-7610-44c0-906f-6c6ea15e6f16","meta":{"profile":["http://hl7.org/fhir/us/core/StructureDefinition/us-core-bmi"]},"status":"final","category":[{"coding":[{"system":"http://terminology.hl7.org/CodeSystem/observation-category","code":"vital-signs","display":"Vital Signs"}]}],"code":{"coding":[{"system":"http://loinc.org","code":"39156-5"}]},"subject":{"reference":"Patient/4283b1ba-bfac-4cdb-99bf-6cdc3beb5c44"},"effectiveDateTime":"2022-01-09T00:00:00+00:00","valueQuantity":{"value":18.73,"unit":"kg/m2","system":"http://unitsofmeasure.org","code":"kg/m2"}}},{"fullUrl":"Observation/f3c1a84f-77ea-4af1-b876-daf7df8b8500","resource":{"resourceType":"Observation","id":"f3c1a84f-77ea-4af1-b876-daf7df8b8500","meta":{"profile":["http://hl7.org/fhir/us/core/StructureDefinition/us-core-head-circumference"]},"status":"final","category":[{"coding":[{"system":"http://terminology.hl7.org/CodeSystem/observation-category","code":"vital-signs","display":"Vital Signs"}]}],"code":{"coding":[{"system":"http://loinc.org","code":"9843-4"}]},"subject":{"reference":"Patient/4283b1ba-bfac-4cdb-99bf-6cdc3beb5c44"},"effectiveDateTime":"2022-10-06T00:00:00+00:00","valueQuantity":{"value":7.6,"unit":"Inch","system":"http://unitsofmeasure.org","code":"[in_i]"}}},{"fullUrl":"Observation/d41ed522-e854-4d98-8627-7e894020b26f","resource":{"resourceType":"Observation","id":"d41ed522-e854-4d98-8627-7e894020b26f","meta":{"profile":["http://hl7.org/fhir/us/core/StructureDefinition/us-core-body-height"]},"status":"final","category":[{"coding":[{"system":"http://terminology.hl7.org/CodeSystem/observation-category","code":"vital-signs","display":"Vital Signs"}]}],"code":{"coding":[{"system":"http://loinc.org","code":"8302-2"}]},"subject":{"reference":"Patient/4283b1ba-bfac-4cdb-99bf-6cdc3beb5c44"},"effectiveDateTime":"2022-04-06T00:00:00+00:00","valueQuantity":{"value":78.1,"unit":"Inch","system":"http://unitsofmeasure.org","code":"[in_i]"}}},{"fullUrl":"Observation/4b63a894-83cb-455a-b309-8485b58ca560","resource":{"resourceType":"Observation","id":"4b63a894-83cb-455a-b309-8485b58ca560","meta":{"profile":["http://hl7.org/fhir/us/core/StructureDefinition/us-core-body-height"]},"status":"final","category":[{"coding":[{"system":"http://terminology.hl7.org/CodeSystem/observation-category","code":"vital-signs","display":"Vital Signs"}]}],"code":{"coding":[{"system":"http://loinc.org","code":"8302-2"}]},"subject":{"reference":"Patient/4283b1ba-bfac-4cdb-99bf-6cdc3beb5c44"},"effectiveDateTime":"2022-01-30T00:00:00+00:00","valueQuantity":{"value":77.2,"unit":"Inch","system":"http://unitsofmeasure.org","code":"[in_i]"}}},{"fullUrl":"Observation/8612efe7-c50c-4712-9f7f-e572ae9d6d9e","resource":{"resourceType":"Observation","id":"8612efe7-c50c-4712-9f7f-e572ae9d6d9e","meta":{"profile":["http://hl7.org/fhir/us/core/StructureDefinition/us-core-body-weight"]},"status":"final","category":[{"coding":[{"system":"http://terminology.hl7.org/CodeSystem/observation-category","code":"vital-signs","display":"Vital Signs"}]}],"code":{"coding":[{"system":"http://loinc.org","code":"29463-7"}]},"subject":{"reference":"Patient/4283b1ba-bfac-4cdb-99bf-6cdc3beb5c44"},"effectiveDateTime":"2022-11-19T00:00:00+00:00","valueQuantity":{"value":58.99,"unit":"kilogram","system":"http://unitsofmeasure.org","code":"kg"}}},{"fullUrl":"Observation/1adcae81-bc97-46d3-ba8a-4fb8bf9c9d28","resource":{"resourceType":"Observation","id":"1adcae81-bc97-46d3-ba8a-4fb8bf9c9d28","meta":{"profile":["http://hl7.org/fhir/us/core/StructureDefinition/us-core-body-weight"]},"status":"final","category":[{"coding":[{"system":"http://terminology.hl7.org/CodeSystem/observation-category","code":"vital-signs","display":"Vital Signs"}]}],"code":{"coding":[{"system":"http://loinc.org","code":"29463-7"}]},"subject":{"reference":"Patient/4283b1ba-bfac-4cdb-99bf-6cdc3beb5c44"},"effectiveDateTime":"2022-07-21T00:00:00+00:00","valueQuantity":{"value":79.28,"unit":"kilogram","system":"http://unitsofmeasure.org","code":"kg"}}},{"fullUrl":"Observation/f4e9bcc7-d382-433b-adf7-576d4c4ccf8e","resource":{"resourceType":"Observation","id":"f4e9bcc7-d382-433b-adf7-576d4c4ccf8e","meta":{"profile":["http://hl7.org/fhir/us/core/StructureDefinition/us-core-body-temperature"]},"status":"final","category":[{"coding":[{"system":"http://terminology.hl7.org/CodeSystem/observation-category","code":"vital-signs","display":"Vital Signs"}]}],"code":{"coding":[{"system":"http://loinc.org","code":"8310-5"}]},"subject":{"reference":"Patient/4283b1ba-bfac-4cdb-99bf-6cdc3beb5c44"},"effectiveDateTime":"2022-05-10T00:00:00+00:00","valueQuantity":{"value":65.45,"unit":"Degrees Fahrenheit","system":"http://unitsofmeasure.org","code":"[degF]"}}},{"fullUrl":"Observation/e75c2ad9-18e0-48ec-adb2-3f3a66d6aaa3","resource":{"resourceType":"Observation","id":"e75c2ad9-18e0-48ec-adb2-3f3a66d6aaa3","meta":{"profile":["http://hl7.org/fhir/us/core/StructureDefinition/us-core-heart-rate"]},"status":"final","category":[{"coding":[{"system":"http://terminology.hl7.org/CodeSystem/observation-category","code":"vital-signs","display":"Vital Signs"}]}],"code":{"coding":[{"system":"http://loinc.org","code":"8867-4"}]},"subject":{"reference":"Patient/4283b1ba-bfac-4cdb-99bf-6cdc3beb5c44"},"effectiveDateTime":"2022-12-20T00:00:00+00:00","valueQuantity":{"value":97.4,"unit":"Per Minute","system":"http://unitsofmeasure.org","code":"/min"}}},{"fullUrl":"Observation/33340729-4c01-4146-b5d5-86962c8743fa","resource":{"resourceType":"Observation","id":"33340729-4c01-4146-b5d5-86962c8743fa","meta":{"profile":["http://hl7.org/fhir/us/core/StructureDefinition/us-core-heart-rate"]},"status":"final","category":[{"coding":[{"system":"http://terminology.hl7.org/CodeSystem/observation-category","code":"vital-signs","display":"Vital Signs"}]}],"code":{"coding":[{"system":"http://loinc.org","code":"8867-4"}]},"subject":{"reference":"Patient/4283b1ba-bfac-4cdb-99bf-6cdc3beb5c44"},"effectiveDateTime":"2022-05-16T00:00:00+00:00","valueQuantity":{"value":95.2,"unit":"Per Minute","system":"http://unitsofmeasure.org","code":"/min"}}}]}