{"resourceType":"Bundle","id":"391691cc-c5d8-4cb1-9aa7-4b9c686a5355","type":"transaction","entry":[{"fullUrl":"Patient/ecd7e2c4-1755-43e7-a9f3-7d7c345042d9","resource":{"resourceType":"Patient","id":"ecd7e2c4-1755-43e7-a9f3-7d7c345042d9","identifier":[{"type":{"coding":[{"system":"http://terminology.hl7.org/CodeSystem/v2-0203","code":"MR"}]},"system":"urn:fhirgen:mrn","value":"798-68-0999"},{"type":{"coding":[{"system":"http://terminology.hl7.org/CodeSystem/v2-0203","code":"SS"}]},"system":"http://hl7.org/fhir/sid/us-ssn","value":"764-80-5554"}],"name":[{"use":"official","family":"Contreras","given":["Tommy"]},{"use":"maiden","family":"Valentine"}],"telecom":[{"system":"phone","value":"111-504-7191x3885","use":"mobile"},{"system":"email","value":"mcgeebenjamin@gmail.com","use":"home"}],"gender":"male","birthDate":"1975-12-18","address":[{"use":"home","line":["8066 Grimes Viaduct Suite 343"],"city":"Amyburgh","state":"RI","postalCode":"83464"},{"use":"old","line":["62031 Alex Circles Suite 866"],"city":"North Kimtown","state":"AL","postalCode":"75831"}],"maritalStatus":{"coding":[{"system":"http://terminology.hl7.org/CodeSystem/v3-MaritalStatus","code":"T","display":"Domestic partner"}]}},"request":{"method":"POST","url":"Patient"}},{"fullUrl":"Observation/19192f25-8e24-4b53-b383-d5b4c31316fd","resource":{"resourceType":"Observation","id":"19192f25-8e24-4b53-b383-d5b4c31316fd","status":"final","code":{"coding":[{"system":"http://loinc.org","code":"47235-7"}]},"subject":{"reference":"Patient/ecd7e2c4-1755-43e7-a9f3-7d7c345042d9"},"effectiveDateTime":"2022-01-11T00:00:00+00:00","valueRatio":{"numerator":{"value":1},"denominator":{"value":32}}},"request":{"method":"POST","url":"Observation"}},{"fullUrl":"Observation/200cda01-173a-46f0-b270-f1130a69b00e","resource":{"resourceType":"Observation","id":"200cda01-173a-46f0-b270-f1130a69b00e","status":"final","code":{"coding":[{"system":"http://loinc.org","code":"31146-4"}]},"subject":{"reference":"Patient/ecd7e2c4-1755-43e7-a9f3-7d7c345042d9"},"effectiveDateTime":"2022-02-04T00:00:00+00:00","valueRatio":{"numerator":{"value":1},"denominator":{"value":4}}},"request":{"method":"POST","url":"Observation"}},{"fullUrl":"Observation/f3a4ea94-d979-458e-96b6-6ad5f1a0c564","resource":{"resourceType":"Observation","id":"f3a4ea94-d979-458e-96b6-6ad5f1a0c564","status":"final","code":{"coding":[{"system":"http://loinc.org","code":"71793-4"}]},"subject":{"reference":"Patient/ecd7e2c4-1755-43e7-a9f3-7d7c345042d9"},"effectiveDateTime":"2022-02-02T00:00:00+00:00","valueRatio":{"numerator":{"value":1},"denominator":{"value":4}}},"request":{"method":"POST","url":"Observation"}},{"fullUrl":"Condition/d8e8d64d-6894-492b-88de-2594a8afff59","resource":{"resourceType":"Condition","id":"d8e8d64d-6894-492b-88de-2594a8afff59","code":{"coding":[{"system":"http://snomed.info/sct","code":"71315007"}]},"subject":{"reference":"Patient/ecd7e2c4-1755-43e7-a9f3-7d7c345042d9"},"onsetDateTime":"2022-10-06T00:00:00+00:00"},"request":{"method":"POST","url":"Condition"}},{"fullUrl":"Condition/2d35d586-197b-4d59-8910-e6b043144092","resource":{"resourceType":"Condition","id":"2d35d586-197b-4d59-8910-e6b043144092","code":{"coding":[{"system":"http://snomed.info/sct","code":"31070006"}]},"subject":{"reference":"Patient/ecd7e2c4-1755-43e7-a9f3-7d7c345042d9"},"onsetDateTime":"2022-09-18T00:00:00+00:00"},"request":{"method":"POST","url":"Condition"}},{"fullUrl":"Condition/4e725c1c-7241-4287-8707-8a243bca33d7","resource":{"resourceType":"Condition","id":"4e725c1c-7241-4287-8707-8a243bca33d7","code":{"coding":[{"system":"http://snomed.info/sct","code":"297123002"}]},"subject":{"reference":"Patient/ecd7e2c4-1755-43e7-a9f3-7d7c345042d9"},"onsetDateTime":"2022-10-25T00:00:00+00:00"},"request":{"method":"POST","url":"Condition"}},{"fullUrl":"Condition/15e509d1-7341-4997-a028-10343bbd1247","resource":{"resourceType":"Condition","id":"15e509d1-7341-4997-a028-10343bbd1247","code":{"coding":[{"system":"http://snomed.info/sct","code":"31070006"}]},"subject":{"reference":"Patient/ecd7e2c4-1755-43e7-a9f3-7d7c345042d9"},"onsetDateTime":"2022-08-28T00:00:00+00:00"},"request":{"method":"POST","url":"Condition"}},{"fullUrl":"Condition/c636ea3f-2729-42bc-9682-87ce2b831cd3","resource":{"resourceType":"Condition","id":"c636ea3f-2729-42bc-9682-87ce2b831cd3","code":{"coding":[{"system":"http://snomed.info/sct","code":"405737000"}]},"subject":{"reference":"Patient/ecd7e2c4-1755-43e7-a9f3-7d7c345042d9"},"onsetDateTime":"2022-03-06T00:00:00+00:00"},"request":{"method":"POST","url":"Condition"}},{"fullUrl":"Observation/733beb6a-b802-487c-b52b-88db02e2c0f9","resource":{"resourceType":"Observation","id":"733beb6a-b802-487c-b52b-88db02e2c0f9","status":"final","code":{"coding":[{"system":"http://loinc.org","code":"6690-2"}]},"subject":{"reference":"Patient/ecd7e2c4-1755-43e7-a9f3-7d7c345042d9"},"effectiveDateTime":"2022-02-26T00:00:00+00:00","valueQuantity":{"value":4.2}},"request":{"method":"POST","url":"Observation"}},{"fullUrl":"Observation/b9c867d1-ae06-46eb-8cee-256a1f74c73a","resource":{"resourceType":"Observation","id":"b9c867d1-ae06-46eb-8cee-256a1f74c73a","status":"final","code":{"coding":[{"system":"http://loinc.org","code":"49498-9"}]},"subject":{"reference":"Patient/ecd7e2c4-1755-43e7-a9f3-7d7c345042d9"},"effectiveDateTime":"2022-11-13T00:00:00+00:00","valueQuantity":{"value":5.1}},"request":{"method":"POST","url":"Observation"}},{"fullUrl":"Observation/b7e7db4e-5048-40a7-895b-ed32c3436fdc","resource":{"resourceType":"Observation","id":"b7e7db4e-5048-40a7-895b-ed32c3436fdc","status":"final","code":{"coding":[{"system":"http://loinc.org","code":"6690-2"}]},"subject":{"reference":"Patient/ecd7e2c4-1755-43e7-a9f3-7d7c345042d9"},"effectiveDateTime":"2022-05-18T00:00:00+00:00","valueCodeableConcept":{"coding":[{"system":"snomed","code":"123456","display":"fake snomed"}]}},"request":{"method":"POST","url":"Observation"}},{"fullUrl":"Observation/349392c1-f354-4456-8f78-753b64488801","resource":{"resourceType":"Observation","id":"349392c1-f354-4456-8f78-753b64488801","status":"final","code":{"coding":[{"system":"http://www.ama-assn.org/go/cpt","code":"85048"}]},"subject":{"reference":"Patient/ecd7e2c4-1755-43e7-a9f3-7d7c345042d9"},"effectiveDateTime":"2022-05-03T00:00:00+00:00","valueCodeableConcept":{"coding":[{"system":"snomed","code":"123456","display":"fake snomed"}]}},"request":{"method":"POST","url":"Observation"}},{"fullUrl":"Observation/ce2771d4-3531-4fd5-b9b0-dee11a9f376c","resource":{"resourceType":"Observation","id":"ce2771d4-3531-4fd5-b9b0-dee11a9f376c","status":"final","code":{"coding":[{"system":"http://loinc.org","code":"49498-9"}]},"subject":{"reference":"Patient/ecd7e2c4-1755-43e7-a9f3-7d7c345042d9"},"effectiveDateTime":"2022-08-01T00:00:00+00:00"},"request":{"method":"POST","url":"Observation"}},{"fullUrl":"Observation/f14da4d5-6ae0-47ce-a758-9d3ad18493f2","resource":{"resourceType":"Observation","id":"f14da4d5-6ae0-47ce-a758-9d3ad18493f2","status":"final","code":{"coding":[{"system":"http://loinc.org","code":"49498-9"}]},"subject":{"reference":"Patient/ecd7e2c4-1755-43e7-a9f3-7d7c345042d9"},"effectiveDateTime":"2022-08-24T00:00:00+00:00"},"request":{"method":"POST","url":"Observation"}},{"fullUrl":"Procedure/345a25cf-271d-490b-a3e3-49e2600fc0a5","resource":{"resourceType":"Procedure","id":"345a25cf-271d-490b-a3e3-49e2600fc0a5","status":"completed","code":{"coding":[{"system":"http://snomed.info/sct","code":"647000"}]},"subject":{"reference":"Patient/ecd7e2c4-1755-43e7-a9f3-7d7c345042d9"},"performedDateTime":"2022-02-24T00:00:00+00:00"},"request":{"method":"POST","url":"Procedure"}},{"fullUrl":"Procedure/5696d194-4d40-496a-80d4-7d1f39e2e931","resource":{"resourceType":"Procedure","id":"5696d194-4d40-496a-80d4-7d1f39e2e931","status":"completed","code":{"coding":[{"system":"http://snomed.info/sct","code":"104001"}]},"subject":{"reference":"Patient/ecd7e2c4-1755-43e7-a9f3-7d7c345042d9"},"performedDateTime":"2022-09-24T00:00:00+00:00"},"request":{"method":"POST","url":"Procedure"}},{"fullUrl":"Procedure/f6380359-1012-44bc-91e3-80a7f1956abb","resource":{"resourceType":"Procedure","id":"f6380359-1012-44bc-91e3-80a7f1956abb","status":"completed","code":{"coding":[{"system":"http://snomed.info/sct","code":"104001"}]},"subject":{"reference":"Patient/ecd7e2c4-1755-43e7-a9f3-7d7c345042d9"},"performedDateTime":"2022-06-05T00:00:00+00:00"},"request":{"method":"POST","url":"Procedure"}},{"fullUrl":"MedicationStatement/16424547-d334-45cf-a37d-d49fd7db742c","resource":{"resourceType":"MedicationStatement","id":"16424547-d334-45cf-a37d-d49fd7db742c","status":"completed","medicationCodeableConcept":{"coding":[{"system":"http://www.nlm.nih.gov/research/umls/rxnorm","code":"7984"}]},"subject":{"reference":"Patient/ecd7e2c4-1755-43e7-a9f3-7d7c345042d9"},"effectiveDateTime":"2022-07-23T00:00:00+00:00","dosage":[{"doseAndRate":[{"doseQuantity":{"value":1,"unit":"TAB","system":"http://terminology.hl7.org/CodeSystem/v3-orderableDrugForm","code":"TAB"}}]}]},"request":{"method":"POST","url":"MedicationStatement"}},{"fullUrl":"MedicationStatement/ae8adb9a-9dc2-47e3-b18e-b064dc82f51f","resource":{"resourceType":"MedicationStatement","id":"ae8adb9a-9dc2-47e3-b18e-b064dc82f51f","status":"completed","medicationCodeableConcept":{"coding":[{"system":"http://www.nlm.nih.gov/research/umls/rxnorm","code":"18631"}]},"subject":{"reference":"Patient/ecd7e2c4-1755-43e7-a9f3-7d7c345042d9"},"effectiveDateTime":"2022-07-21T00:00:00+00:00","dosage":[{"doseAndRate":[{"doseQuantity":{"value":2,"unit":"TAB","system":"http://terminology.hl7.org/CodeSystem/v3-orderableDrugForm","code":"TAB"}}]}]},"request":{"method":"POST","url":"MedicationStatement"}},{"fullUrl":"MedicationStatement/07b84e9e-597a-4399-8946-9a38d6540cf4","resource":{"resourceType":"MedicationStatement","id":"07b84e9e-597a-4399-8946-9a38d6540cf4","status":"completed","medicationCodeableConcept":{"coding":[{"system":"http://www.nlm.nih.gov/research/umls/rxnorm","code":"3640"}]},"subject":{"reference":"Patient/ecd7e2c4-1755-43e7-a9f3-7d7c345042d9"},"effectiveDateTime":"2022-03-16T00:00:00+00:00","dosage":[{"doseAndRate":[{"doseQuantity":{"value":1,"unit":"TAB","system":"http://terminology.hl7.org/CodeSystem/v3-orderableDrugForm","code":"TAB"}}]}]},"request":{"method":"POST","url":"MedicationStatement"}},{"fullUrl":"MedicationStatement/775eeaf8-f964-4ff9-aa10-09e85f49bf54","resource":{"resourceType":"MedicationStatement","id":"775eeaf8-f964-4ff9-aa10-09e85f49bf54","status":"completed","medicationCodeableConcept":{"coding":[{"system":"http://www.nlm.nih.gov/research/umls/rxnorm","code":"8698"}]},"subject":{"reference":"Patient/ecd7e2c4-1755-43e7-a9f3-7d7c345042d9"},"effectiveDateTime":"2022-06-11T00:00:00+00:00","dosage":[{"doseAndRate":[{"doseQuantity":{"value":2,"unit":"TAB","system":"http://terminology.hl7.org/CodeSystem/v3-orderableDrugForm","code":"TAB"}}]}]},"request":{"method":"POST","url":"MedicationStatement"}},{"fullUrl":"MedicationStatement/b4647935-19f4-47ec-be64-9ebe5d3fb9c4","resource":{"resourceType":"MedicationStatement","id":"b4647935-19f4-47ec-be64-9ebe5d3fb9c4","status":"completed","medicationCodeableConcept":{"coding":[{"system":"http://www.nlm.nih.gov/research/umls/rxnorm","code":"7980"}]},"subject":{"reference":"Patient/ecd7e2c4-1755-43e7-a9f3-7d7c345042d9"},"effectiveDateTime":"2022-09-22T00:00:00+00:00","dosage":[{"doseAndRate":[{"doseQuantity":{"value":2,"unit":"TAB","system":"http://terminology.hl7.org/CodeSystem/v3-orderableDrugForm","code":"TAB"}}]}]},"request":{"method":"POST","url":"MedicationStatement"}},{"fullUrl":"MedicationStatement/c55322c3-4824-4469-b398-6decb4f37765","resource":{"resourceType":"MedicationStatement","id":"c55322c3-4824-4469-b398-6decb4f37765","status":"completed","medicationCodeableConcept":{"coding":[{"system":"http://www.nlm.nih.gov/research/umls/rxnorm","code":"7980"}]},"subject":{"reference":"Patient/ecd7e2c4-1755-43e7-a9f3-7d7c345042d9"},"effectiveDateTime":"2022-06-23T00:00:00+00:00","dosage":[{"doseAndRate":[{"doseQuantity":{"value":5.3,"unit":"TAB","system":"http://terminology.hl7.org/CodeSystem/v3-orderableDrugForm","code":"TAB"}}]}]},"request":{"method":"POST","url":"MedicationStatement"}},{"fullUrl":"MedicationStatement/4f030889-2dac-486e-b2fe-c0ef38463442","resource":{"resourceType":"MedicationStatement","id":"4f030889-2dac-486e-b2fe-c0ef38463442","status":"completed","medicationCodeableConcept":{"coding":[{"system":"http://www.nlm.nih.gov/research/umls/rxnorm","code":"18631"}]},"subject":{"reference":"Patient/ecd7e2c4-1755-43e7-a9f3-7d7c345042d9"},"effectiveDateTime":"2022-08-18T00:00:00+00:00","dosage":[{"doseAndRate":[{"doseQuantity":{"value":5.4,"unit":"TAB","system":"http://terminology.hl7.org/CodeSystem/v3-orderableDrugForm","code":"TAB"}}]}]},"request":{"method":"POST","url":"MedicationStatement"}},{"fullUrl":"MedicationStatement/88a740bf-48d2-4737-883c-08bf55eca704","resource":{"resourceType":"MedicationStatement","id":"88a740bf-48d2-4737-883c-08bf55eca704","status":"completed","medicationCodeableConcept":{"coding":[{"system":"http://www.nlm.nih.gov/research/umls/rxnorm","code":"18631"}]},"subject":{"reference":"Patient/ecd7e2c4-1755-43e7-a9f3-7d7c345042d9"},"effectiveDateTime":"2022-06-02T00:00:00+00:00","dosage":[{"doseAndRate":[{"doseQuantity":{"value":6.9,"unit":"TAB","system":"http://terminology.hl7.org/CodeSystem/v3-orderableDrugForm","code":"TAB"}}]}]},"request":{"method":"POST","url":"MedicationStatement"}},{"fullUrl":"MedicationStatement/2be8b4a9-7874-4913-a52a-7dd93c9e6f87","resource":{"resourceType":"MedicationStatement","id":"2be8b4a9-7874-4913-a52a-7dd93c9e6f87","status":"completed","medicationCodeableConcept":{"coding":[{"system":"http://www.nlm.nih.gov/research/umls/rxnorm","code":"7980"}]},"subject":{"reference":"Patient/ecd7e2c4-1755-43e7-a9f3-7d7c345042d9"},"effectiveDateTime":"2022-04-13T00:00:00+00:00","dosage":[{"doseAndRate":[{"doseQuantity":{"value":6.5,"unit":"TAB","system":"http://terminology.hl7.org/CodeSystem/v3-orderableDrugForm","code":"TAB"}}]}]},"request":{"method":"POST","url":"MedicationStatement"}},{"fullUrl":"MedicationStatement/f5ea0c82-d158-4bee-bb45-3bd7ac02d538","resource":{"resourceType":"MedicationStatement","id":"f5ea0c82-d158-4bee-bb45-3bd7ac02d538","status":"completed","medicationCodeableConcept":{"coding":[{"system":"http://www.nlm.nih.gov/research/umls/rxnorm","code":"8698"}]},"subject":{"reference":"Patient/ecd7e2c4-1755-43e7-a9f3-7d7c345042d9"},"effectiveDateTime":"2022-11-14T00:00:00+00:00","dosage":[{"doseAndRate":[{"doseQuantity":{"value":6.3,"unit":"TAB","system":"http://terminology.hl7.org/CodeSystem/v3-orderableDrugForm","code":"TAB"}}]}]},"request":{"method":"POST","url":"MedicationStatement"}},{"fullUrl":"Encounter/a04d2dfa-1ea3-4c6b-b5d1-12edbc053b67","resource":{"resourceType":"Encounter","id":"a04d2dfa-1ea3-4c6b-b5d1-12edbc053b67","status":"finished","class":{"system":"http://terminology.hl7.org/CodeSystem/v3-ActCode","code":"IMP","display":"inpatient encounter"},"type":[{"coding":[{"system":"http://terminology.hl7.org/CodeSystem/encounter-type","code":"ADMS"}]}],"subject":{"reference":"Patient/ecd7e2c4-1755-43e7-a9f3-7d7c345042d9"},"period":{"start":"2022-04-04T00:00:00+00:00","end":"2022-04-08T00:00:00+00:00"}},"request":{"method":"POST","url":"Encounter"}},{"fullUrl":"Encounter/9b7d05ea-b063-45e8-91ab-8b44dae6445e","resource":{"resourceType":"Encounter","id":"9b7d05ea-b063-45e8-91ab-8b44dae6445e","status":"finished","class":{"system":"http://terminology.hl7.org/CodeSystem/v3-ActCode","code":"IMP","display":"inpatient encounter"},"type":[{"coding":[{"system":"http://terminology.hl7.org/CodeSystem/encounter-type","code":"BD/BM-clin"}]}],"subject":{"reference":"Patient/ecd7e2c4-1755-43e7-a9f3-7d7c345042d9"},"period":{"start":"2022-04-14T00:00:00+00:00","end":"2022-04-20T00:00:00+00:00"}},"request":{"method":"POST","url":"Encounter"}},{"fullUrl":"Encounter/d653f3a3-b59c-4f9d-9711-6d43c28cbdea","resource":{"resourceType":"Encounter","id":"d653f3a3-b59c-4f9d-9711-6d43c28cbdea","status":"finished","class":{"system":"http://terminology.hl7.org/CodeSystem/v3-ActCode","code":"FLD","display":"field"},"type":[{"coding":[{"system":"http://terminology.hl7.org/CodeSystem/encounter-type","code":"OKI"}]}],"subject":{"reference":"Patient/ecd7e2c4-1755-43e7-a9f3-7d7c345042d9"},"period":{"start":"2022-05-17T00:00:00+00:00","end":"2022-05-19T00:00:00+00:00"}},"request":{"method":"POST","url":"Encounter"}},{"fullUrl":"Encounter/3bfb48c6-9d53-4c46-a6a1-e59554b66e80","resource":{"resourceType":"Encounter","id":"3bfb48c6-9d53-4c46-a6a1-e59554b66e80","status":"finished","class":{"system":"http://terminology.hl7.org/CodeSystem/v3-ActCode","code":"FLD","display":"field"},"type":[{"coding":[{"system":"http://terminology.hl7.org/CodeSystem/encounter-type","code":"CCS60"}]}],"subject":{"reference":"Patient/ecd7e2c4-1755-43e7-a9f3-7d7c345042d9"},"period":{"start":"2022-01-14T00:00:00+00:00","end":"2022-01-22T00:00:00+00:00"}},"request":{"method":"POST","url":"Encounter"}},{"fullUrl":"Encounter/ae4c7047-b8b1-44a4-a9d4-7d58a6b60b23","resource":{"resourceType":"Encounter","id":"ae4c7047-b8b1-44a4-a9d4-7d58a6b60b23","status":"finished","class":{"system":"http://terminology.hl7.org/CodeSystem/v3-ActCode","code":"OBSENC","display":"observation encounter"},"type":[{"coding":[{"system":"http://terminology.hl7.org/CodeSystem/encounter-type","code":"CCS60"}]}],"subject":{"reference":"Patient/ecd7e2c4-1755-43e7-a9f3-7d7c345042d9"},"period":{"start":"2022-07-22T00:00:00+00:00","end":"2022-07-26T00:00:00+00:00"}},"request":{"method":"POST","url":"Encounter"}},{"fullUrl":"Location/1c6af11b-ba32-452d-be44-a04b57efbaae","resource":{"resourceType":"Location","id":"1c6af11b-ba32-452d-be44-a04b57efbaae","status":"active","name":"Bishop Inc","telecom":[{"system":"phone","value":"(648)319-4606x633","use":"mobile"}],"address":{"use":"work","line":["923 Selena Avenue"],"city":"East Jason","state":"SD","postalCode":"58511"}},"request":{"method":"POST","url":"Location"}},{"fullUrl":"Observation/cfd3aeb1-5454-4bd4-b8bc-42757831a27c","resource":{"resourceType":"Observation","id":"cfd3aeb1-5454-4bd4-b8bc-42757831a27c","status":"final","code":{"coding":[{"system":"http://loinc.org","code":"81956-5"}]},"subject":{"reference":"Patient/ecd7e2c4-1755-43e7-a9f3-7d7c345042d9"},"effectiveDateTime":"2022-08-12T00:00:00+00:00","valueDateTime":"2022-05-13T00:00:00+00:00"},"request":{"method":"POST","url":"Observation"}},{"fullUrl":"Patient/6b8ae2ce-93f8-4928-94cd-efeead8a7118","resource":{"resourceType":"Patient","id":"6b8ae2ce-93f8-4928-94cd-efeead8a7118","identifier":[{"type":{"coding":[{"system":"http://terminology.hl7.org/CodeSystem/v2-0203","code":"MR"}]},"system":"urn:fhirgen:mrn","value":"101-80-3135"},{"type":{"coding":[{"system":"http://terminology.hl7.org/CodeSystem/v2-0203","code":"SS"}]},"system":"http://hl7.org/fhir/sid/us-ssn","value":"322-91-5525"}],"name":[{"use":"official","family":"Johnson","given":["Brian"]},{"use":"maiden","family":"Meyer"}],"telecom":[{"system":"phone","value":"(293)292-0158","use":"mobile"},{"system":"email","value":"daniellebutler@yahoo.com","use":"home"}],"gender":"male","birthDate":"1977-06-29","address":[{"use":"home","line":["1403 Jackson Ford"],"city":"Rogersburgh","state":"VA","postalCode":"34283"},{"use":"old","line":["8512 Henry Orchard Suite 689"],"city":"Lopezside","state":"WV","postalCode":"93642"}],"maritalStatus":{"coding":[{"system":"http://terminology.hl7.org/CodeSystem/v3-MaritalStatus","code":"L","display":"Legally Separated"}]}},"request":{"method":"POST","url":"Patient"}},{"fullUrl":"Observation/92921bc5-7353-4b65-8392-c3fc0b430491","resource":{"resourceType":"Observation","id":"92921bc5-7353-4b65-8392-c3fc0b430491","status":"final","code":{"coding":[{"system":"http://loinc.org","code":"47476-7"}]},"subject":{"reference":"Patient/6b8ae2ce-93f8-4928-94cd-efeead8a7118"},"effectiveDateTime":"2022-12-04T00:00:00+00:00","valueRatio":{"numerator":{"value":1},"denominator":{"value":32}}},"request":{"method":"POST","url":"Observation"}},{"fullUrl":"Observation/a144e6ab-733a-4e5b-9c9a-2b14e82bd13e","resource":{"resourceType":"Observation","id":"a144e6ab-733a-4e5b-9c9a-2b14e82bd13e","status":"final","code":{"coding":[{"system":"http://loinc.org","code":"31146-4"}]},"subject":{"reference":"Patient/6b8ae2ce-93f8-4928-94cd-efeead8a7118"},"effectiveDateTime":"2022-10-30T00:00:00+00:00","valueRatio":{"numerator":{"value":1},"denominator":{"value":32}}},"request":{"method":"POST","url":"Observation"}},{"fullUrl":"Observation/3fad952e-6c8e-40a3-aff6-d0b8111b85b6","resource":{"resourceType":"Observation","id":"3fad952e-6c8e-40a3-aff6-d0b8111b85b6","status":"final","code":{"coding":[{"system":"http://loinc.org","code":"47476-7"}]},"subject":{"reference":"Patient/6b8ae2ce-93f8-4928-94cd-efeead8a7118"},"effectiveDateTime":"2022-12-08T00:00:00+00:00","valueRatio":{"numerator":{"value":1},"denominator":{"value":32}}},"request":{"method":"POST","url":"Observation"}},{"fullUrl":"Condition/058ae16f-3f5d-4b6b-a51b-1b566213bb5c","resource":{"resourceType":"Condition","id":"058ae16f-3f5d-4b6b-a51b-1b566213bb5c","code":{"coding":[{"system":"http://snomed.info/sct","code":"71315007"}]},"subject":{"reference":"Patient/6b8ae2ce-93f8-4928-94cd-efeead8a7118"},"onsetDateTime":"2022-05-28T00:00:00+00:00"},"request":{"method":"POST","url":"Condition"}},{"fullUrl":"Condition/6d723da6-5317-4525-abc4-0c7ba00ec459","resource":{"resourceType":"Condition","id":"6d723da6-5317-4525-abc4-0c7ba00ec459","code":{"coding":[{"system":"http://snomed.info/sct","code":"79342006"}]},"subject":{"reference":"Patient/6b8ae2ce-93f8-4928-94cd-efeead8a7118"},"onsetDateTime":"2022-01-22T00:00:00+00:00"},"request":{"method":"POST","url":"Condition"}},{"fullUrl":"Condition/1b64bf96-0a22-4390-a580-5f13327ccedb","resource":{"resourceType":"Condition","id":"1b64bf96-0a22-4390-a580-5f13327ccedb","code":{"coding":[{"system":"http://snomed.info/sct","code":"18165001"}]},"subject":{"reference":"Patient/6b8ae2ce-93f8-4928-94cd-efeead8a7118"},"onsetDateTime":"2022-03-09T00:00:00+00:00"},"request":{"method":"POST","url":"Condition"}},{"fullUrl":"Condition/70ccd586-9ab9-40c7-81ab-6659bff55940","resource":{"resourceType":"Condition","id":"70ccd586-9ab9-40c7-81ab-6659bff55940","code":{"coding":[{"system":"http://snomed.info/sct","code":"30746006"}]},"subject":{"reference":"Patient/6b8ae2ce-93f8-4928-94cd-efeead8a7118"},"onsetDateTime":"2022-05-04T00:00:00+00:00"},"request":{"method":"POST","url":"Condition"}},{"fullUrl":"Condition/217e5112-7aad-49d5-a4b4-df32b7da0ee4","resource":{"resourceType":"Condition","id":"217e5112-7aad-49d5-a4b4-df32b7da0ee4","code":{"coding":[{"system":"http://snomed.info/sct","code":"709977002"}]},"subject":{"reference":"Patient/6b8ae2ce-93f8-4928-94cd-efeead8a7118"},"onsetDateTime":"2022-08-26T00:00:00+00:00"},"request":{"method":"POST","url":"Condition"}},{"fullUrl":"Condition/26b17ae8-e89a-4bd1-9088-02509e8860bd","resource":{"resourceType":"Condition","id":"26b17ae8-e89a-4bd1-9088-02509e8860bd","code":{"coding":[{"system":"http://snomed.info/sct","code":"71315007"}]},"subject":{"reference":"Patient/6b8ae2ce-93f8-4928-94cd-efeead8a7118"},"onsetDateTime":"2022-03-12T00:00:00+00:00"},"request":{"method":"POST","url":"Condition"}},{"fullUrl":"Observation/41365f69-7b6a-43af-9b53-40ced17dd9ee","resource":{"resourceType":"Observation","id":"41365f69-7b6a-43af-9b53-40ced17dd9ee","status":"final","code":{"coding":[{"system":"http://loinc.org","code":"6690-2"}]},"subject":{"reference":"Patient/6b8ae2ce-93f8-4928-94cd-efeead8a7118"},"effectiveDateTime":"2022-12-21T00:00:00+00:00","valueQuantity":{"value":10.5}},"request":{"method":"POST","url":"Observation"}},{"fullUrl":"Observation/3e5f5807-9c01-4fdb-9902-76a4c5278274","resource":{"resourceType":"Observation","id":"3e5f5807-9c01-4fdb-9902-76a4c5278274","status":"final","code":{"coding":[{"system":"http://loinc.org","code":"49498-9"}]},"subject":{"reference":"Patient/6b8ae2ce-93f8-4928-94cd-efeead8a7118"},"effectiveDateTime":"2022-07-16T00:00:00+00:00","valueQuantity":{"value":5.6}},"request":{"method":"POST","url":"Observation"}},{"fullUrl":"Observation/a21e28f6-79e5-426c-9ef2-8d968dee5770","resource":{"resourceType":"Observation","id":"a21e28f6-79e5-426c-9ef2-8d968dee5770","status":"final","code":{"coding":[{"system":"http://loinc.org","code":"804-5"}]},"subject":{"reference":"Patient/6b8ae2ce-93f8-4928-94cd-efeead8a7118"},"effectiveDateTime":"2022-05-24T00:00:00+00:00","valueQuantity":{"value":4.6}},"request":{"method":"POST","url":"Observation"}},{"fullUrl":"Observation/c2a1ce4c-9748-46c3-907c-412b2e3007ad","resource":{"resourceType":"Observation","id":"c2a1ce4c-9748-46c3-907c-412b2e3007ad","status":"final","code":{"coding":[{"system":"http://loinc.org","code":"6690-2"}]},"subject":{"reference":"Patient/6b8ae2ce-93f8-4928-94cd-efeead8a7118"},"effectiveDateTime":"2022-03-11T00:00:00+00:00","valueCodeableConcept":{"coding":[{"system":"snomed","code":"123456","display":"fake snomed"}]}},"request":{"method":"POST","url":"Observation"}},{"fullUrl":"Observation/615a4451-0d3f-47b8-b0f2-392ee56dbb15","resource":{"resourceType":"Observation","id":"615a4451-0d3f-47b8-b0f2-392ee56dbb15","status":"final","code":{"coding":[{"system":"http://loinc.org","code":"6690-2"}]},"subject":{"reference":"Patient/6b8ae2ce-93f8-4928-94cd-efeead8a7118"},"effectiveDateTime":"2022-03-07T00:00:00+00:00","valueCodeableConcept":{"coding":[{"system":"snomed","code":"123456","display":"fake snomed"}]}},"request":{"method":"POST","url":"Observation"}},{"fullUrl":"Observation/cb69e66d-f09b-438b-9624-013b1aba5a97","resource":{"resourceType":"Observation","id":"cb69e66d-f09b-438b-9624-013b1aba5a97","status":"final","code":{"coding":[{"system":"http://loinc.org","code":"49498-9"}]},"subject":{"reference":"Patient/6b8ae2ce-93f8-4928-94cd-efeead8a7118"},"effectiveDateTime":"2022-01-15T00:00:00+00:00"},"request":{"method":"POST","url":"Observation"}},{"fullUrl":"Observation/2885861c-3cb0-41d0-95a9-4cf205133f58","resource":{"resourceType":"Observation","id":"2885861c-3cb0-41d0-95a9-4cf205133f58","status":"final","code":{"coding":[{"system":"http://loinc.org","code":"49498-9"}]},"subject":{"reference":"Patient/6b8ae2ce-93f8-4928-94cd-efeead8a7118"},"effectiveDateTime":"2022-03-08T00:00:00+00:00"},"request":{"method":"POST","url":"Observation"}},{"fullUrl":"Procedure/78e5b163-63a5-4b7e-a5d1-0e0db24200c2","resource":{"resourceType":"Procedure","id":"78e5b163-63a5-4b7e-a5d1-0e0db24200c2","status":"completed","code":{"coding":[{"system":"http://snomed.info/sct","code":"647000"}]},"subject":{"reference":"Patient/6b8ae2ce-93f8-4928-94cd-efeead8a7118"},"performedDateTime":"2022-05-30T00:00:00+00:00"},"request":{"method":"POST","url":"Procedure"}},{"fullUrl":"Procedure/cf85640f-b536-4e50-a537-73655256ebb2","resource":{"resourceType":"Procedure","id":"cf85640f-b536-4e50-a537-73655256ebb2","status":"completed","code":{"coding":[{"system":"http://snomed.info/sct","code":"104001"}]},"subject":{"reference":"Patient/6b8ae2ce-93f8-4928-94cd-efeead8a7118"},"performedDateTime":"2022-10-01T00:00:00+00:00"},"request":{"method":"POST","url":"Procedure"}},{"fullUrl":"Procedure/19c51e8e-7592-4195-90b5-c5eab29de79a","resource":{"resourceType":"Procedure","id":"19c51e8e-7592-4195-90b5-c5eab29de79a","status":"completed","code":{"coding":[{"system":"http://snomed.info/sct","code":"647000"}]},"subject":{"reference":"Patient/6b8ae2ce-93f8-4928-94cd-efeead8a7118"},"performedDateTime":"2022-01-07T00:00:00+00:00"},"request":{"method":"POST","url":"Procedure"}},{"fullUrl":"MedicationStatement/5a37821b-5867-42a3-9b0f-1a3be342af98","resource":{"resourceType":"MedicationStatement","id":"5a37821b-5867-42a3-9b0f-1a3be342af98","status":"completed","medicationCodeableConcept":{"coding":[{"system":"http://www.nlm.nih.gov/research/umls/rxnorm","code":"7984"}]},"subject":{"reference":"Patient/6b8ae2ce-93f8-4928-94cd-efeead8a7118"},"effectiveDateTime":"2022-12-31T00:00:00+00:00","dosage":[{"doseAndRate":[{"doseQuantity":{"value":2,"unit":"TAB","system":"http://terminology.hl7.org/CodeSystem/v3-orderableDrugForm","code":"TAB"}}]}]},"request":{"method":"POST","url":"MedicationStatement"}},{"fullUrl":"MedicationStatement/03357dcc-1925-498f-b85d-802871b834e8","resource":{"resourceType":"MedicationStatement","id":"03357dcc-1925-498f-b85d-802871b834e8","status":"completed","medicationCodeableConcept":{"coding":[{"system":"http://www.nlm.nih.gov/research/umls/rxnorm","code":"2193"}]},"subject":{"reference":"Patient/6b8ae2ce-93f8-4928-94cd-efeead8a7118"},"effectiveDateTime":"2022-09-29T00:00:00+00:00","dosage":[{"doseAndRate":[{"doseQuantity":{"value":1,"unit":"TAB","system":"http://terminology.hl7.org/CodeSystem/v3-orderableDrugForm","code":"TAB"}}]}]},"request":{"method":"POST","url":"MedicationStatement"}},{"fullUrl":"MedicationStatement/10bfe27f-b5c7-4218-83ea-38de64dc7bd5","resource":{"resourceType":"MedicationStatement","id":"10bfe27f-b5c7-4218-83ea-38de64dc7bd5","status":"completed","medicationCodeableConcept":{"coding":[{"system":"http://www.nlm.nih.gov/research/umls/rxnorm","code":"3640"}]},"subject":{"reference":"Patient/6b8ae2ce-93f8-4928-94cd-efeead8a7118"},"effectiveDateTime":"2022-11-26T00:00:00+00:00","dosage":[{"doseAndRate":[{"doseQuantity":{"value":5.7,"unit":"TAB","system":"http://terminology.hl7.org/CodeSystem/v3-orderableDrugForm","code":"TAB"}}]}]},"request":{"method":"POST","url":"MedicationStatement"}},{"fullUrl":"MedicationStatement/63998911-9c1a-43f6-a003-b641cabecf93","resource":{"resourceType":"MedicationStatement","id":"63998911-9c1a-43f6-a003-b641cabecf93","status":"completed","medicationCodeableConcept":{"coding":[{"system":"http://www.nlm.nih.gov/research/umls/rxnorm","code":"3640"}]},"subject":{"reference":"Patient/6b8ae2ce-93f8-4928-94cd-efeead8a7118"},"effectiveDateTime":"2022-12-08T00:00:00+00:00","dosage":[{"doseAndRate":[{"doseQuantity":{"value":5,"unit":"TAB","system":"http://terminology.hl7.org/CodeSystem/v3-orderableDrugForm","code":"TAB"}}]}]},"request":{"method":"POST","url":"MedicationStatement"}},{"fullUrl":"MedicationStatement/5bfe92a7-ded3-440f-b076-6a81545a1fcf","resource":{"resourceType":"MedicationStatement","id":"5bfe92a7-ded3-440f-b076-6a81545a1fcf","status":"completed","medicationCodeableConcept":{"coding":[{"system":"http://www.nlm.nih.gov/research/umls/rxnorm","code":"10395"}]},"subject":{"reference":"Patient/6b8ae2ce-93f8-4928-94cd-efeead8a7118"},"effectiveDateTime":"2022-05-14T00:00:00+00:00","dosage":[{"doseAndRate":[{"doseQuantity":{"value":4.6,"unit":"TAB","system":"http://terminology.hl7.org/CodeSystem/v3-orderableDrugForm","code":"TAB"}}]}]},"request":{"method":"POST","url":"MedicationStatement"}},{"fullUrl":"MedicationStatement/d1c9e33f-43e6-453b-9b8a-98c5ad62c61f","resource":{"resourceType":"MedicationStatement","id":"d1c9e33f-43e6-453b-9b8a-98c5ad62c61f","status":"completed","medicationCodeableConcept":{"coding":[{"system":"http://www.nlm.nih.gov/research/umls/rxnorm","code":"7984"}]},"subject":{"reference":"Patient/6b8ae2ce-93f8-4928-94cd-efeead8a7118"},"effectiveDateTime":"2022-09-25T00:00:00+00:00","dosage":[{"doseAndRate":[{"doseQuantity":{"value":5.9,"unit":"TAB","system":"http://terminology.hl7.org/CodeSystem/v3-orderableDrugForm","code":"TAB"}}]}]},"request":{"method":"POST","url":"MedicationStatement"}},{"fullUrl":"MedicationStatement/58b7ec53-eb4f-447f-a19c-a1e5bf746a8d","resource":{"resourceType":"MedicationStatement","id":"58b7ec53-eb4f-447f-a19c-a1e5bf746a8d","status":"completed","medicationCodeableConcept":{"coding":[{"system":"http://www.nlm.nih.gov/research/umls/rxnorm","code":"10395"}]},"subject":{"reference":"Patient/6b8ae2ce-93f8-4928-94cd-efeead8a7118"},"effectiveDateTime":"2022-12-19T00:00:00+00:00","dosage":[{"doseAndRate":[{"doseQuantity":{"value":6.5,"unit":"TAB","system":"http://terminology.hl7.org/CodeSystem/v3-orderableDrugForm","code":"TAB"}}]}]},"request":{"method":"POST","url":"MedicationStatement"}},{"fullUrl":"MedicationStatement/d1117917-061f-43b2-8dae-ef7a1eec963b","resource":{"resourceType":"MedicationStatement","id":"d1117917-061f-43b2-8dae-ef7a1eec963b","status":"completed","medicationCodeableConcept":{"coding":[{"system":"http://www.nlm.nih.gov/research/umls/rxnorm","code":"18631"}]},"subject":{"reference":"Patient/6b8ae2ce-93f8-4928-94cd-efeead8a7118"},"effectiveDateTime":"2022-05-29T00:00:00+00:00","dosage":[{"doseAndRate":[{"doseQuantity":{"value":6.4,"unit":"TAB","system":"http://terminology.hl7.org/CodeSystem/v3-orderableDrugForm","code":"TAB"}}]}]},"request":{"method":"POST","url":"MedicationStatement"}},{"fullUrl":"Encounter/d042a64c-c11b-4935-98ff-85b44e2a4451","resource":{"resourceType":"Encounter","id":"d042a64c-c11b-4935-98ff-85b44e2a4451","status":"finished","class":{"system":"http://terminology.hl7.org/CodeSystem/v3-ActCode","code":"IMP","display":"inpatient encounter"},"type":[{"coding":[{"system":"http://terminology.hl7.org/CodeSystem/encounter-type","code":"CCS60"}]}],"subject":{"reference":"Patient/6b8ae2ce-93f8-4928-94cd-efeead8a7118"},"period":{"start":"2022-08-06T00:00:00+00:00","end":"2022-08-11T00:00:00+00:00"}},"request":{"method":"POST","url":"Encounter"}},{"fullUrl":"Encounter/96c41747-b60d-4ea4-8e84-77a382f6ae1f","resource":{"resourceType":"Encounter","id":"96c41747-b60d-4ea4-8e84-77a382f6ae1f","status":"finished","class":{"system":"http://terminology.hl7.org/CodeSystem/v3-ActCode","code":"IMP","display":"inpatient encounter"},"type":[{"coding":[{"system":"http://terminology.hl7.org/CodeSystem/encounter-type","code":"CCS60"}]}],"subject":{"reference":"Patient/6b8ae2ce-93f8-4928-94cd-efeead8a7118"},"period":{"start":"2022-02-27T00:00:00+00:00","end":"2022-03-06T00:00:00+00:00"}},"request":{"method":"POST","url":"Encounter"}},{"fullUrl":"Encounter/c800c2e0-cbaf-4715-b0ea-cc9f15de6672","resource":{"resourceType":"Encounter","id":"c800c2e0-cbaf-4715-b0ea-cc9f15de6672","status":"finished","class":{"system":"http://terminology.hl7.org/CodeSystem/v3-ActCode","code":"HH","display":"home health"},"type":[{"coding":[{"system":"http://terminology.hl7.org/CodeSystem/encounter-type","code":"CCS60"}]}],"subject":{"reference":"Patient/6b8ae2ce-93f8-4928-94cd-efeead8a7118"},"period":{"start":"2022-04-28T00:00:00+00:00","end":"2022-05-07T00:00:00+00:00"}},"request":{"method":"POST","url":"Encounter"}},{"fullUrl":"Encounter/1dae3904-ff8a-46a2-b98c-e4a5baba7579","resource":{"resourceType":"Encounter","id":"1dae3904-ff8a-46a2-b98c-e4a5baba7579","status":"finished","class":{"system":"http://terminology.hl7.org/CodeSystem/v3-ActCode","code":"SS","display":"short-stay"},"type":[{"coding":[{"system":"http://terminology.hl7.org/CodeSystem/encounter-type","code":"BD/BM-clin"}]}],"subject":{"reference":"Patient/6b8ae2ce-93f8-4928-94cd-efeead8a7118"},"period":{"start":"2022-03-13T00:00:00+00:00","end":"2022-03-14T00:00:00+00:00"}},"request":{"method":"POST","url":"Encounter"}},{"fullUrl":"Location/dfba081e-d3d7-41ee-887e-b67dca3a672b","resource":{"resourceType":"Location","id":"dfba081e-d3d7-41ee-887e-b67dca3a672b","status":"active","name":"Trevino, Rocha and Larsen","telecom":[{"system":"phone","value":"311-993-0284x80860","use":"work"}],"address":{"use":"work","line":["258 Allison Loaf"],"city":"East Barbara","state":"NH","postalCode":"55943"}},"request":{"method":"POST","url":"Location"}},{"fullUrl":"Observation/ede5f4d2-28cf-4ac1-bda4-8e398c2dd3f5","resource":{"resourceType":"Observation","id":"ede5f4d2-28cf-4ac1-bda4-8e398c2dd3f5","status":"final","code":{"coding":[{"system":"http://loinc.org","code":"81956-5"}]},"subject":{"reference":"Patient/6b8ae2ce-93f8-4928-94cd-efeead8a7118"},"effectiveDateTime":"2022-05-21T00:00:00+00:00","valueDateTime":"2022-02-25T00:00:00+00:00"},"request":{"method":"POST","url":"Observation"}},{"fullUrl":"Patient/2d7e93c1-e927-4fe1-8de8-bcfe5613b776","resource":{"resourceType":"Patient","id":"2d7e93c1-e927-4fe1-8de8-bcfe5613b776","identifier":[{"type":{"coding":[{"system":"http://terminology.hl7.org/CodeSystem/v2-0203","code":"MR"}]},"system":"urn:fhirgen:mrn","value":"495-80-0630"},{"type":{"coding":[{"system":"http://terminology.hl7.org/CodeSystem/v2-0203","code":"SS"}]},"system":"http://hl7.org/fhir/sid/us-ssn","value":"092-13-0619"}],"name":[{"use":"official","family":"Davis","given":["Melissa"]},{"use":"maiden","family":"Giles"}],"telecom":[{"system":"phone","value":"001-805-418-3680","use":"mobile"},{"system":"email","value":"hmartin@hotmail.com","use":"mobile"}],"gender":"female","birthDate":"1967-02-27","address":[{"use":"home","line":["1982 Gutierrez Mountains Suite 558"],"city":"North Tina","state":"SD","postalCode":"02391"},{"use":"old","line":["07389 Cindy Manor Suite 698"],"city":"New Raymond","state":"MI","postalCode":"85180"}],"maritalStatus":{"coding":[{"system":"http://terminology.hl7.org/CodeSystem/v3-MaritalStatus","code":"U","display":"unmarried"}]}},"request":{"method":"POST","url":"Patient"}},{"fullUrl":"Observation/9afa91bb-06c5-4595-9446-60997c17535f","resource":{"resourceType":"Observation","id":"9afa91bb-06c5-4595-9446-60997c17535f","status":"final","code":{"coding":[{"system":"http://loinc.org","code":"11084-1"}]},"subject":{"reference":"Patient/2d7e93c1-e927-4fe1-8de8-bcfe5613b776"},"effectiveDateTime":"2022-03-14T00:00:00+00:00","valueRatio":{"numerator":{"value":1},"denominator":{"value":64}}},"request":{"method":"POST","url":"Observation"}},{"fullUrl":"Observation/82c20e2c-930a-4bdc-ac35-430604796add","resource":{"resourceType":"Observation","id":"82c20e2c-930a-4bdc-ac35-430604796add","status":"final","code":{"coding":[{"system":"http://loinc.org","code":"47235-7"}]},"subject":{"reference":"Patient/2d7e93c1-e927-4fe1-8de8-bcfe5613b776"},"effectiveDateTime":"2022-12-27T00:00:00+00:00","valueRatio":{"numerator":{"value":1},"denominator":{"value":32}}},"request":{"method":"POST","url":"Observation"}},{"fullUrl":"Observation/a09e9aad-ac26-4fe7-9825-5e051a7ced95","resource":{"resourceType":"Observation","id":"a09e9aad-ac26-4fe7-9825-5e051a7ced95","status":"final","code":{"coding":[{"system":"http://loinc.org","code":"26009-1"}]},"subject":{"reference":"Patient/2d7e93c1-e927-4fe1-8de8-bcfe5613b776"},"effectiveDateTime":"2022-03-13T00:00:00+00:00","valueRatio":{"numerator":{"value":1},"denominator":{"value":32}}},"request":{"method":"POST","url":"Observation"}},{"fullUrl":"Condition/75c15c87-fa7c-4e82-9801-e2024ea089b7","resource":{"resourceType":"Condition","id":"75c15c87-fa7c-4e82-9801-e2024ea089b7","code":{"coding":[{"system":"http://snomed.info/sct","code":"71315007"}]},"subject":{"reference":"Patient/2d7e93c1-e927-4fe1-8de8-bcfe5613b776"},"onsetDateTime":"2022-07-08T00:00:00+00:00"},"request":{"method":"POST","url":"Condition"}},{"fullUrl":"Condition/c4b07226-f468-400b-9cb8-ce049679dd86","resource":{"resourceType":"Condition","id":"c4b07226-f468-400b-9cb8-ce049679dd86","code":{"coding":[{"system":"http://snomed.info/sct","code":"709977002"}]},"subject":{"reference":"Patient/2d7e93c1-e927-4fe1-8de8-bcfe5613b776"},"onsetDateTime":"2022-10-30T00:00:00+00:00"},"request":{"method":"POST","url":"Condition"}},{"fullUrl":"Condition/974a564a-336d-489d-a90a-f158cf6530be","resource":{"resourceType":"Condition","id":"974a564a-336d-489d-a90a-f158cf6530be","code":{"coding":[{"system":"http://snomed.info/sct","code":"18165001"}]},"subject":{"reference":"Patient/2d7e93c1-e927-4fe1-8de8-bcfe5613b776"},"onsetDateTime":"2022-12-29T00:00:00+00:00"},"request":{"method":"POST","url":"Condition"}},{"fullUrl":"Observation/cda672b6-d8cd-4d42-bcf0-bd93a4c91d12","resource":{"resourceType":"Observation","id":"cda672b6-d8cd-4d42-bcf0-bd93a4c91d12","status":"final","code":{"coding":[{"system":"http://loinc.org","code":"49498-9"}]},"subject":{"reference":"Patient/2d7e93c1-e927-4fe1-8de8-bcfe5613b776"},"effectiveDateTime":"2022-02-11T00:00:00+00:00","valueQuantity":{"value":8.5}},"request":{"method":"POST","url":"Observation"}},{"fullUrl":"Observation/e7e82a0c-fff6-4a39-a1f5-4fd027820563","resource":{"resourceType":"Observation","id":"e7e82a0c-fff6-4a39-a1f5-4fd027820563","status":"final","code":{"coding":[{"system":"http://loinc.org","code":"804-5"}]},"subject":{"reference":"Patient/2d7e93c1-e927-4fe1-8de8-bcfe5613b776"},"effectiveDateTime":"2022-06-09T00:00:00+00:00","valueQuantity":{"value":5.5}},"request":{"method":"POST","url":"Observation"}},{"fullUrl":"Observation/74c31bf8-d57b-4f85-807e-4e091c28e3d4","resource":{"resourceType":"Observation","id":"74c31bf8-d57b-4f85-807e-4e091c28e3d4","status":"final","code":{"coding":[{"system":"http://loinc.org","code":"804-5"}]},"subject":{"reference":"Patient/2d7e93c1-e927-4fe1-8de8-bcfe5613b776"},"effectiveDateTime":"2022-04-05T00:00:00+00:00","valueCodeableConcept":{"coding":[{"system":"snomed","code":"123456","display":"fake snomed"}]}},"request":{"method":"POST","url":"Observation"}},{"fullUrl":"Observation/065f6d0c-70bc-4595-9e0b-52c8b4013cf5","resource":{"resourceType":"Observation","id":"065f6d0c-70bc-4595-9e0b-52c8b4013cf5","status":"final","code":{"coding":[{"system":"http://loinc.org","code":"6690-2"}]},"subject":{"reference":"Patient/2d7e93c1-e927-4fe1-8de8-bcfe5613b776"},"effectiveDateTime":"2022-02-28T00:00:00+00:00","valueCodeableConcept":{"coding":[{"system":"snomed","code":"123456","display":"fake snomed"}]}},"request":{"method":"POST","url":"Observation"}},{"fullUrl":"Observation/784d1f98-e276-44df-8829-058cfddec444","resource":{"resourceType":"Observation","id":"784d1f98-e276-44df-8829-058cfddec444","status":"final","code":{"coding":[{"system":"http://loinc.org","code":"6690-2"}]},"subject":{"reference":"Patient/2d7e93c1-e927-4fe1-8de8-bcfe5613b776"},"effectiveDateTime":"2022-06-10T00:00:00+00:00","valueCodeableConcept":{"coding":[{"system":"snomed","code":"123456","display":"fake snomed"}]}},"request":{"method":"POST","url":"Observation"}},{"fullUrl":"Observation/1953dd1c-1c83-4cc4-bf92-368277960709","resource":{"resourceType":"Observation","id":"1953dd1c-1c83-4cc4-bf92-368277960709","status":"final","code":{"coding":[{"system":"http://loinc.org","code":"49498-9"}]},"subject":{"reference":"Patient/2d7e93c1-e927-4fe1-8de8-bcfe5613b776"},"effectiveDateTime":"2022-04-29T00:00:00+00:00"},"request":{"method":"POST","url":"Observation"}},{"fullUrl":"Observation/dfe99632-42d8-432e-bb9a-81b9719cfc60","resource":{"resourceType":"Observation","id":"dfe99632-42d8-432e-bb9a-81b9719cfc60","status":"final","code":{"coding":[{"system":"http://loinc.org","code":"49498-9"}]},"subject":{"reference":"Patient/2d7e93c1-e927-4fe1-8de8-bcfe5613b776"},"effectiveDateTime":"2022-05-25T00:00:00+00:00"},"request":{"method":"POST","url":"Observation"}},{"fullUrl":"Observation/39eb2992-54bd-4bd7-b076-9cee4ccd2ace","resource":{"resourceType":"Observation","id":"39eb2992-54bd-4bd7-b076-9cee4ccd2ace","status":"final","code":{"coding":[{"system":"http://loinc.org","code":"49498-9"}]},"subject":{"reference":"Patient/2d7e93c1-e927-4fe1-8de8-bcfe5613b776"},"effectiveDateTime":"2022-11-23T00:00:00+00:00"},"request":{"method":"POST","url":"Observation"}},{"fullUrl":"Procedure/2fe90a0e-4c9f-4ab9-9a99-ae5b885117f0","resource":{"resourceType":"Procedure","id":"2fe90a0e-4c9f-4ab9-9a99-ae5b885117f0","status":"completed","code":{"coding":[{"system":"http://snomed.info/sct","code":"146005"}]},"subject":{"reference":"Patient/2d7e93c1-e927-4fe1-8de8-bcfe5613b776"},"performedDateTime":"2022-11-20T00:00:00+00:00"},"request":{"method":"POST","url":"Procedure"}},{"fullUrl":"Procedure/d352e82c-1a2a-4d19-9ea0-9fa632fa5a39","resource":{"resourceType":"Procedure","id":"d352e82c-1a2a-4d19-9ea0-9fa632fa5a39","status":"completed","code":{"coding":[{"system":"http://snomed.info/sct","code":"104001"}]},"subject":{"reference":"Patient/2d7e93c1-e927-4fe1-8de8-bcfe5613b776"},"performedDateTime":"2022-08-25T00:00:00+00:00"},"request":{"method":"POST","url":"Procedure"}},{"fullUrl":"Procedure/6530ec33-7ba4-4435-8e12-50c0cad311cb","resource":{"resourceType":"Procedure","id":"6530ec33-7ba4-4435-8e12-50c0cad311cb","status":"completed","code":{"coding":[{"system":"http://snomed.info/sct","code":"104001"}]},"subject":{"reference":"Patient/2d7e93c1-e927-4fe1-8de8-bcfe5613b776"},"performedDateTime":"2022-01-13T00:00:00+00:00"},"request":{"method":"POST","url":"Procedure"}},{"fullUrl":"MedicationStatement/8158dc04-4bba-4119-b3ab-5a3716336fbc","resource":{"resourceType":"MedicationStatement","id":"8158dc04-4bba-4119-b3ab-5a3716336fbc","status":"completed","medicationCodeableConcept":{"coding":[{"system":"http://www.nlm.nih.gov/research/umls/rxnorm","code":"10395"}]},"subject":{"reference":"Patient/2d7e93c1-e927-4fe1-8de8-bcfe5613b776"},"effectiveDateTime":"2022-10-14T00:00:00+00:00","dosage":[{"doseAndRate":[{"doseQuantity":{"value":2,"unit":"TAB","system":"http://terminology.hl7.org/CodeSystem/v3-orderableDrugForm","code":"TAB"}}]}]},"request":{"method":"POST","url":"MedicationStatement"}},{"fullUrl":"MedicationStatement/e3849777-6de8-447b-acf5-fd82bb304b42","resource":{"resourceType":"MedicationStatement","id":"e3849777-6de8-447b-acf5-fd82bb304b42","status":"completed","medicationCodeableConcept":{"coding":[{"system":"http://www.nlm.nih.gov/research/umls/rxnorm","code":"3640"}]},"subject":{"reference":"Patient/2d7e93c1-e927-4fe1-8de8-bcfe5613b776"},"effectiveDateTime":"2022-11-12T00:00:00+00:00","dosage":[{"doseAndRate":[{"doseQuantity":{"value":1,"unit":"TAB","system":"http://terminology.hl7.org/CodeSystem/v3-orderableDrugForm","code":"TAB"}}]}]},"request":{"method":"POST","url":"MedicationStatement"}},{"fullUrl":"MedicationStatement/73beb105-748a-44cb-8252-c4696fdb8d42","resource":{"resourceType":"MedicationStatement","id":"73beb105-748a-44cb-8252-c4696fdb8d42","status":"completed","medicationCodeableConcept":{"coding":[{"system":"http://www.nlm.nih.gov/research/umls/rxnorm","code":"7984"}]},"subject":{"reference":"Patient/2d7e93c1-e927-4fe1-8de8-bcfe5613b776"},"effectiveDateTime":"2022-03-18T00:00:00+00:00","dosage":[{"doseAndRate":[{"doseQuantity":{"value":2,"unit":"TAB","system":"http://terminology.hl7.org/CodeSystem/v3-orderableDrugForm","code":"TAB"}}]}]},"request":{"method":"POST","url":"MedicationStatement"}},{"fullUrl":"MedicationStatement/3cbe5072-fb11-465a-9c33-7cee4fb3266c","resource":{"resourceType":"MedicationStatement","id":"3cbe5072-fb11-465a-9c33-7cee4fb3266c","status":"completed","medicationCodeableConcept":{"coding":[{"system":"http://www.nlm.nih.gov/research/umls/rxnorm","code":"7980"}]},"subject":{"reference":"Patient/2d7e93c1-e927-4fe1-8de8-bcfe5613b776"},"effectiveDateTime":"2022-06-19T00:00:00+00:00","dosage":[{"doseAndRate":[{"doseQuantity":{"value":1,"unit":"TAB","system":"http://terminology.hl7.org/CodeSystem/v3-orderableDrugForm","code":"TAB"}}]}]},"request":{"method":"POST","url":"MedicationStatement"}},{"fullUrl":"MedicationStatement/1552b09a-37ac-401d-a49f-1ff20ba5dc07","resource":{"resourceType":"MedicationStatement","id":"1552b09a-37ac-401d-a49f-1ff20ba5dc07","status":"completed","medicationCodeableConcept":{"coding":[{"system":"http://www.nlm.nih.gov/research/umls/rxnorm","code":"3640"}]},"subject":{"reference":"Patient/2d7e93c1-e927-4fe1-8de8-bcfe5613b776"},"effectiveDateTime":"2022-12-17T00:00:00+00:00","dosage":[{"doseAndRate":[{"doseQuantity":{"value":1,"unit":"TAB","system":"http://terminology.hl7.org/CodeSystem/v3-orderableDrugForm","code":"TAB"}}]}]},"request":{"method":"POST","url":"MedicationStatement"}},{"fullUrl":"MedicationStatement/545b29f5-e76b-4ea1-b366-6d1b33c0723c","resource":{"resourceType":"MedicationStatement","id":"545b29f5-e76b-4ea1-b366-6d1b33c0723c","status":"completed","medicationCodeableConcept":{"coding":[{"system":"http://www.nlm.nih.gov/research/umls/rxnorm","code":"2193"}]},"subject":{"reference":"Patient/2d7e93c1-e927-4fe1-8de8-bcfe5613b776"},"effectiveDateTime":"2022-08-06T00:00:00+00:00","dosage":[{"doseAndRate":[{"doseQuantity":{"value":1,"unit":"TAB","system":"http://terminology.hl7.org/CodeSystem/v3-orderableDrugForm","code":"TAB"}}]}]},"request":{"method":"POST","url":"MedicationStatement"}},{"fullUrl":"MedicationStatement/4cba6e6d-dd85-4cb9-a3a4-f2afe7ba2fc9","resource":{"resourceType":"MedicationStatement","id":"4cba6e6d-dd85-4cb9-a3a4-f2afe7ba2fc9","status":"completed","medicationCodeableConcept":{"coding":[{"system":"http://www.nlm.nih.gov/research/umls/rxnorm","code":"18631"}]},"subject":{"reference":"Patient/2d7e93c1-e927-4fe1-8de8-bcfe5613b776"},"effectiveDateTime":"2022-08-20T00:00:00+00:00","dosage":[{"doseAndRate":[{"doseQuantity":{"value":1,"unit":"TAB","system":"http://terminology.hl7.org/CodeSystem/v3-orderableDrugForm","code":"TAB"}}]}]},"request":{"method":"POST","url":"MedicationStatement"}},{"fullUrl":"MedicationStatement/8ffb7875-fce4-4d57-af98-5c7b71a68771","resource":{"resourceType":"MedicationStatement","id":"8ffb7875-fce4-4d57-af98-5c7b71a68771","status":"completed","medicationCodeableConcept":{"coding":[{"system":"http://www.nlm.nih.gov/research/umls/rxnorm","code":"2193"}]},"subject":{"reference":"Patient/2d7e93c1-e927-4fe1-8de8-bcfe5613b776"},"effectiveDateTime":"2022-09-18T00:00:00+00:00","dosage":[{"doseAndRate":[{"doseQuantity":{"value":6.1,"unit":"TAB","system":"http://terminology.hl7.org/CodeSystem/v3-orderableDrugForm","code":"TAB"}}]}]},"request":{"method":"POST","url":"MedicationStatement"}},{"fullUrl":"MedicationStatement/48e687c9-b636-4577-86f4-8e82eede0b32","resource":{"resourceType":"MedicationStatement","id":"48e687c9-b636-4577-86f4-8e82eede0b32","status":"completed","medicationCodeableConcept":{"coding":[{"system":"http://www.nlm.nih.gov/research/umls/rxnorm","code":"2193"}]},"subject":{"reference":"Patient/2d7e93c1-e927-4fe1-8de8-bcfe5613b776"},"effectiveDateTime":"2022-03-24T00:00:00+00:00","dosage":[{"doseAndRate":[{"doseQuantity":{"value":5.8,"unit":"TAB","system":"http://terminology.hl7.org/CodeSystem/v3-orderableDrugForm","code":"TAB"}}]}]},"request":{"method":"POST","url":"MedicationStatement"}},{"fullUrl":"MedicationStatement/776864e6-f6de-46e0-84c1-71a6b71cd220","resource":{"resourceType":"MedicationStatement","id":"776864e6-f6de-46e0-84c1-71a6b71cd220","status":"completed","medicationCodeableConcept":{"coding":[{"system":"http://www.nlm.nih.gov/research/umls/rxnorm","code":"10395"}]},"subject":{"reference":"Patient/2d7e93c1-e927-4fe1-8de8-bcfe5613b776"},"effectiveDateTime":"2022-11-26T00:00:00+00:00","dosage":[{"doseAndRate":[{"doseQuantity":{"value":5,"unit":"TAB","system":"http://terminology.hl7.org/CodeSystem/v3-orderableDrugForm","code":"TAB"}}]}]},"request":{"method":"POST","url":"MedicationStatement"}},{"fullUrl":"MedicationStatement/0d565b20-e054-4bdb-a958-01bc6fbb4179","resource":{"resourceType":"MedicationStatement","id":"0d565b20-e054-4bdb-a958-01bc6fbb4179","status":"completed","medicationCodeableConcept":{"coding":[{"system":"http://www.nlm.nih.gov/research/umls/rxnorm","code":"8698"}]},"subject":{"reference":"Patient/2d7e93c1-e927-4fe1-8de8-bcfe5613b776"},"effectiveDateTime":"2022-04-18T00:00:00+00:00","dosage":[{"doseAndRate":[{"doseQuantity":{"value":5.4,"unit":"TAB","system":"http://terminology.hl7.org/CodeSystem/v3-orderableDrugForm","code":"TAB"}}]}]},"request":{"method":"POST","url":"MedicationStatement"}},{"fullUrl":"MedicationStatement/3d2bf304-c446-44aa-a7a6-09b2d405acfe","resource":{"resourceType":"MedicationStatement","id":"3d2bf304-c446-44aa-a7a6-09b2d405acfe","status":"completed","medicationCodeableConcept":{"coding":[{"system":"http://www.nlm.nih.gov/research/umls/rxnorm","code":"18631"}]},"subject":{"reference":"Patient/2d7e93c1-e927-4fe1-8de8-bcfe5613b776"},"effectiveDateTime":"2022-03-05T00:00:00+00:00","dosage":[{"doseAndRate":[{"doseQuantity":{"value":5.7,"unit":"TAB","system":"http://terminology.hl7.org/CodeSystem/v3-orderableDrugForm","code":"TAB"}}]}]},"request":{"method":"POST","url":"MedicationStatement"}},{"fullUrl":"MedicationStatement/c94c5592-2c4d-4147-9937-9c03c7c0f9c9","resource":{"resourceType":"MedicationStatement","id":"c94c5592-2c4d-4147-9937-9c03c7c0f9c9","status":"completed","medicationCodeableConcept":{"coding":[{"system":"http://www.nlm.nih.gov/research/umls/rxnorm","code":"7980"}]},"subject":{"reference":"Patient/2d7e93c1-e927-4fe1-8de8-bcfe5613b776"},"effectiveDateTime":"2022-01-26T00:00:00+00:00","dosage":[{"doseAndRate":[{"doseQuantity":{"value":4.3,"unit":"TAB","system":"http://terminology.hl7.org/CodeSystem/v3-orderableDrugForm","code":"TAB"}}]}]},"request":{"method":"POST","url":"MedicationStatement"}},{"fullUrl":"Encounter/9936e1c9-8201-4f1e-bb80-9a32be3c3a81","resource":{"resourceType":"Encounter","id":"9936e1c9-8201-4f1e-bb80-9a32be3c3a81","status":"finished","class":{"system":"http://terminology.hl7.org/CodeSystem/v3-ActCode","code":"IMP","display":"inpatient encounter"},"type":[{"coding":[{"system":"http://terminology.hl7.org/CodeSystem/encounter-type","code":"BD/BM-clin"}]}],"subject":{"reference":"Patient/2d7e93c1-e927-4fe1-8de8-bcfe5613b776"},"period":{"start":"2022-11-11T00:00:00+00:00","end":"2022-11-14T00:00:00+00:00"}},"request":{"method":"POST","url":"Encounter"}},{"fullUrl":"Encounter/d9395593-7efe-4384-8800-b08ee0e67155","resource":{"resourceType":"Encounter","id":"d9395593-7efe-4384-8800-b08ee0e67155","status":"finished","class":{"system":"http://terminology.hl7.org/CodeSystem/v3-ActCode","code":"IMP","display":"inpatient encounter"},"type":[{"coding":[{"system":"http://terminology.hl7.org/CodeSystem/encounter-type","code":"OKI"}]}],"subject":{"reference":"Patient/2d7e93c1-e927-4fe1-8de8-bcfe5613b776"},"period":{"start":"2022-03-04T00:00:00+00:00","end":"2022-03-05T00:00:00+00:00"}},"request":{"method":"POST","url":"Encounter"}},{"fullUrl":"Encounter/8e73d91c-d032-48b5-80e9-3db1e8c16f20","resource":{"resourceType":"Encounter","id":"8e73d91c-d032-48b5-80e9-3db1e8c16f20","status":"finished","class":{"system":"http://terminology.hl7.org/CodeSystem/v3-ActCode","code":"IMP","display":"inpatient encounter"},"type":[{"coding":[{"system":"http://terminology.hl7.org/CodeSystem/encounter-type","code":"ADMS"}]}],"subject":{"reference":"Patient/2d7e93c1-e927-4fe1-8de8-bcfe5613b776"},"period":{"start":"2022-02-06T00:00:00+00:00","end":"2022-02-06T00:00:00+00:00"}},"request":{"method":"POST","url":"Encounter"}},{"fullUrl":"Encounter/1f8ea933-cfd6-4739-b93b-4f6d5159994a","resource":{"resourceType":"Encounter","id":"1f8ea933-cfd6-4739-b93b-4f6d5159994a","status":"finished","class":{"system":"http://terminology.hl7.org/CodeSystem/v3-ActCode","code":"FLD","display":"field"},"type":[{"coding":[{"system":"http://terminology.hl7.org/CodeSystem/encounter-type","code":"ADMS"}]}],"subject":{"reference":"Patient/2d7e93c1-e927-4fe1-8de8-bcfe5613b776"},"period":{"start":"2022-09-05T00:00:00+00:00","end":"2022-09-11T00:00:00+00:00"}},"request":{"method":"POST","url":"Encounter"}},{"fullUrl":"Encounter/52b7c520-9380-4f05-a289-07a84e3c3551","resource":{"resourceType":"Encounter","id":"52b7c520-9380-4f05-a289-07a84e3c3551","status":"finished","class":{"system":"http://terminology.hl7.org/CodeSystem/v3-ActCode","code":"OBSENC","display":"observation encounter"},"type":[{"coding":[{"system":"http://terminology.hl7.org/CodeSystem/encounter-type","code":"CCS60"}]}],"subject":{"reference":"Patient/2d7e93c1-e927-4fe1-8de8-bcfe5613b776"},"period":{"start":"2022-11-09T00:00:00+00:00","end":"2022-11-10T00:00:00+00:00"}},"request":{"method":"POST","url":"Encounter"}},{"fullUrl":"Encounter/8687e483-60b0-4c13-8761-73f348a9c680","resource":{"resourceType":"Encounter","id":"8687e483-60b0-4c13-8761-73f348a9c680","status":"finished","class":{"system":"http://terminology.hl7.org/CodeSystem/v3-ActCode","code":"IMP","display":"inpatient encounter"},"type":[{"coding":[{"system":"http://terminology.hl7.org/CodeSystem/encounter-type","code":"BD/BM-clin"}]}],"subject":{"reference":"Patient/2d7e93c1-e927-4fe1-8de8-bcfe5613b776"},"period":{"start":"2022-05-31T00:00:00+00:00","end":"2022-06-08T00:00:00+00:00"}},"request":{"method":"POST","url":"Encounter"}},{"fullUrl":"Location/3742b4e9-b6de-47b7-b2bc-19995fae4c98","resource":{"resourceType":"Location","id":"3742b4e9-b6de-47b7-b2bc-19995fae4c98","status":"active","name":"Blankenship, Roman and Conrad","telecom":[{"system":"phone","value":"001-097-522-7364","use":"work"}],"address":{"use":"work","line":["8815 Jo Fall"],"city":"Denisetown","state":"MA","postalCode":"12585"}},"request":{"method":"POST","url":"Location"}},{"fullUrl":"Observation/fb7dd19b-ad05-40ee-ad3d-0acd3c67d001","resource":{"resourceType":"Observation","id":"fb7dd19b-ad05-40ee-ad3d-0acd3c67d001","status":"final","code":{"coding":[{"system":"http://loinc.org","code":"81956-5"}]},"subject":{"reference":"Patient/2d7e93c1-e927-4fe1-8de8-bcfe5613b776"},"effectiveDateTime":"2022-08-25T00:00:00+00:00","valueDateTime":"2022-07-11T00:00:00+00:00"},"request":{"method":"POST","url":"Observation"}},{"fullUrl":"Patient/f912f91b-57da-4658-917d-5d32cb2aa536","resource":{"resourceType":"Patient","id":"f912f91b-57da-4658-917d-5d32cb2aa536","identifier":[{"type":{"coding":[{"system":"http://terminology.hl7.org/CodeSystem/v2-0203","code":"MR"}]},"system":"urn:fhirgen:mrn","value":"512-96-3907"},{"type":{"coding":[{"system":"http://terminology.hl7.org/CodeSystem/v2-0203","code":"SS"}]},"system":"http://hl7.org/fhir/sid/us-ssn","value":"366-49-2593"}],"name":[{"use":"official","family":"Le","given":["Anne"]},{"use":"maiden","family":"Clark"}],"telecom":[{"system":"phone","value":"(079)049-2110","use":"work"},{"system":"email","value":"qrussell@hotmail.com","use":"home"}],"gender":"female","birthDate":"1945-10-01","address":[{"use":"home","line":["368 Miller Alley"],"city":"New Jessica","state":"MS","postalCode":"58447"},{"use":"old","line":["88465 Linda Rest"],"city":"East Christophershire","state":"AZ","postalCode":"26279"}],"maritalStatus":{"coding":[{"system":"http://terminology.hl7.org/CodeSystem/v3-MaritalStatus","code":"M","display":"Married"}]}},"request":{"method":"POST","url":"Patient"}},{"fullUrl":"Observation/916649c9-2cc7-4af8-bc6b-d1a36b8401cb","resource":{"resourceType":"Observation","id":"916649c9-2cc7-4af8-bc6b-d1a36b8401cb","status":"final","code":{"coding":[{"system":"http://loinc.org","code":"34382-2"}]},"subject":{"reference":"Patient/f912f91b-57da-4658-917d-5d32cb2aa536"},"effectiveDateTime":"2022-02-27T00:00:00+00:00","valueRatio":{"numerator":{"value":1},"denominator":{"value":4}}},"request":{"method":"POST","url":"Observation"}},{"fullUrl":"Observation/d3dcedca-8257-416a-836f-a449b6a04e96","resource":{"resourceType":"Observation","id":"d3dcedca-8257-416a-836f-a449b6a04e96","status":"final","code":{"coding":[{"system":"http://loinc.org","code":"34382-2"}]},"subject":{"reference":"Patient/f912f91b-57da-4658-917d-5d32cb2aa536"},"effectiveDateTime":"2022-05-18T00:00:00+00:00","valueRatio":{"numerator":{"value":1},"denominator":{"value":32}}},"request":{"method":"POST","url":"Observation"}},{"fullUrl":"Observation/f8784f81-2ab4-47e4-ae75-fc3721cbabe1","resource":{"resourceType":"Observation","id":"f8784f81-2ab4-47e4-ae75-fc3721cbabe1","status":"final","code":{"coding":[{"system":"http://loinc.org","code":"50695-6"}]},"subject":{"reference":"Patient/f912f91b-57da-4658-917d-5d32cb2aa536"},"effectiveDateTime":"2022-05-09T00:00:00+00:00","valueRatio":{"numerator":{"value":1},"denominator":{"value":32}}},"request":{"method":"POST","url":"Observation"}},{"fullUrl":"Condition/a41e0d04-dde1-4f9c-a316-1407de679460","resource":{"resourceType":"Condition","id":"a41e0d04-dde1-4f9c-a316-1407de679460","code":{"coding":[{"system":"http://snomed.info/sct","code":"248980004"}]},"subject":{"reference":"Patient/f912f91b-57da-4658-917d-5d32cb2aa536"},"onsetDateTime":"2022-08-13T00:00:00+00:00"},"request":{"method":"POST","url":"Condition"}},{"fullUrl":"Condition/df64b352-ef19-4fd1-8deb-7a88eece5012","resource":{"resourceType":"Condition","id":"df64b352-ef19-4fd1-8deb-7a88eece5012","code":{"coding":[{"system":"http://snomed.info/sct","code":"31070006"}]},"subject":{"reference":"Patient/f912f91b-57da-4658-917d-5d32cb2aa536"},"onsetDateTime":"2022-04-11T00:00:00+00:00"},"request":{"method":"POST","url":"Condition"}},{"fullUrl":"Condition/03d6b712-501a-449e-a1a1-7ba9f789d04f","resource":{"resourceType":"Condition","id":"03d6b712-501a-449e-a1a1-7ba9f789d04f","code":{"coding":[{"system":"http://snomed.info/sct","code":"418290006"}]},"subject":{"reference":"Patient/f912f91b-57da-4658-917d-5d32cb2aa536"},"onsetDateTime":"2022-09-14T00:00:00+00:00"},"request":{"method":"POST","url":"Condition"}},{"fullUrl":"Condition/2ade69e8-6e2e-4437-9ab2-2e5238e913ec","resource":{"resourceType":"Condition","id":"2ade69e8-6e2e-4437-9ab2-2e5238e913ec","code":{"coding":[{"system":"http://snomed.info/sct","code":"79342006"}]},"subject":{"reference":"Patient/f912f91b-57da-4658-917d-5d32cb2aa536"},"onsetDateTime":"2022-03-29T00:00:00+00:00"},"request":{"method":"POST","url":"Condition"}},{"fullUrl":"Condition/9306a457-d364-4463-afa9-709c7dcaa031","resource":{"resourceType":"Condition","id":"9306a457-d364-4463-afa9-709c7dcaa031","code":{"coding":[{"system":"http://snomed.info/sct","code":"736686006"}]},"subject":{"reference":"Patient/f912f91b-57da-4658-917d-5d32cb2aa536"},"onsetDateTime":"2022-01-18T00:00:00+00:00"},"request":{"method":"POST","url":"Condition"}},{"fullUrl":"Condition/bd57068f-b6eb-4899-bcb5-e0c7b4c4bddd","resource":{"resourceType":"Condition","id":"bd57068f-b6eb-4899-bcb5-e0c7b4c4bddd","code":{"coding":[{"system":"http://snomed.info/sct","code":"18165001"}]},"subject":{"reference":"Patient/f912f91b-57da-4658-917d-5d32cb2aa536"},"onsetDateTime":"2022-03-16T00:00:00+00:00"},"request":{"method":"POST","url":"Condition"}},{"fullUrl":"Condition/10234832-57bf-4a8d-9568-23209bfe7b93","resource":{"resourceType":"Condition","id":"10234832-57bf-4a8d-9568-23209bfe7b93","code":{"coding":[{"system":"http://snomed.info/sct","code":"248980004"}]},"subject":{"reference":"Patient/f912f91b-57da-4658-917d-5d32cb2aa536"},"onsetDateTime":"2022-02-19T00:00:00+00:00"},"request":{"method":"POST","url":"Condition"}},{"fullUrl":"Observation/53bcd543-121d-418b-bcec-e66e68a4dd9d","resource":{"resourceType":"Observation","id":"53bcd543-121d-418b-bcec-e66e68a4dd9d","status":"final","code":{"coding":[{"system":"http://www.ama-assn.org/go/cpt","code":"85048"}]},"subject":{"reference":"Patient/f912f91b-57da-4658-917d-5d32cb2aa536"},"effectiveDateTime":"2022-11-27T00:00:00+00:00","valueQuantity":{"value":4.4}},"request":{"method":"POST","url":"Observation"}},{"fullUrl":"Observation/904b2f2b-89a4-48f5-9edd-91cfd9500d15","resource":{"resourceType":"Observation","id":"904b2f2b-89a4-48f5-9edd-91cfd9500d15","status":"final","code":{"coding":[{"system":"http://loinc.org","code":"6690-2"}]},"subject":{"reference":"Patient/f912f91b-57da-4658-917d-5d32cb2aa536"},"effectiveDateTime":"2022-10-21T00:00:00+00:00","valueQuantity":{"value":5.5}},"request":{"method":"POST","url":"Observation"}},{"fullUrl":"Observation/79c1f9bf-9cb4-49da-9023-e107efbcbb06","resource":{"resourceType":"Observation","id":"79c1f9bf-9cb4-49da-9023-e107efbcbb06","status":"final","code":{"coding":[{"system":"http://loinc.org","code":"804-5"}]},"subject":{"reference":"Patient/f912f91b-57da-4658-917d-5d32cb2aa536"},"effectiveDateTime":"2022-09-17T00:00:00+00:00","valueCodeableConcept":{"coding":[{"system":"snomed","code":"123456","display":"fake snomed"}]}},"request":{"method":"POST","url":"Observation"}},{"fullUrl":"Observation/8d403f6d-dfa7-4d57-b34f-9e73aefbce0c","resource":{"resourceType":"Observation","id":"8d403f6d-dfa7-4d57-b34f-9e73aefbce0c","status":"final","code":{"coding":[{"system":"http://loinc.org","code":"6690-2"}]},"subject":{"reference":"Patient/f912f91b-57da-4658-917d-5d32cb2aa536"},"effectiveDateTime":"2022-10-20T00:00:00+00:00","valueCodeableConcept":{"coding":[{"system":"snomed","code":"123456","display":"fake snomed"}]}},"request":{"method":"POST","url":"Observation"}},{"fullUrl":"Observation/0f19db35-6add-4753-9bc4-133db75ea6c0","resource":{"resourceType":"Observation","id":"0f19db35-6add-4753-9bc4-133db75ea6c0","status":"final","code":{"coding":[{"system":"http://loinc.org","code":"6690-2"}]},"subject":{"reference":"Patient/f912f91b-57da-4658-917d-5d32cb2aa536"},"effectiveDateTime":"2022-11-09T00:00:00+00:00","valueCodeableConcept":{"coding":[{"system":"snomed","code":"123456","display":"fake snomed"}]}},"request":{"method":"POST","url":"Observation"}},{"fullUrl":"Observation/124fc4f8-0883-4ff5-8530-8076746a1725","resource":{"resourceType":"Observation","id":"124fc4f8-0883-4ff5-8530-8076746a1725","status":"final","code":{"coding":[{"system":"http://loinc.org","code":"49498-9"}]},"subject":{"reference":"Patient/f912f91b-57da-4658-917d-5d32cb2aa536"},"effectiveDateTime":"2022-02-26T00:00:00+00:00"},"request":{"method":"POST","url":"Observation"}},{"fullUrl":"Observation/5de5a1bb-735b-43e0-a986-07704c747b4d","resource":{"resourceType":"Observation","id":"5de5a1bb-735b-43e0-a986-07704c747b4d","status":"final","code":{"coding":[{"system":"http://loinc.org","code":"49498-9"}]},"subject":{"reference":"Patient/f912f91b-57da-4658-917d-5d32cb2aa536"},"effectiveDateTime":"2022-03-27T00:00:00+00:00"},"request":{"method":"POST","url":"Observation"}},{"fullUrl":"Observation/eae2a6d9-b18e-4c0b-b69a-3d6c2233b731","resource":{"resourceType":"Observation","id":"eae2a6d9-b18e-4c0b-b69a-3d6c2233b731","status":"final","code":{"coding":[{"system":"http://loinc.org","code":"49498-9"}]},"subject":{"reference":"Patient/f912f91b-57da-4658-917d-5d32cb2aa536"},"effectiveDateTime":"2022-04-26T00:00:00+00:00"},"request":{"method":"POST","url":"Observation"}},{"fullUrl":"Procedure/b89d8565-ba1e-4948-b0a3-7f538269b977","resource":{"resourceType":"Procedure","id":"b89d8565-ba1e-4948-b0a3-7f538269b977","status":"completed","code":{"coding":[{"system":"http://snomed.info/sct","code":"115006"}]},"subject":{"reference":"Patient/f912f91b-57da-4658-917d-5d32cb2aa536"},"performedDateTime":"2022-10-16T00:00:00+00:00"},"request":{"method":"POST","url":"Procedure"}},{"fullUrl":"Procedure/bdb522cf-8685-4af8-b34b-5c3ad60c8277","resource":{"resourceType":"Procedure","id":"bdb522cf-8685-4af8-b34b-5c3ad60c8277","status":"completed","code":{"coding":[{"system":"http://snomed.info/sct","code":"115006"}]},"subject":{"reference":"Patient/f912f91b-57da-4658-917d-5d32cb2aa536"},"performedDateTime":"2022-07-26T00:00:00+00:00"},"request":{"method":"POST","url":"Procedure"}},{"fullUrl":"Procedure/e2c718ea-36f3-4093-8ce8-e765217a4bac","resource":{"resourceType":"Procedure","id":"e2c718ea-36f3-4093-8ce8-e765217a4bac","status":"completed","code":{"coding":[{"system":"http://snomed.info/sct","code":"115006"}]},"subject":{"reference":"Patient/f912f91b-57da-4658-917d-5d32cb2aa536"},"performedDateTime":"2022-01-14T00:00:00+00:00"},"request":{"method":"POST","url":"Procedure"}},{"fullUrl":"MedicationStatement/0b370a67-dcfe-4056-9e32-9a230a88bfb6","resource":{"resourceType":"MedicationStatement","id":"0b370a67-dcfe-4056-9e32-9a230a88bfb6","status":"completed","medicationCodeableConcept":{"coding":[{"system":"http://www.nlm.nih.gov/research/umls/rxnorm","code":"10395"}]},"subject":{"reference":"Patient/f912f91b-57da-4658-917d-5d32cb2aa536"},"effectiveDateTime":"2022-12-31T00:00:00+00:00","dosage":[{"doseAndRate":[{"doseQuantity":{"value":2,"unit":"TAB","system":"http://terminology.hl7.org/CodeSystem/v3-orderableDrugForm","code":"TAB"}}]}]},"request":{"method":"POST","url":"MedicationStatement"}},{"fullUrl":"MedicationStatement/1b6ccc7c-9b55-46e3-ab45-404c415691ae","resource":{"resourceType":"MedicationStatement","id":"1b6ccc7c-9b55-46e3-ab45-404c415691ae","status":"completed","medicationCodeableConcept":{"coding":[{"system":"http://www.nlm.nih.gov/research/umls/rxnorm","code":"7984"}]},"subject":{"reference":"Patient/f912f91b-57da-4658-917d-5d32cb2aa536"},"effectiveDateTime":"2022-02-18T00:00:00+00:00","dosage":[{"doseAndRate":[{"doseQuantity":{"value":1,"unit":"TAB","system":"http://terminology.hl7.org/CodeSystem/v3-orderableDrugForm","code":"TAB"}}]}]},"request":{"method":"POST","url":"MedicationStatement"}},{"fullUrl":"MedicationStatement/d29bc91c-d35a-4693-90a9-2a50e2cc58bb","resource":{"resourceType":"MedicationStatement","id":"d29bc91c-d35a-4693-90a9-2a50e2cc58bb","status":"completed","medicationCodeableConcept":{"coding":[{"system":"http://www.nlm.nih.gov/research/umls/rxnorm","code":"3640"}]},"subject":{"reference":"Patient/f912f91b-57da-4658-917d-5d32cb2aa536"},"effectiveDateTime":"2022-04-19T00:00:00+00:00","dosage":[{"doseAndRate":[{"doseQuantity":{"value":1,"unit":"TAB","system":"http://terminology.hl7.org/CodeSystem/v3-orderableDrugForm","code":"TAB"}}]}]},"request":{"method":"POST","url":"MedicationStatement"}},{"fullUrl":"MedicationStatement/c7479d53-8c12-4e3c-a470-2c09b1eb2d6f","resource":{"resourceType":"MedicationStatement","id":"c7479d53-8c12-4e3c-a470-2c09b1eb2d6f","status":"completed","medicationCodeableConcept":{"coding":[{"system":"http://www.nlm.nih.gov/research/umls/rxnorm","code":"7980"}]},"subject":{"reference":"Patient/f912f91b-57da-4658-917d-5d32cb2aa536"},"effectiveDateTime":"2022-12-25T00:00:00+00:00","dosage":[{"doseAndRate":[{"doseQuantity":{"value":2,"unit":"TAB","system":"http://terminology.hl7.org/CodeSystem/v3-orderableDrugForm","code":"TAB"}}]}]},"request":{"method":"POST","url":"MedicationStatement"}},{"fullUrl":"MedicationStatement/d30bfa7f-f589-4902-82ba-18b7bee6766f","resource":{"resourceType":"MedicationStatement","id":"d30bfa7f-f589-4902-82ba-18b7bee6766f","status":"completed","medicationCodeableConcept":{"coding":[{"system":"http://www.nlm.nih.gov/research/umls/rxnorm","code":"3640"}]},"subject":{"reference":"Patient/f912f91b-57da-4658-917d-5d32cb2aa536"},"effectiveDateTime":"2022-10-02T00:00:00+00:00","dosage":[{"doseAndRate":[{"doseQuantity":{"value":2,"unit":"TAB","system":"http://terminology.hl7.org/CodeSystem/v3-orderableDrugForm","code":"TAB"}}]}]},"request":{"method":"POST","url":"MedicationStatement"}},{"fullUrl":"MedicationStatement/2882f5ef-34ab-43db-9269-6ca6918a2370","resource":{"resourceType":"MedicationStatement","id":"2882f5ef-34ab-43db-9269-6ca6918a2370","status":"completed","medicationCodeableConcept":{"coding":[{"system":"http://www.nlm.nih.gov/research/umls/rxnorm","code":"2193"}]},"subject":{"reference":"Patient/f912f91b-57da-4658-917d-5d32cb2aa536"},"effectiveDateTime":"2022-08-01T00:00:00+00:00","dosage":[{"doseAndRate":[{"doseQuantity":{"value":1,"unit":"TAB","system":"http://terminology.hl7.org/CodeSystem/v3-orderableDrugForm","code":"TAB"}}]}]},"request":{"method":"POST","url":"MedicationStatement"}},{"fullUrl":"MedicationStatement/f124c8c6-107f-4054-9387-e34c2f71d70d","resource":{"resourceType":"MedicationStatement","id":"f124c8c6-107f-4054-9387-e34c2f71d70d","status":"completed","medicationCodeableConcept":{"coding":[{"system":"http://www.nlm.nih.gov/research/umls/rxnorm","code":"18631"}]},"subject":{"reference":"Patient/f912f91b-57da-4658-917d-5d32cb2aa536"},"effectiveDateTime":"2022-11-13T00:00:00+00:00","dosage":[{"doseAndRate":[{"doseQuantity":{"value":1,"unit":"TAB","system":"http://terminology.hl7.org/CodeSystem/v3-orderableDrugForm","code":"TAB"}}]}]},"request":{"method":"POST","url":"MedicationStatement"}},{"fullUrl":"MedicationStatement/0bfc33b4-f73d-451e-a283-d4990d6284b3","resource":{"resourceType":"MedicationStatement","id":"0bfc33b4-f73d-451e-a283-d4990d6284b3","status":"completed","medicationCodeableConcept":{"coding":[{"system":"http://www.nlm.nih.gov/research/umls/rxnorm","code":"8698"}]},"subject":{"reference":"Patient/f912f91b-57da-4658-917d-5d32cb2aa536"},"effectiveDateTime":"2022-01-25T00:00:00+00:00","dosage":[{"doseAndRate":[{"doseQuantity":{"value":2,"unit":"TAB","system":"http://terminology.hl7.org/CodeSystem/v3-orderableDrugForm","code":"TAB"}}]}]},"request":{"method":"POST","url":"MedicationStatement"}},{"fullUrl":"MedicationStatement/00e251fc-e375-4af6-b6d6-363e03dd22d0","resource":{"resourceType":"MedicationStatement","id":"00e251fc-e375-4af6-b6d6-363e03dd22d0","status":"completed","medicationCodeableConcept":{"coding":[{"system":"http://www.nlm.nih.gov/research/umls/rxnorm","code":"7980"}]},"subject":{"reference":"Patient/f912f91b-57da-4658-917d-5d32cb2aa536"},"effectiveDateTime":"2022-07-24T00:00:00+00:00","dosage":[{"doseAndRate":[{"doseQuantity":{"value":6.5,"unit":"TAB","system":"http://terminology.hl7.org/CodeSystem/v3-orderableDrugForm","code":"TAB"}}]}]},"request":{"method":"POST","url":"MedicationStatement"}},{"fullUrl":"MedicationStatement/2dc01303-10fd-433e-8122-dc3f2939db72","resource":{"resourceType":"MedicationStatement","id":"2dc01303-10fd-433e-8122-dc3f2939db72","status":"completed","medicationCodeableConcept":{"coding":[{"system":"http://www.nlm.nih.gov/research/umls/rxnorm","code":"18631"}]},"subject":{"reference":"Patient/f912f91b-57da-4658-917d-5d32cb2aa536"},"effectiveDateTime":"2022-10-10T00:00:00+00:00","dosage":[{"doseAndRate":[{"doseQuantity":{"value":3.7,"unit":"TAB","system":"http://terminology.hl7.org/CodeSystem/v3-orderableDrugForm","code":"TAB"}}]}]},"request":{"method":"POST","url":"MedicationStatement"}},{"fullUrl":"MedicationStatement/2e11c69b-ebe5-41ea-bd21-0a8763434ba2","resource":{"resourceType":"MedicationStatement","id":"2e11c69b-ebe5-41ea-bd21-0a8763434ba2","status":"completed","medicationCodeableConcept":{"coding":[{"system":"http://www.nlm.nih.gov/research/umls/rxnorm","code":"7980"}]},"subject":{"reference":"Patient/f912f91b-57da-4658-917d-5d32cb2aa536"},"effectiveDateTime":"2022-07-08T00:00:00+00:00","dosage":[{"doseAndRate":[{"doseQuantity":{"value":6,"unit":"TAB","system":"http://terminology.hl7.org/CodeSystem/v3-orderableDrugForm","code":"TAB"}}]}]},"request":{"method":"POST","url":"MedicationStatement"}},{"fullUrl":"MedicationStatement/c799a22b-d86f-4496-93ae-1fdcb5c4d1c8","resource":{"resourceType":"MedicationStatement","id":"c799a22b-d86f-4496-93ae-1fdcb5c4d1c8","status":"completed","medicationCodeableConcept":{"coding":[{"system":"http://www.nlm.nih.gov/research/umls/rxnorm","code":"10395"}]},"subject":{"reference":"Patient/f912f91b-57da-4658-917d-5d32cb2aa536"},"effectiveDateTime":"2022-02-04T00:00:00+00:00","dosage":[{"doseAndRate":[{"doseQuantity":{"value":3.4,"unit":"TAB","system":"http://terminology.hl7.org/CodeSystem/v3-orderableDrugForm","code":"TAB"}}]}]},"request":{"method":"POST","url":"MedicationStatement"}},{"fullUrl":"Encounter/c98b49fc-f2e5-4fee-acc6-8aece048ac6c","resource":{"resourceType":"Encounter","id":"c98b49fc-f2e5-4fee-acc6-8aece048ac6c","status":"finished","class":{"system":"http://terminology.hl7.org/CodeSystem/v3-ActCode","code":"IMP","display":"inpatient encounter"},"type":[{"coding":[{"system":"http://terminology.hl7.org/CodeSystem/encounter-type","code":"CCS60"}]}],"subject":{"reference":"Patient/f912f91b-57da-4658-917d-5d32cb2aa536"},"period":{"start":"2022-01-28T00:00:00+00:00","end":"2022-01-28T00:00:00+00:00"}},"request":{"method":"POST","url":"Encounter"}},{"fullUrl":"Encounter/0fea23d3-72d9-43fd-b889-ee6c0b8b26c4","resource":{"resourceType":"Encounter","id":"0fea23d3-72d9-43fd-b889-ee6c0b8b26c4","status":"finished","class":{"system":"http://terminology.hl7.org/CodeSystem/v3-ActCode","code":"IMP","display":"inpatient encounter"},"type":[{"coding":[{"system":"http://terminology.hl7.org/CodeSystem/encounter-type","code":"BD/BM-clin"}]}],"subject":{"reference":"Patient/f912f91b-57da-4658-917d-5d32cb2aa536"},"period":{"start":"2022-05-31T00:00:00+00:00","end":"2022-06-08T00:00:00+00:00"}},"request":{"method":"POST","url":"Encounter"}},{"fullUrl":"Encounter/34396732-1ea4-4ac1-ba54-b8203012c9e1","resource":{"resourceType":"Encounter","id":"34396732-1ea4-4ac1-ba54-b8203012c9e1","status":"finished","class":{"system":"http://terminology.hl7.org/CodeSystem/v3-ActCode","code":"OBSENC","display":"observation encounter"},"type":[{"coding":[{"system":"http://terminology.hl7.org/CodeSystem/encounter-type","code":"OKI"}]}],"subject":{"reference":"Patient/f912f91b-57da-4658-917d-5d32cb2aa536"},"period":{"start":"2022-12-27T00:00:00+00:00","end":"2022-12-31T00:00:00+00:00"}},"request":{"method":"POST","url":"Encounter"}},{"fullUrl":"Encounter/6d816702-2a75-4b37-9954-069a37cb5a9f","resource":{"resourceType":"Encounter","id":"6d816702-2a75-4b37-9954-069a37cb5a9f","status":"finished","class":{"system":"http://terminology.hl7.org/CodeSystem/v3-ActCode","code":"OBSENC","display":"observation encounter"},"type":[{"coding":[{"system":"http://terminology.hl7.org/CodeSystem/encounter-type","code":"ADMS"}]}],"subject":{"reference":"Patient/f912f91b-57da-4658-917d-5d32cb2aa536"},"period":{"start":"2022-08-25T00:00:00+00:00","end":"2022-08-25T00:00:00+00:00"}},"request":{"method":"POST","url":"Encounter"}},{"fullUrl":"Encounter/9ed96b91-e87d-4ce4-a85e-7c3224e373d0","resource":{"resourceType":"Encounter","id":"9ed96b91-e87d-4ce4-a85e-7c3224e373d0","status":"finished","class":{"system":"http://terminology.hl7.org/CodeSystem/v3-ActCode","code":"VR","display":"virtual"},"type":[{"coding":[{"system":"http://terminology.hl7.org/CodeSystem/encounter-type","code":"OKI"}]}],"subject":{"reference":"Patient/f912f91b-57da-4658-917d-5d32cb2aa536"},"period":{"start":"2022-07-23T00:00:00+00:00","end":"2022-07-28T00:00:00+00:00"}},"request":{"method":"POST","url":"Encounter"}},{"fullUrl":"Location/24bcdc67-0400-43dd-9fb1-d1bfbf91f14f","resource":{"resourceType":"Location","id":"24bcdc67-0400-43dd-9fb1-d1bfbf91f14f","status":"active","name":"David PLC","telecom":[{"system":"phone","value":"820.982.5739x9320","use":"home"}],"address":{"use":"work","line":["3008 Baldwin Creek Apt. 569"],"city":"South Mary","state":"KS","postalCode":"55389"}},"request":{"method":"POST","url":"Location"}},{"fullUrl":"Observation/b1110431-bc31-47d0-aa29-a16a271d8bf1","resource":{"resourceType":"Observation","id":"b1110431-bc31-47d0-aa29-a16a271d8bf1","status":"final","code":{"coding":[{"system":"http://loinc.org","code":"81956-5"}]},"subject":{"reference":"Patient/f912f91b-57da-4658-917d-5d32cb2aa536"},"effectiveDateTime":"2022-03-10T00:00:00+00:00","valueDateTime":"2022-03-05T00:00:00+00:00"},"request":{"method":"POST","url":"Observation"}},{"fullUrl":"Patient/e764240b-33f0-4669-bab7-a308cd58f84e","resource":{"resourceType":"Patient","id":"e764240b-33f0-4669-bab7-a308cd58f84e","identifier":[{"type":{"coding":[{"system":"http://terminology.hl7.org/CodeSystem/v2-0203","code":"MR"}]},"system":"urn:fhirgen:mrn","value":"654-47-9494"},{"type":{"coding":[{"system":"http://terminology.hl7.org/CodeSystem/v2-0203","code":"SS"}]},"system":"http://hl7.org/fhir/sid/us-ssn","value":"106-97-0380"}],"name":[{"use":"official","family":"Robinson","given":["Ashley"]},{"use":"maiden","family":"Lopez"}],"telecom":[{"system":"phone","value":"264-092-8508x9617","use":"home"},{"system":"email","value":"ecarey@gmail.com","use":"work"}],"gender":"other","birthDate":"1972-10-20","address":[{"use":"home","line":["25222 Danny Loaf"],"city":"Millerville","state":"MD","postalCode":"94012"},{"use":"old","line":["121 Devin Vista"],"city":"North Samantha","state":"VT","postalCode":"00286"}],"maritalStatus":{"coding":[{"system":"http://terminology.hl7.org/CodeSystem/v3-MaritalStatus","code":"W","display":"Widowed"}]}},"request":{"method":"POST","url":"Patient"}},{"fullUrl":"Observation/5650a5a6-7004-4f7f-9424-869761cdb897","resource":{"resourceType":"Observation","id":"5650a5a6-7004-4f7f-9424-869761cdb897","status":"final","code":{"coding":[{"system":"http://loinc.org","code":"87925-4"}]},"subject":{"reference":"Patient/e764240b-33f0-4669-bab7-a308cd58f84e"},"effectiveDateTime":"2022-03-25T00:00:00+00:00","valueRatio":{"numerator":{"value":1},"denominator":{"value":4}}},"request":{"method":"POST","url":"Observation"}},{"fullUrl":"Observation/b61e0ef9-b294-4bb2-95c0-31ac9822b2af","resource":{"resourceType":"Observation","id":"b61e0ef9-b294-4bb2-95c0-31ac9822b2af","status":"final","code":{"coding":[{"system":"http://loinc.org","code":"31147-2"}]},"subject":{"reference":"Patient/e764240b-33f0-4669-bab7-a308cd58f84e"},"effectiveDateTime":"2022-06-02T00:00:00+00:00","valueRatio":{"numerator":{"value":1},"denominator":{"value":64}}},"request":{"method":"POST","url":"Observation"}},{"fullUrl":"Condition/3aafc372-e99d-475c-95dd-87d70bfe3ecc","resource":{"resourceType":"Condition","id":"3aafc372-e99d-475c-95dd-87d70bfe3ecc","code":{"coding":[{"system":"http://snomed.info/sct","code":"386661006"}]},"subject":{"reference":"Patient/e764240b-33f0-4669-bab7-a308cd58f84e"},"onsetDateTime":"2022-08-10T00:00:00+00:00"},"request":{"method":"POST","url":"Condition"}},{"fullUrl":"Condition/764e85ff-81ed-418b-a41d-b1175ec1ee0c","resource":{"resourceType":"Condition","id":"764e85ff-81ed-418b-a41d-b1175ec1ee0c","code":{"coding":[{"system":"http://snomed.info/sct","code":"21522001"}]},"subject":{"reference":"Patient/e764240b-33f0-4669-bab7-a308cd58f84e"},"onsetDateTime":"2022-08-16T00:00:00+00:00"},"request":{"method":"POST","url":"Condition"}},{"fullUrl":"Condition/27550289-3647-4f72-832c-0488f7c558c9","resource":{"resourceType":"Condition","id":"27550289-3647-4f72-832c-0488f7c558c9","code":{"coding":[{"system":"http://snomed.info/sct","code":"248980004"}]},"subject":{"reference":"Patient/e764240b-33f0-4669-bab7-a308cd58f84e"},"onsetDateTime":"2022-02-18T00:00:00+00:00"},"request":{"method":"POST","url":"Condition"}},{"fullUrl":"Condition/a918a437-f391-4737-8e4f-8b21e008c8ef","resource":{"resourceType":"Condition","id":"a918a437-f391-4737-8e4f-8b21e008c8ef","code":{"coding":[{"system":"http://snomed.info/sct","code":"271807003"}]},"subject":{"reference":"Patient/e764240b-33f0-4669-bab7-a308cd58f84e"},"onsetDateTime":"2022-09-08T00:00:00+00:00"},"request":{"method":"POST","url":"Condition"}},{"fullUrl":"Condition/a67a91d4-f4d2-47a3-910f-cfb8c7f74dd0","resource":{"resourceType":"Condition","id":"a67a91d4-f4d2-47a3-910f-cfb8c7f74dd0","code":{"coding":[{"system":"http://snomed.info/sct","code":"91554004"}]},"subject":{"reference":"Patient/e764240b-33f0-4669-bab7-a308cd58f84e"},"onsetDateTime":"2022-04-09T00:00:00+00:00"},"request":{"method":"POST","url":"Condition"}},{"fullUrl":"Observation/07427635-490c-47cf-8190-af1e6c8e7fa8","resource":{"resourceType":"Observation","id":"07427635-490c-47cf-8190-af1e6c8e7fa8","status":"final","code":{"coding":[{"system":"http://loinc.org","code":"6690-2"}]},"subject":{"reference":"Patient/e764240b-33f0-4669-bab7-a308cd58f84e"},"effectiveDateTime":"2022-08-18T00:00:00+00:00","valueQuantity":{"value":7.6}},"request":{"method":"POST","url":"Observation"}},{"fullUrl":"Observation/6671e8fe-5ff9-4643-9495-339beb68db4f","resource":{"resourceType":"Observation","id":"6671e8fe-5ff9-4643-9495-339beb68db4f","status":"final","code":{"coding":[{"system":"http://loinc.org","code":"804-5"}]},"subject":{"reference":"Patient/e764240b-33f0-4669-bab7-a308cd58f84e"},"effectiveDateTime":"2022-09-27T00:00:00+00:00","valueQuantity":{"value":8.6}},"request":{"method":"POST","url":"Observation"}},{"fullUrl":"Observation/ad68d6b6-7418-4282-bf09-d2067655a76b","resource":{"resourceType":"Observation","id":"ad68d6b6-7418-4282-bf09-d2067655a76b","status":"final","code":{"coding":[{"system":"http://www.ama-assn.org/go/cpt","code":"85048"}]},"subject":{"reference":"Patient/e764240b-33f0-4669-bab7-a308cd58f84e"},"effectiveDateTime":"2022-07-20T00:00:00+00:00","valueCodeableConcept":{"coding":[{"system":"snomed","code":"123456","display":"fake snomed"}]}},"request":{"method":"POST","url":"Observation"}},{"fullUrl":"Observation/25461b54-508f-44ad-8d55-c358118c77f3","resource":{"resourceType":"Observation","id":"25461b54-508f-44ad-8d55-c358118c77f3","status":"final","code":{"coding":[{"system":"http://www.ama-assn.org/go/cpt","code":"85048"}]},"subject":{"reference":"Patient/e764240b-33f0-4669-bab7-a308cd58f84e"},"effectiveDateTime":"2022-09-06T00:00:00+00:00","valueCodeableConcept":{"coding":[{"system":"snomed","code":"123456","display":"fake snomed"}]}},"request":{"method":"POST","url":"Observation"}},{"fullUrl":"Observation/d0d0e55c-ca15-4554-9b22-797ef703330b","resource":{"resourceType":"Observation","id":"d0d0e55c-ca15-4554-9b22-797ef703330b","status":"final","code":{"coding":[{"system":"http://loinc.org","code":"49498-9"}]},"subject":{"reference":"Patient/e764240b-33f0-4669-bab7-a308cd58f84e"},"effectiveDateTime":"2022-09-24T00:00:00+00:00"},"request":{"method":"POST","url":"Observation"}},{"fullUrl":"Observation/538eda38-20d4-454e-ab24-f559b4abd483","resource":{"resourceType":"Observation","id":"538eda38-20d4-454e-ab24-f559b4abd483","status":"final","code":{"coding":[{"system":"http://loinc.org","code":"49498-9"}]},"subject":{"reference":"Patient/e764240b-33f0-4669-bab7-a308cd58f84e"},"effectiveDateTime":"2022-07-18T00:00:00+00:00"},"request":{"method":"POST","url":"Observation"}},{"fullUrl":"Observation/b8e08491-25b7-48b6-ae9a-a9d3ba70e75b","resource":{"resourceType":"Observation","id":"b8e08491-25b7-48b6-ae9a-a9d3ba70e75b","status":"final","code":{"coding":[{"system":"http://loinc.org","code":"49498-9"}]},"subject":{"reference":"Patient/e764240b-33f0-4669-bab7-a308cd58f84e"},"effectiveDateTime":"2022-12-20T00:00:00+00:00"},"request":{"method":"POST","url":"Observation"}},{"fullUrl":"Procedure/1e9ee01a-df4c-4f79-9f09-a90f1cb8f199","resource":{"resourceType":"Procedure","id":"1e9ee01a-df4c-4f79-9f09-a90f1cb8f199","status":"completed","code":{"coding":[{"system":"http://snomed.info/sct","code":"647000"}]},"subject":{"reference":"Patient/e764240b-33f0-4669-bab7-a308cd58f84e"},"performedDateTime":"2022-06-27T00:00:00+00:00"},"request":{"method":"POST","url":"Procedure"}},{"fullUrl":"Procedure/a2826915-d7ae-4d88-8201-ab2aeeec349e","resource":{"resourceType":"Procedure","id":"a2826915-d7ae-4d88-8201-ab2aeeec349e","status":"completed","code":{"coding":[{"system":"http://snomed.info/sct","code":"104001"}]},"subject":{"reference":"Patient/e764240b-33f0-4669-bab7-a308cd58f84e"},"performedDateTime":"2022-04-06T00:00:00+00:00"},"request":{"method":"POST","url":"Procedure"}},{"fullUrl":"Procedure/377424dc-a5a3-4d20-b885-1d0de3a49b1e","resource":{"resourceType":"Procedure","id":"377424dc-a5a3-4d20-b885-1d0de3a49b1e","status":"completed","code":{"coding":[{"system":"http://snomed.info/sct","code":"115006"}]},"subject":{"reference":"Patient/e764240b-33f0-4669-bab7-a308cd58f84e"},"performedDateTime":"2022-11-03T00:00:00+00:00"},"request":{"method":"POST","url":"Procedure"}},{"fullUrl":"MedicationStatement/23152445-252a-40d2-b0d0-1c7d343b9b34","resource":{"resourceType":"MedicationStatement","id":"23152445-252a-40d2-b0d0-1c7d343b9b34","status":"completed","medicationCodeableConcept":{"coding":[{"system":"http://www.nlm.nih.gov/research/umls/rxnorm","code":"7984"}]},"subject":{"reference":"Patient/e764240b-33f0-4669-bab7-a308cd58f84e"},"effectiveDateTime":"2022-01-04T00:00:00+00:00","dosage":[{"doseAndRate":[{"doseQuantity":{"value":1,"unit":"TAB","system":"http://terminology.hl7.org/CodeSystem/v3-orderableDrugForm","code":"TAB"}}]}]},"request":{"method":"POST","url":"MedicationStatement"}},{"fullUrl":"MedicationStatement/2777617f-ae5d-4872-94c0-8a5758f4186c","resource":{"resourceType":"MedicationStatement","id":"2777617f-ae5d-4872-94c0-8a5758f4186c","status":"completed","medicationCodeableConcept":{"coding":[{"system":"http://www.nlm.nih.gov/research/umls/rxnorm","code":"7980"}]},"subject":{"reference":"Patient/e764240b-33f0-4669-bab7-a308cd58f84e"},"effectiveDateTime":"2022-11-30T00:00:00+00:00","dosage":[{"doseAndRate":[{"doseQuantity":{"value":1,"unit":"TAB","system":"http://terminology.hl7.org/CodeSystem/v3-orderableDrugForm","code":"TAB"}}]}]},"request":{"method":"POST","url":"MedicationStatement"}},{"fullUrl":"MedicationStatement/34d00ec3-27f1-41bd-80b4-5e2113f61f5b","resource":{"resourceType":"MedicationStatement","id":"34d00ec3-27f1-41bd-80b4-5e2113f61f5b","status":"completed","medicationCodeableConcept":{"coding":[{"system":"http://www.nlm.nih.gov/research/umls/rxnorm","code":"7980"}]},"subject":{"reference":"Patient/e764240b-33f0-4669-bab7-a308cd58f84e"},"effectiveDateTime":"2022-09-14T00:00:00+00:00","dosage":[{"doseAndRate":[{"doseQuantity":{"value":2,"unit":"TAB","system":"http://terminology.hl7.org/CodeSystem/v3-orderableDrugForm","code":"TAB"}}]}]},"request":{"method":"POST","url":"MedicationStatement"}},{"fullUrl":"MedicationStatement/4671aad5-4f79-41f8-8bb0-69e866c5b761","resource":{"resourceType":"MedicationStatement","id":"4671aad5-4f79-41f8-8bb0-69e866c5b761","status":"completed","medicationCodeableConcept":{"coding":[{"system":"http://www.nlm.nih.gov/research/umls/rxnorm","code":"8698"}]},"subject":{"reference":"Patient/e764240b-33f0-4669-bab7-a308cd58f84e"},"effectiveDateTime":"2022-11-01T00:00:00+00:00","dosage":[{"doseAndRate":[{"doseQuantity":{"value":2,"unit":"TAB","system":"http://terminology.hl7.org/CodeSystem/v3-orderableDrugForm","code":"TAB"}}]}]},"request":{"method":"POST","url":"MedicationStatement"}},{"fullUrl":"MedicationStatement/f2cbc430-0fff-4d5b-b8ac-db05128ae051","resource":{"resourceType":"MedicationStatement","id":"f2cbc430-0fff-4d5b-b8ac-db05128ae051","status":"completed","medicationCodeableConcept":{"coding":[{"system":"http://www.nlm.nih.gov/research/umls/rxnorm","code":"8698"}]},"subject":{"reference":"Patient/e764240b-33f0-4669-bab7-a308cd58f84e"},"effectiveDateTime":"2022-05-22T00:00:00+00:00","dosage":[{"doseAndRate":[{"doseQuantity":{"value":2,"unit":"TAB","system":"http://terminology.hl7.org/CodeSystem/v3-orderableDrugForm","code":"TAB"}}]}]},"request":{"method":"POST","url":"MedicationStatement"}},{"fullUrl":"MedicationStatement/9734e028-cf63-4b7d-b5a3-51a4ba4377d4","resource":{"resourceType":"MedicationStatement","id":"9734e028-cf63-4b7d-b5a3-51a4ba4377d4","status":"completed","medicationCodeableConcept":{"coding":[{"system":"http://www.nlm.nih.gov/research/umls/rxnorm","code":"3640"}]},"subject":{"reference":"Patient/e764240b-33f0-4669-bab7-a308cd58f84e"},"effectiveDateTime":"2022-02-20T00:00:00+00:00","dosage":[{"doseAndRate":[{"doseQuantity":{"value":2,"unit":"TAB","system":"http://terminology.hl7.org/CodeSystem/v3-orderableDrugForm","code":"TAB"}}]}]},"request":{"method":"POST","url":"MedicationStatement"}},{"fullUrl":"MedicationStatement/2f244e61-956c-4054-959f-c0076605102a","resource":{"resourceType":"MedicationStatement","id":"2f244e61-956c-4054-959f-c0076605102a","status":"completed","medicationCodeableConcept":{"coding":[{"system":"http://www.nlm.nih.gov/research/umls/rxnorm","code":"18631"}]},"subject":{"reference":"Patient/e764240b-33f0-4669-bab7-a308cd58f84e"},"effectiveDateTime":"2022-06-27T00:00:00+00:00","dosage":[{"doseAndRate":[{"doseQuantity":{"value":2,"unit":"TAB","system":"http://terminology.hl7.org/CodeSystem/v3-orderableDrugForm","code":"TAB"}}]}]},"request":{"method":"POST","url":"MedicationStatement"}},{"fullUrl":"MedicationStatement/0d3b6ae8-27be-4253-aa54-0b69330ab986","resource":{"resourceType":"MedicationStatement","id":"0d3b6ae8-27be-4253-aa54-0b69330ab986","status":"completed","medicationCodeableConcept":{"coding":[{"system":"http://www.nlm.nih.gov/research/umls/rxnorm","code":"7980"}]},"subject":{"reference":"Patient/e764240b-33f0-4669-bab7-a308cd58f84e"},"effectiveDateTime":"2022-11-19T00:00:00+00:00","dosage":[{"doseAndRate":[{"doseQuantity":{"value":1,"unit":"TAB","system":"http://terminology.hl7.org/CodeSystem/v3-orderableDrugForm","code":"TAB"}}]}]},"request":{"method":"POST","url":"MedicationStatement"}},{"fullUrl":"MedicationStatement/133d7093-3ba2-4ed8-9bcd-2746f44bc507","resource":{"resourceType":"MedicationStatement","id":"133d7093-3ba2-4ed8-9bcd-2746f44bc507","status":"completed","medicationCodeableConcept":{"coding":[{"system":"http://www.nlm.nih.gov/research/umls/rxnorm","code":"7980"}]},"subject":{"reference":"Patient/e764240b-33f0-4669-bab7-a308cd58f84e"},"effectiveDateTime":"2022-01-23T00:00:00+00:00","dosage":[{"doseAndRate":[{"doseQuantity":{"value":6.3,"unit":"TAB","system":"http://terminology.hl7.org/CodeSystem/v3-orderableDrugForm","code":"TAB"}}]}]},"request":{"method":"POST","url":"MedicationStatement"}},{"fullUrl":"MedicationStatement/26a7685d-01f4-43a5-94ce-c2b18b3ba99b","resource":{"resourceType":"MedicationStatement","id":"26a7685d-01f4-43a5-94ce-c2b18b3ba99b","status":"completed","medicationCodeableConcept":{"coding":[{"system":"http://www.nlm.nih.gov/research/umls/rxnorm","code":"8698"}]},"subject":{"reference":"Patient/e764240b-33f0-4669-bab7-a308cd58f84e"},"effectiveDateTime":"2022-09-20T00:00:00+00:00","dosage":[{"doseAndRate":[{"doseQuantity":{"value":5.2,"unit":"TAB","system":"http://terminology.hl7.org/CodeSystem/v3-orderableDrugForm","code":"TAB"}}]}]},"request":{"method":"POST","url":"MedicationStatement"}},{"fullUrl":"MedicationStatement/e3f93c0d-5346-4757-aec7-428968b7ba57","resource":{"resourceType":"MedicationStatement","id":"e3f93c0d-5346-4757-aec7-428968b7ba57","status":"completed","medicationCodeableConcept":{"coding":[{"system":"http://www.nlm.nih.gov/research/umls/rxnorm","code":"3640"}]},"subject":{"reference":"Patient/e764240b-33f0-4669-bab7-a308cd58f84e"},"effectiveDateTime":"2022-10-17T00:00:00+00:00","dosage":[{"doseAndRate":[{"doseQuantity":{"value":4,"unit":"TAB","system":"http://terminology.hl7.org/CodeSystem/v3-orderableDrugForm","code":"TAB"}}]}]},"request":{"method":"POST","url":"MedicationStatement"}},{"fullUrl":"MedicationStatement/a76b02d0-2654-4f3c-8ed0-c469af242d79","resource":{"resourceType":"MedicationStatement","id":"a76b02d0-2654-4f3c-8ed0-c469af242d79","status":"completed","medicationCodeableConcept":{"coding":[{"system":"http://www.nlm.nih.gov/research/umls/rxnorm","code":"18631"}]},"subject":{"reference":"Patient/e764240b-33f0-4669-bab7-a308cd58f84e"},"effectiveDateTime":"2022-05-01T00:00:00+00:00","dosage":[{"doseAndRate":[{"doseQuantity":{"value":6.8,"unit":"TAB","system":"http://terminology.hl7.org/CodeSystem/v3-orderableDrugForm","code":"TAB"}}]}]},"request":{"method":"POST","url":"MedicationStatement"}},{"fullUrl":"MedicationStatement/aa15feae-af31-474d-85c9-316222cfdd70","resource":{"resourceType":"MedicationStatement","id":"aa15feae-af31-474d-85c9-316222cfdd70","status":"completed","medicationCodeableConcept":{"coding":[{"system":"http://www.nlm.nih.gov/research/umls/rxnorm","code":"2193"}]},"subject":{"reference":"Patient/e764240b-33f0-4669-bab7-a308cd58f84e"},"effectiveDateTime":"2022-10-16T00:00:00+00:00","dosage":[{"doseAndRate":[{"doseQuantity":{"value":6.8,"unit":"TAB","system":"http://terminology.hl7.org/CodeSystem/v3-orderableDrugForm","code":"TAB"}}]}]},"request":{"method":"POST","url":"MedicationStatement"}},{"fullUrl":"MedicationStatement/c21eeaae-0e1e-49f8-a1c1-da902e43b069","resource":{"resourceType":"MedicationStatement","id":"c21eeaae-0e1e-49f8-a1c1-da902e43b069","status":"completed","medicationCodeableConcept":{"coding":[{"system":"http://www.nlm.nih.gov/research/umls/rxnorm","code":"7980"}]},"subject":{"reference":"Patient/e764240b-33f0-4669-bab7-a308cd58f84e"},"effectiveDateTime":"2022-02-20T00:00:00+00:00","dosage":[{"doseAndRate":[{"doseQuantity":{"value":4.1,"unit":"TAB","system":"http://terminology.hl7.org/CodeSystem/v3-orderableDrugForm","code":"TAB"}}]}]},"request":{"method":"POST","url":"MedicationStatement"}},{"fullUrl":"MedicationStatement/74a459c0-be01-416f-a071-6aaf08db7978","resource":{"resourceType":"MedicationStatement","id":"74a459c0-be01-416f-a071-6aaf08db7978","status":"completed","medicationCodeableConcept":{"coding":[{"system":"http://www.nlm.nih.gov/research/umls/rxnorm","code":"3640"}]},"subject":{"reference":"Patient/e764240b-33f0-4669-bab7-a308cd58f84e"},"effectiveDateTime":"2022-02-06T00:00:00+00:00","dosage":[{"doseAndRate":[{"doseQuantity":{"value":3.3,"unit":"TAB","system":"http://terminology.hl7.org/CodeSystem/v3-orderableDrugForm","code":"TAB"}}]}]},"request":{"method":"POST","url":"MedicationStatement"}},{"fullUrl":"Encounter/d7da660b-70ed-4d24-8c7f-b7e1000df394","resource":{"resourceType":"Encounter","id":"d7da660b-70ed-4d24-8c7f-b7e1000df394","status":"finished","class":{"system":"http://terminology.hl7.org/CodeSystem/v3-ActCode","code":"IMP","display":"inpatient encounter"},"type":[{"coding":[{"system":"http://terminology.hl7.org/CodeSystem/encounter-type","code":"CCS60"}]}],"subject":{"reference":"Patient/e764240b-33f0-4669-bab7-a308cd58f84e"},"period":{"start":"2022-09-11T00:00:00+00:00","end":"2022-09-19T00:00:00+00:00"}},"request":{"method":"POST","url":"Encounter"}},{"fullUrl":"Encounter/017fb7ab-ae0b-40c4-887e-411ae120557b","resource":{"resourceType":"Encounter","id":"017fb7ab-ae0b-40c4-887e-411ae120557b","status":"finished","class":{"system":"http://terminology.hl7.org/CodeSystem/v3-ActCode","code":"IMP","display":"inpatient encounter"},"type":[{"coding":[{"system":"http://terminology.hl7.org/CodeSystem/encounter-type","code":"BD/BM-clin"}]}],"subject":{"reference":"Patient/e764240b-33f0-4669-bab7-a308cd58f84e"},"period":{"start":"2022-10-18T00:00:00+00:00","end":"2022-10-25T00:00:00+00:00"}},"request":{"method":"POST","url":"Encounter"}},{"fullUrl":"Encounter/d3f0dd67-dabc-406d-8c19-eddf7f3a0ca4","resource":{"resourceType":"Encounter","id":"d3f0dd67-dabc-406d-8c19-eddf7f3a0ca4","status":"finished","class":{"system":"http://terminology.hl7.org/CodeSystem/v3-ActCode","code":"IMP","display":"inpatient encounter"},"type":[{"coding":[{"system":"http://terminology.hl7.org/CodeSystem/encounter-type","code":"OKI"}]}],"subject":{"reference":"Patient/e764240b-33f0-4669-bab7-a308cd58f84e"},"period":{"start":"2022-09-06T00:00:00+00:00","end":"2022-09-06T00:00:00+00:00"}},"request":{"method":"POST","url":"Encounter"}},{"fullUrl":"Encounter/58ae0cf3-4beb-4a7b-9773-9e0358b031f9","resource":{"resourceType":"Encounter","id":"58ae0cf3-4beb-4a7b-9773-9e0358b031f9","status":"finished","class":{"system":"http://terminology.hl7.org/CodeSystem/v3-ActCode","code":"ACUTE","display":"inpatient acute"},"type":[{"coding":[{"system":"http://terminology.hl7.org/CodeSystem/encounter-type","code":"CCS60"}]}],"subject":{"reference":"Patient/e764240b-33f0-4669-bab7-a308cd58f84e"},"period":{"start":"2022-10-30T00:00:00+00:00","end":"2022-11-07T00:00:00+00:00"}},"request":{"method":"POST","url":"Encounter"}},{"fullUrl":"Encounter/16b7dfab-7c27-4fed-be21-c2a5a62a0efe","resource":{"resourceType":"Encounter","id":"16b7dfab-7c27-4fed-be21-c2a5a62a0efe","status":"finished","class":{"system":"http://terminology.hl7.org/CodeSystem/v3-ActCode","code":"IMP","display":"inpatient encounter"},"type":[{"coding":[{"system":"http://terminology.hl7.org/CodeSystem/encounter-type","code":"ADMS"}]}],"subject":{"reference":"Patient/e764240b-33f0-4669-bab7-a308cd58f84e"},"period":{"start":"2022-03-14T00:00:00+00:00","end":"2022-03-16T00:00:00+00:00"}},"request":{"method":"POST","url":"Encounter"}},{"fullUrl":"Location/3675e837-1008-4225-a79f-2328aafd4c61","resource":{"resourceType":"Location","id":"3675e837-1008-4225-a79f-2328aafd4c61","status":"active","name":"Rodgers Inc","telecom":[{"system":"phone","value":"(765)192-8260x20364","use":"mobile"}],"address":{"use":"work","line":["874 Walker Ferry Apt. 395"],"city":"Michaelhaven","state":"LA","postalCode":"66662"}},"request":{"method":"POST","url":"Location"}},{"fullUrl":"Observation/9c1824c7-41ba-4714-b720-9405503daa8f","resource":{"resourceType":"Observation","id":"9c1824c7-41ba-4714-b720-9405503daa8f","status":"final","code":{"coding":[{"system":"http://loinc.org","code":"81956-5"}]},"subject":{"reference":"Patient/e764240b-33f0-4669-bab7-a308cd58f84e"},"effectiveDateTime":"2022-07-28T00:00:00+00:00","valueDateTime":"2022-04-23T00:00:00+00:00"},"request":{"method":"POST","url":"Observation"}}]}