{"resourceType":"Bundle","id":"68448ff1-99d6-4940-b99e-7b03012a86f9","type":"transaction","entry":[{"fullUrl":"Patient/5cfedf65-c1bc-4c77-9554-78a5ad034622","resource":{"resourceType":"Patient","id":"5cfedf65-c1bc-4c77-9554-78a5ad034622","identifier":[{"type":{"coding":[{"system":"http://terminology.hl7.org/CodeSystem/v2-0203","code":"MR"}]},"system":"urn:fhirgen:mrn","value":"758-19-0500"}],"name":[{"family":"Mcdaniel","given":["Jay"]}],"gender":"male","birthDate":"1998-09-09","address":[{"line":["883 Steven Parkways"],"city":"New Alexander","state":"Ohio"}]},"request":{"method":"POST","url":"Patient"}},{"fullUrl":"Observation/5ecf451c-0406-4626-80a9-916b5b0b87e7","resource":{"resourceType":"Observation","id":"5ecf451c-0406-4626-80a9-916b5b0b87e7","status":"final","code":{"coding":[{"system":"http://loinc.org","code":"71793-4"}]},"subject":{"reference":"Patient/5cfedf65-c1bc-4c77-9554-78a5ad034622"},"effectiveDateTime":"2022-09-08T00:00:00+00:00","valueRatio":{"numerator":{"value":1.0},"denominator":{"value":4.0}}},"request":{"method":"POST","url":"Observation"}},{"fullUrl":"Observation/3aec1166-c5d0-400d-ad96-1c206270d629","resource":{"resourceType":"Observation","id":"3aec1166-c5d0-400d-ad96-1c206270d629","status":"final","code":{"coding":[{"system":"http://loinc.org","code":"31146-4"}]},"subject":{"reference":"Patient/5cfedf65-c1bc-4c77-9554-78a5ad034622"},"effectiveDateTime":"2022-06-01T00:00:00+00:00","valueRatio":{"numerator":{"value":1.0},"denominator":{"value":32.0}}},"request":{"method":"POST","url":"Observation"}},{"fullUrl":"Observation/8bfcec5f-8955-4908-b5e8-612c716daccc","resource":{"resourceType":"Observation","id":"8bfcec5f-8955-4908-b5e8-612c716daccc","status":"final","code":{"coding":[{"system":"http://loinc.org","code":"22590-4"}]},"subject":{"reference":"Patient/5cfedf65-c1bc-4c77-9554-78a5ad034622"},"effectiveDateTime":"2022-09-28T00:00:00+00:00","valueRatio":{"numerator":{"value":1.0},"denominator":{"value":64.0}}},"request":{"method":"POST","url":"Observation"}},{"fullUrl":"Condition/55a8cb07-63e1-4cce-b68e-f4309c8e2f07","resource":{"resourceType":"Condition","id":"55a8cb07-63e1-4cce-b68e-f4309c8e2f07","code":{"coding":[{"system":"http://snomed.info/sct","code":"71315007"}]},"subject":{"reference":"Patient/5cfedf65-c1bc-4c77-9554-78a5ad034622"},"onsetDateTime":"2022-01-31T00:00:00+00:00"},"request":{"method":"POST","url":"Condition"}},{"fullUrl":"Condition/39cc3c11-3983-4401-a437-132b1a4c9685","resource":{"resourceType":"Condition","id":"39cc3c11-3983-4401-a437-132b1a4c9685","code":{"coding":[{"system":"http://snomed.info/sct","code":"18165001"}]},"subject":{"reference":"Patient/5cfedf65-c1bc-4c77-9554-78a5ad034622"},"onsetDateTime":"2022-09-29T00:00:00+00:00"},"request":{"method":"POST","url":"Condition"}},{"fullUrl":"Condition/de25750c-6922-4abe-8209-5de466281ba6","resource":{"resourceType":"Condition","id":"de25750c-6922-4abe-8209-5de466281ba6","code":{"coding":[{"system":"http://snomed.info/sct","code":"271939006"}]},"subject":{"reference":"Patient/5cfedf65-c1bc-4c77-9554-78a5ad034622"},"onsetDateTime":"2022-05-20T00:00:00+00:00"},"request":{"method":"POST","url":"Condition"}},{"fullUrl":"Condition/1885365c-68b1-4833-a6d5-2e69c1f98276","resource":{"resourceType":"Condition","id":"1885365c-68b1-4833-a6d5-2e69c1f98276","code":{"coding":[{"system":"http://snomed.info/sct","code":"198199009"}]},"subject":{"reference":"Patient/5cfedf65-c1bc-4c77-9554-78a5ad034622"},"onsetDateTime":"2022-04-11T00:00:00+00:00"},"request":{"method":"POST","url":"Condition"}},{"fullUrl":"Condition/6d64c657-b471-4bd7-b2a7-f102c3c96fd8","resource":{"resourceType":"Condition","id":"6d64c657-b471-4bd7-b2a7-f102c3c96fd8","code":{"coding":[{"system":"http://snomed.info/sct","code":"71315007"}]},"subject":{"reference":"Patient/5cfedf65-c1bc-4c77-9554-78a5ad034622"},"onsetDateTime":"2022-02-24T00:00:00+00:00"},"request":{"method":"POST","url":"Condition"}},{"fullUrl":"Observation/ab583fc2-012b-4184-a052-d0e3de6592b6","resource":{"resourceType":"Observation","id":"ab583fc2-012b-4184-a052-d0e3de6592b6","status":"final","code":{"coding":[{"system":"http://loinc.org","code":"49498-9"}]},"subject":{"reference":"Patient/5cfedf65-c1bc-4c77-9554-78a5ad034622"},"effectiveDateTime":"2022-10-16T00:00:00+00:00","valueQuantity":{"value":6.0}},"request":{"method":"POST","url":"Observation"}},{"fullUrl":"Observation/41165edd-5c16-4560-ab92-e50019692a83","resource":{"resourceType":"Observation","id":"41165edd-5c16-4560-ab92-e50019692a83","status":"final","code":{"coding":[{"system":"http://loinc.org","code":"26464-8"}]},"subject":{"reference":"Patient/5cfedf65-c1bc-4c77-9554-78a5ad034622"},"effectiveDateTime":"2022-08-15T00:00:00+00:00","valueQuantity":{"value":9.6}},"request":{"method":"POST","url":"Observation"}},{"fullUrl":"Observation/29f192c0-17ac-44f0-974a-167c5fa9b4f0","resource":{"resourceType":"Observation","id":"29f192c0-17ac-44f0-974a-167c5fa9b4f0","status":"final","code":{"coding":[{"system":"http://loinc.org","code":"49498-9"}]},"subject":{"reference":"Patient/5cfedf65-c1bc-4c77-9554-78a5ad034622"},"effectiveDateTime":"2022-08-07T00:00:00+00:00","valueQuantity":{"value":10.6}},"request":{"method":"POST","url":"Observation"}},{"fullUrl":"Procedure/5ebaa7dc-5176-4051-9f69-a3efc6818284","resource":{"resourceType":"Procedure","id":"5ebaa7dc-5176-4051-9f69-a3efc6818284","status":"completed","code":{"coding":[{"system":"http://snomed.info/sct","code":"104001"}]},"subject":{"reference":"Patient/5cfedf65-c1bc-4c77-9554-78a5ad034622"},"performedDateTime":"2022-12-14T00:00:00+00:00"},"request":{"method":"POST","url":"Procedure"}},{"fullUrl":"Procedure/eb44556f-71c6-426a-a2a3-9ceaab2b3e67","resource":{"resourceType":"Procedure","id":"eb44556f-71c6-426a-a2a3-9ceaab2b3e67","status":"completed","code":{"coding":[{"system":"http://snomed.info/sct","code":"104001"}]},"subject":{"reference":"Patient/5cfedf65-c1bc-4c77-9554-78a5ad034622"},"performedDateTime":"2022-04-19T00:00:00+00:00"},"request":{"method":"POST","url":"Procedure"}},{"fullUrl":"Procedure/0f625d93-3de0-426a-8e86-e99e9c3601a4","resource":{"resourceType":"Procedure","id":"0f625d93-3de0-426a-8e86-e99e9c3601a4","status":"completed","code":{"coding":[{"system":"http://snomed.info/sct","code":"189009"}]},"subject":{"reference":"Patient/5cfedf65-c1bc-4c77-9554-78a5ad034622"},"performedDateTime":"2022-10-12T00:00:00+00:00"},"request":{"method":"POST","url":"Procedure"}},{"fullUrl":"MedicationStatement/7c996707-56aa-4542-99b6-f46d1afd1920","resource":{"resourceType":"MedicationStatement","id":"7c996707-56aa-4542-99b6-f46d1afd1920","status":"completed","medicationCodeableConcept":{"coding":[{"system":"http://www.nlm.nih.gov/research/umls/rxnorm","code":"2193"}]},"subject":{"reference":"Patient/5cfedf65-c1bc-4c77-9554-78a5ad034622"},"effectiveDateTime":"2022-10-21T00:00:00+00:00","dosage":[{"doseAndRate":[{"doseQuantity":{"value":1.0,"unit":"TAB","system":"http://terminology.hl7.org/CodeSystem/v3-orderableDrugForm","code":"TAB"}}]}]},"request":{"method":"POST","url":"MedicationStatement"}},{"fullUrl":"MedicationStatement/42ce8cc3-708a-4318-a1e8-927fca4d966a","resource":{"resourceType":"MedicationStatement","id":"42ce8cc3-708a-4318-a1e8-927fca4d966a","status":"completed","medicationCodeableConcept":{"coding":[{"system":"http://www.nlm.nih.gov/research/umls/rxnorm","code":"10395"}]},"subject":{"reference":"Patient/5cfedf65-c1bc-4c77-9554-78a5ad034622"},"effectiveDateTime":"2022-11-21T00:00:00+00:00","dosage":[{"doseAndRate":[{"doseQuantity":{"value":1.0,"unit":"TAB","system":"http://terminology.hl7.org/CodeSystem/v3-orderableDrugForm","code":"TAB"}}]}]},"request":{"method":"POST","url":"MedicationStatement"}},{"fullUrl":"MedicationStatement/ca4eb104-20da-47e2-b346-4b1b67c1f985","resource":{"resourceType":"MedicationStatement","id":"ca4eb104-20da-47e2-b346-4b1b67c1f985","status":"completed","medicationCodeableConcept":{"coding":[{"system":"http://www.nlm.nih.gov/research/umls/rxnorm","code":"2193"}]},"subject":{"reference":"Patient/5cfedf65-c1bc-4c77-9554-78a5ad034622"},"effectiveDateTime":"2022-04-11T00:00:00+00:00","dosage":[{"doseAndRate":[{"doseQuantity":{"value":2.0,"unit":"TAB","system":"http://terminology.hl7.org/CodeSystem/v3-orderableDrugForm","code":"TAB"}}]}]},"request":{"method":"POST","url":"MedicationStatement"}},{"fullUrl":"MedicationStatement/ec8aa944-604f-4ff1-a8de-264e09312b89","resource":{"resourceType":"MedicationStatement","id":"ec8aa944-604f-4ff1-a8de-264e09312b89","status":"completed","medicationCodeableConcept":{"coding":[{"system":"http://www.nlm.nih.gov/research/umls/rxnorm","code":"7980"}]},"subject":{"reference":"Patient/5cfedf65-c1bc-4c77-9554-78a5ad034622"},"effectiveDateTime":"2022-12-07T00:00:00+00:00","dosage":[{"doseAndRate":[{"doseQuantity":{"value":2.0,"unit":"TAB","system":"http://terminology.hl7.org/CodeSystem/v3-orderableDrugForm","code":"TAB"}}]}]},"request":{"method":"POST","url":"MedicationStatement"}},{"fullUrl":"MedicationStatement/b11de4ec-b15c-42fd-897a-14cbbb2e3474","resource":{"resourceType":"MedicationStatement","id":"b11de4ec-b15c-42fd-897a-14cbbb2e3474","status":"completed","medicationCodeableConcept":{"coding":[{"system":"http://www.nlm.nih.gov/research/umls/rxnorm","code":"7980"}]},"subject":{"reference":"Patient/5cfedf65-c1bc-4c77-9554-78a5ad034622"},"effectiveDateTime":"2022-10-19T00:00:00+00:00","dosage":[{"doseAndRate":[{"doseQuantity":{"value":1.0,"unit":"TAB","system":"http://terminology.hl7.org/CodeSystem/v3-orderableDrugForm","code":"TAB"}}]}]},"request":{"method":"POST","url":"MedicationStatement"}},{"fullUrl":"MedicationStatement/75170423-1e0f-4de7-b75a-5e82b4983731","resource":{"resourceType":"MedicationStatement","id":"75170423-1e0f-4de7-b75a-5e82b4983731","status":"completed","medicationCodeableConcept":{"coding":[{"system":"http://www.nlm.nih.gov/research/umls/rxnorm","code":"3640"}]},"subject":{"reference":"Patient/5cfedf65-c1bc-4c77-9554-78a5ad034622"},"effectiveDateTime":"2022-04-04T00:00:00+00:00","dosage":[{"doseAndRate":[{"doseQuantity":{"value":2.0,"unit":"TAB","system":"http://terminology.hl7.org/CodeSystem/v3-orderableDrugForm","code":"TAB"}}]}]},"request":{"method":"POST","url":"MedicationStatement"}},{"fullUrl":"MedicationStatement/5bd7641c-14fd-44b6-afcf-b298e8a702c5","resource":{"resourceType":"MedicationStatement","id":"5bd7641c-14fd-44b6-afcf-b298e8a702c5","status":"completed","medicationCodeableConcept":{"coding":[{"system":"http://www.nlm.nih.gov/research/umls/rxnorm","code":"7980"}]},"subject":{"reference":"Patient/5cfedf65-c1bc-4c77-9554-78a5ad034622"},"effectiveDateTime":"2022-06-24T00:00:00+00:00","dosage":[{"doseAndRate":[{"doseQuantity":{"value":1.0,"unit":"TAB","system":"http://terminology.hl7.org/CodeSystem/v3-orderableDrugForm","code":"TAB"}}]}]},"request":{"method":"POST","url":"MedicationStatement"}},{"fullUrl":"Encounter/2571fa00-589e-4435-91c7-bbc707b1cfd4","resource":{"resourceType":"Encounter","id":"2571fa00-589e-4435-91c7-bbc707b1cfd4","status":"finished","class":{"system":"http://terminology.hl7.org/CodeSystem/v3-ActCode","code":"IMP","display":"inpatient encounter"},"type":[{"coding":[{"system":"http://terminology.hl7.org/CodeSystem/encounter-type","code":"ADMS"}]}],"subject":{"reference":"Patient/5cfedf65-c1bc-4c77-9554-78a5ad034622"},"period":{"start":"2022-06-19T00:00:00+00:00","end":"2022-06-23T00:00:00+00:00"}},"request":{"method":"POST","url":"Encounter"}},{"fullUrl":"Encounter/4861bab6-472c-44ee-bbb4-d1b9b9499d3f","resource":{"resourceType":"Encounter","id":"4861bab6-472c-44ee-bbb4-d1b9b9499d3f","status":"finished","class":{"system":"http://terminology.hl7.org/CodeSystem/v3-ActCode","code":"ACUTE","display":"inpatient acute"},"type":[{"coding":[{"system":"http://terminology.hl7.org/CodeSystem/encounter-type","code":"ADMS"}]}],"subject":{"reference":"Patient/5cfedf65-c1bc-4c77-9554-78a5ad034622"},"period":{"start":"2022-10-01T00:00:00+00:00","end":"2022-10-01T00:00:00+00:00"}},"request":{"method":"POST","url":"Encounter"}},{"fullUrl":"Patient/12f45f4b-b955-487a-9e60-45be86106f2d","resource":{"resourceType":"Patient","id":"12f45f4b-b955-487a-9e60-45be86106f2d","identifier":[{"type":{"coding":[{"system":"http://terminology.hl7.org/CodeSystem/v2-0203","code":"MR"}]},"system":"urn:fhirgen:mrn","value":"489-97-8938"}],"name":[{"family":"Scott","given":["Steven"]}],"gender":"male","birthDate":"1994-06-04","address":[{"line":["14241 Jason Gardens"],"city":"Juliamouth","state":"Delaware"}]},"request":{"method":"POST","url":"Patient"}},{"fullUrl":"Observation/caa4402f-8ef6-47de-9121-ee4756b28440","resource":{"resourceType":"Observation","id":"caa4402f-8ef6-47de-9121-ee4756b28440","status":"final","code":{"coding":[{"system":"http://loinc.org","code":"47235-7"}]},"subject":{"reference":"Patient/12f45f4b-b955-487a-9e60-45be86106f2d"},"effectiveDateTime":"2022-09-24T00:00:00+00:00","valueRatio":{"numerator":{"value":1.0},"denominator":{"value":64.0}}},"request":{"method":"POST","url":"Observation"}},{"fullUrl":"Observation/9e01da04-0601-436d-940c-30fd2af53bf5","resource":{"resourceType":"Observation","id":"9e01da04-0601-436d-940c-30fd2af53bf5","status":"final","code":{"coding":[{"system":"http://loinc.org","code":"47235-7"}]},"subject":{"reference":"Patient/12f45f4b-b955-487a-9e60-45be86106f2d"},"effectiveDateTime":"2022-02-12T00:00:00+00:00","valueRatio":{"numerator":{"value":1.0},"denominator":{"value":64.0}}},"request":{"method":"POST","url":"Observation"}},{"fullUrl":"Condition/f8d971c2-3425-4e19-9298-6d0d7c635d72","resource":{"resourceType":"Condition","id":"f8d971c2-3425-4e19-9298-6d0d7c635d72","code":{"coding":[{"system":"http://snomed.info/sct","code":"736686006"}]},"subject":{"reference":"Patient/12f45f4b-b955-487a-9e60-45be86106f2d"},"onsetDateTime":"2022-09-14T00:00:00+00:00"},"request":{"method":"POST","url":"Condition"}},{"fullUrl":"Condition/0b791475-4572-4086-b6a0-746d2feb8fb8","resource":{"resourceType":"Condition","id":"0b791475-4572-4086-b6a0-746d2feb8fb8","code":{"coding":[{"system":"http://snomed.info/sct","code":"297123002"}]},"subject":{"reference":"Patient/12f45f4b-b955-487a-9e60-45be86106f2d"},"onsetDateTime":"2022-06-06T00:00:00+00:00"},"request":{"method":"POST","url":"Condition"}},{"fullUrl":"Condition/945cedb5-b1d7-4b6c-8cf8-6da1d2b89965","resource":{"resourceType":"Condition","id":"945cedb5-b1d7-4b6c-8cf8-6da1d2b89965","code":{"coding":[{"system":"http://snomed.info/sct","code":"71315007"}]},"subject":{"reference":"Patient/12f45f4b-b955-487a-9e60-45be86106f2d"},"onsetDateTime":"2022-04-23T00:00:00+00:00"},"request":{"method":"POST","url":"Condition"}},{"fullUrl":"Condition/8e4a6d52-173e-4aee-ba9c-ad1f09cde848","resource":{"resourceType":"Condition","id":"8e4a6d52-173e-4aee-ba9c-ad1f09cde848","code":{"coding":[{"system":"http://snomed.info/sct","code":"44882003"}]},"subject":{"reference":"Patient/12f45f4b-b955-487a-9e60-45be86106f2d"},"onsetDateTime":"2022-06-01T00:00:00+00:00"},"request":{"method":"POST","url":"Condition"}},{"fullUrl":"Condition/1f7cab28-e8b3-4c70-9b3d-3577958e888f","resource":{"resourceType":"Condition","id":"1f7cab28-e8b3-4c70-9b3d-3577958e888f","code":{"coding":[{"system":"http://snomed.info/sct","code":"271939006"}]},"subject":{"reference":"Patient/12f45f4b-b955-487a-9e60-45be86106f2d"},"onsetDateTime":"2022-06-30T00:00:00+00:00"},"request":{"method":"POST","url":"Condition"}},{"fullUrl":"Condition/3012e185-206d-4deb-a803-76ef0e12285f","resource":{"resourceType":"Condition","id":"3012e185-206d-4deb-a803-76ef0e12285f","code":{"coding":[{"system":"http://snomed.info/sct","code":"30746006"}]},"subject":{"reference":"Patient/12f45f4b-b955-487a-9e60-45be86106f2d"},"onsetDateTime":"2022-12-24T00:00:00+00:00"},"request":{"method":"POST","url":"Condition"}},{"fullUrl":"Condition/c4dfc734-d9de-4bcd-9733-080e8bce5c32","resource":{"resourceType":"Condition","id":"c4dfc734-d9de-4bcd-9733-080e8bce5c32","code":{"coding":[{"system":"http://snomed.info/sct","code":"736686006"}]},"subject":{"reference":"Patient/12f45f4b-b955-487a-9e60-45be86106f2d"},"onsetDateTime":"2022-10-30T00:00:00+00:00"},"request":{"method":"POST","url":"Condition"}},{"fullUrl":"Observation/7413c606-3c11-4316-82f6-b312681c47bc","resource":{"resourceType":"Observation","id":"7413c606-3c11-4316-82f6-b312681c47bc","status":"final","code":{"coding":[{"system":"http://loinc.org","code":"49498-9"}]},"subject":{"reference":"Patient/12f45f4b-b955-487a-9e60-45be86106f2d"},"effectiveDateTime":"2022-04-14T00:00:00+00:00","valueQuantity":{"value":5.5}},"request":{"method":"POST","url":"Observation"}},{"fullUrl":"Observation/5d7725ca-f96d-4485-8e43-f156f536b639","resource":{"resourceType":"Observation","id":"5d7725ca-f96d-4485-8e43-f156f536b639","status":"final","code":{"coding":[{"system":"http://loinc.org","code":"26464-8"}]},"subject":{"reference":"Patient/12f45f4b-b955-487a-9e60-45be86106f2d"},"effectiveDateTime":"2022-08-17T00:00:00+00:00","valueQuantity":{"value":5.3}},"request":{"method":"POST","url":"Observation"}},{"fullUrl":"Observation/917b5161-0644-4a56-93ca-17bfd61e0726","resource":{"resourceType":"Observation","id":"917b5161-0644-4a56-93ca-17bfd61e0726","status":"final","code":{"coding":[{"system":"http://loinc.org","code":"49498-9"}]},"subject":{"reference":"Patient/12f45f4b-b955-487a-9e60-45be86106f2d"},"effectiveDateTime":"2022-03-07T00:00:00+00:00","valueQuantity":{"value":4.1}},"request":{"method":"POST","url":"Observation"}},{"fullUrl":"Procedure/0b8c6497-8a66-468f-b000-d17c70fe0f48","resource":{"resourceType":"Procedure","id":"0b8c6497-8a66-468f-b000-d17c70fe0f48","status":"completed","code":{"coding":[{"system":"http://snomed.info/sct","code":"104001"}]},"subject":{"reference":"Patient/12f45f4b-b955-487a-9e60-45be86106f2d"},"performedDateTime":"2022-04-18T00:00:00+00:00"},"request":{"method":"POST","url":"Procedure"}},{"fullUrl":"Procedure/64c6ebdd-6610-49d7-a180-296423bfcbca","resource":{"resourceType":"Procedure","id":"64c6ebdd-6610-49d7-a180-296423bfcbca","status":"completed","code":{"coding":[{"system":"http://snomed.info/sct","code":"146005"}]},"subject":{"reference":"Patient/12f45f4b-b955-487a-9e60-45be86106f2d"},"performedDateTime":"2022-04-04T00:00:00+00:00"},"request":{"method":"POST","url":"Procedure"}},{"fullUrl":"Procedure/9adef02c-86d7-48ed-9c24-bd2ac19ce12c","resource":{"resourceType":"Procedure","id":"9adef02c-86d7-48ed-9c24-bd2ac19ce12c","status":"completed","code":{"coding":[{"system":"http://snomed.info/sct","code":"104001"}]},"subject":{"reference":"Patient/12f45f4b-b955-487a-9e60-45be86106f2d"},"performedDateTime":"2022-07-26T00:00:00+00:00"},"request":{"method":"POST","url":"Procedure"}},{"fullUrl":"MedicationStatement/219d28d0-b4d6-41fa-baa9-afb16bb636c4","resource":{"resourceType":"MedicationStatement","id":"219d28d0-b4d6-41fa-baa9-afb16bb636c4","status":"completed","medicationCodeableConcept":{"coding":[{"system":"http://www.nlm.nih.gov/research/umls/rxnorm","code":"18631"}]},"subject":{"reference":"Patient/12f45f4b-b955-487a-9e60-45be86106f2d"},"effectiveDateTime":"2022-10-06T00:00:00+00:00","dosage":[{"doseAndRate":[{"doseQuantity":{"value":1.0,"unit":"TAB","system":"http://terminology.hl7.org/CodeSystem/v3-orderableDrugForm","code":"TAB"}}]}]},"request":{"method":"POST","url":"MedicationStatement"}},{"fullUrl":"MedicationStatement/d5a8428a-428b-424c-95b4-1f120a15c8a4","resource":{"resourceType":"MedicationStatement","id":"d5a8428a-428b-424c-95b4-1f120a15c8a4","status":"completed","medicationCodeableConcept":{"coding":[{"system":"http://www.nlm.nih.gov/research/umls/rxnorm","code":"7980"}]},"subject":{"reference":"Patient/12f45f4b-b955-487a-9e60-45be86106f2d"},"effectiveDateTime":"2022-10-17T00:00:00+00:00","dosage":[{"doseAndRate":[{"doseQuantity":{"value":2.0,"unit":"TAB","system":"http://terminology.hl7.org/CodeSystem/v3-orderableDrugForm","code":"TAB"}}]}]},"request":{"method":"POST","url":"MedicationStatement"}},{"fullUrl":"MedicationStatement/2515247a-d1ea-412c-a217-7a58728df8d1","resource":{"resourceType":"MedicationStatement","id":"2515247a-d1ea-412c-a217-7a58728df8d1","status":"completed","medicationCodeableConcept":{"coding":[{"system":"http://www.nlm.nih.gov/research/umls/rxnorm","code":"8698"}]},"subject":{"reference":"Patient/12f45f4b-b955-487a-9e60-45be86106f2d"},"effectiveDateTime":"2022-03-20T00:00:00+00:00","dosage":[{"doseAndRate":[{"doseQuantity":{"value":2.0,"unit":"TAB","system":"http://terminology.hl7.org/CodeSystem/v3-orderableDrugForm","code":"TAB"}}]}]},"request":{"method":"POST","url":"MedicationStatement"}},{"fullUrl":"MedicationStatement/55fa3bbd-48fa-440f-ad1e-6a533f3b1072","resource":{"resourceType":"MedicationStatement","id":"55fa3bbd-48fa-440f-ad1e-6a533f3b1072","status":"completed","medicationCodeableConcept":{"coding":[{"system":"http://www.nlm.nih.gov/research/umls/rxnorm","code":"3640"}]},"subject":{"reference":"Patient/12f45f4b-b955-487a-9e60-45be86106f2d"},"effectiveDateTime":"2022-02-05T00:00:00+00:00","dosage":[{"doseAndRate":[{"doseQuantity":{"value":1.0,"unit":"TAB","system":"http://terminology.hl7.org/CodeSystem/v3-orderableDrugForm","code":"TAB"}}]}]},"request":{"method":"POST","url":"MedicationStatement"}},{"fullUrl":"MedicationStatement/98ff36f8-3cfb-4640-9ebf-1d5de8237d6d","resource":{"resourceType":"MedicationStatement","id":"98ff36f8-3cfb-4640-9ebf-1d5de8237d6d","status":"completed","medicationCodeableConcept":{"coding":[{"system":"http://www.nlm.nih.gov/research/umls/rxnorm","code":"10395"}]},"subject":{"reference":"Patient/12f45f4b-b955-487a-9e60-45be86106f2d"},"effectiveDateTime":"2022-09-08T00:00:00+00:00","dosage":[{"doseAndRate":[{"doseQuantity":{"value":1.0,"unit":"TAB","system":"http://terminology.hl7.org/CodeSystem/v3-orderableDrugForm","code":"TAB"}}]}]},"request":{"method":"POST","url":"MedicationStatement"}},{"fullUrl":"MedicationStatement/1cb28da1-9ae0-4920-80ab-247ced1a501d","resource":{"resourceType":"MedicationStatement","id":"1cb28da1-9ae0-4920-80ab-247ced1a501d","status":"completed","medicationCodeableConcept":{"coding":[{"system":"http://www.nlm.nih.gov/research/umls/rxnorm","code":"10395"}]},"subject":{"reference":"Patient/12f45f4b-b955-487a-9e60-45be86106f2d"},"effectiveDateTime":"2022-04-19T00:00:00+00:00","dosage":[{"doseAndRate":[{"doseQuantity":{"value":1.0,"unit":"TAB","system":"http://terminology.hl7.org/CodeSystem/v3-orderableDrugForm","code":"TAB"}}]}]},"request":{"method":"POST","url":"MedicationStatement"}},{"fullUrl":"MedicationStatement/00042549-ecda-4586-a28f-03c3b0c9f10b","resource":{"resourceType":"MedicationStatement","id":"00042549-ecda-4586-a28f-03c3b0c9f10b","status":"completed","medicationCodeableConcept":{"coding":[{"system":"http://www.nlm.nih.gov/research/umls/rxnorm","code":"8698"}]},"subject":{"reference":"Patient/12f45f4b-b955-487a-9e60-45be86106f2d"},"effectiveDateTime":"2022-08-17T00:00:00+00:00","dosage":[{"doseAndRate":[{"doseQuantity":{"value":1.0,"unit":"TAB","system":"http://terminology.hl7.org/CodeSystem/v3-orderableDrugForm","code":"TAB"}}]}]},"request":{"method":"POST","url":"MedicationStatement"}},{"fullUrl":"MedicationStatement/fb201ea9-a42a-4100-8a88-3f7d7a9be656","resource":{"resourceType":"MedicationStatement","id":"fb201ea9-a42a-4100-8a88-3f7d7a9be656","status":"completed","medicationCodeableConcept":{"coding":[{"system":"http://www.nlm.nih.gov/research/umls/rxnorm","code":"10395"}]},"subject":{"reference":"Patient/12f45f4b-b955-487a-9e60-45be86106f2d"},"effectiveDateTime":"2022-08-26T00:00:00+00:00","dosage":[{"doseAndRate":[{"doseQuantity":{"value":1.0,"unit":"TAB","system":"http://terminology.hl7.org/CodeSystem/v3-orderableDrugForm","code":"TAB"}}]}]},"request":{"method":"POST","url":"MedicationStatement"}},{"fullUrl":"Encounter/845285b4-6eb8-4b3e-85c5-68c9fcef1152","resource":{"resourceType":"Encounter","id":"845285b4-6eb8-4b3e-85c5-68c9fcef1152","status":"finished","class":{"system":"http://terminology.hl7.org/CodeSystem/v3-ActCode","code":"FLD","display":"field"},"type":[{"coding":[{"system":"http://terminology.hl7.org/CodeSystem/encounter-type","code":"BD/BM-clin"}]}],"subject":{"reference":"Patient/12f45f4b-b955-487a-9e60-45be86106f2d"},"period":{"start":"2022-07-10T00:00:00+00:00","end":"2022-07-14T00:00:00+00:00"}},"request":{"method":"POST","url":"Encounter"}},{"fullUrl":"Encounter/73d51299-823b-48dd-9caf-6a8aae73f456","resource":{"resourceType":"Encounter","id":"73d51299-823b-48dd-9caf-6a8aae73f456","status":"finished","class":{"system":"http://terminology.hl7.org/CodeSystem/v3-ActCode","code":"AMB","display":"ambulatory"},"type":[{"coding":[{"system":"http://terminology.hl7.org/CodeSystem/encounter-type","code":"OKI"}]}],"subject":{"reference":"Patient/12f45f4b-b955-487a-9e60-45be86106f2d"},"period":{"start":"2022-10-26T00:00:00+00:00","end":"2022-11-01T00:00:00+00:00"}},"request":{"method":"POST","url":"Encounter"}},{"fullUrl":"Patient/7f199e41-abd5-47fd-848b-26c46c4bb0ae","resource":{"resourceType":"Patient","id":"7f199e41-abd5-47fd-848b-26c46c4bb0ae","identifier":[{"type":{"coding":[{"system":"http://terminology.hl7.org/CodeSystem/v2-0203","code":"MR"}]},"system":"urn:fhirgen:mrn","value":"622-27-1568"}],"name":[{"family":"Townsend","given":["Jill"]}],"gender":"female","birthDate":"1987-07-23","address":[{"line":["535 Gallegos Views Apt. 826"],"city":"East Mia","state":"Mississippi"}]},"request":{"method":"POST","url":"Patient"}},{"fullUrl":"Observation/f9dbc988-9adb-4349-832b-e552544d29c2","resource":{"resourceType":"Observation","id":"f9dbc988-9adb-4349-832b-e552544d29c2","status":"final","code":{"coding":[{"system":"http://loinc.org","code":"46203-6"}]},"subject":{"reference":"Patient/7f199e41-abd5-47fd-848b-26c46c4bb0ae"},"effectiveDateTime":"2022-10-15T00:00:00+00:00","valueRatio":{"numerator":{"value":1.0},"denominator":{"value":32.0}}},"request":{"method":"POST","url":"Observation"}},{"fullUrl":"Observation/7b3d8c75-0fb3-4e1f-b298-af82f4634ea0","resource":{"resourceType":"Observation","id":"7b3d8c75-0fb3-4e1f-b298-af82f4634ea0","status":"final","code":{"coding":[{"system":"http://loinc.org","code":"50690-7"}]},"subject":{"reference":"Patient/7f199e41-abd5-47fd-848b-26c46c4bb0ae"},"effectiveDateTime":"2022-04-01T00:00:00+00:00","valueRatio":{"numerator":{"value":1.0},"denominator":{"value":4.0}}},"request":{"method":"POST","url":"Observation"}},{"fullUrl":"Condition/01ce041d-719e-4c49-b8a9-96b107ede9ff","resource":{"resourceType":"Condition","id":"01ce041d-719e-4c49-b8a9-96b107ede9ff","code":{"coding":[{"system":"http://snomed.info/sct","code":"56317004"}]},"subject":{"reference":"Patient/7f199e41-abd5-47fd-848b-26c46c4bb0ae"},"onsetDateTime":"2022-08-14T00:00:00+00:00"},"request":{"method":"POST","url":"Condition"}},{"fullUrl":"Condition/230d8327-c940-4307-b394-20a279e308fd","resource":{"resourceType":"Condition","id":"230d8327-c940-4307-b394-20a279e308fd","code":{"coding":[{"system":"http://snomed.info/sct","code":"79342006"}]},"subject":{"reference":"Patient/7f199e41-abd5-47fd-848b-26c46c4bb0ae"},"onsetDateTime":"2022-03-19T00:00:00+00:00"},"request":{"method":"POST","url":"Condition"}},{"fullUrl":"Condition/b4c33dc1-da40-4758-ac9c-268ad767fa0e","resource":{"resourceType":"Condition","id":"b4c33dc1-da40-4758-ac9c-268ad767fa0e","code":{"coding":[{"system":"http://snomed.info/sct","code":"56317004"}]},"subject":{"reference":"Patient/7f199e41-abd5-47fd-848b-26c46c4bb0ae"},"onsetDateTime":"2022-09-28T00:00:00+00:00"},"request":{"method":"POST","url":"Condition"}},{"fullUrl":"Condition/f88d7532-b478-4e36-8843-a958ad4a4393","resource":{"resourceType":"Condition","id":"f88d7532-b478-4e36-8843-a958ad4a4393","code":{"coding":[{"system":"http://snomed.info/sct","code":"79342006"}]},"subject":{"reference":"Patient/7f199e41-abd5-47fd-848b-26c46c4bb0ae"},"onsetDateTime":"2022-02-17T00:00:00+00:00"},"request":{"method":"POST","url":"Condition"}},{"fullUrl":"Observation/0eba08a2-cc2b-42c6-95cb-b2176c3314b3","resource":{"resourceType":"Observation","id":"0eba08a2-cc2b-42c6-95cb-b2176c3314b3","status":"final","code":{"coding":[{"system":"http://loinc.org","code":"26464-8"}]},"subject":{"reference":"Patient/7f199e41-abd5-47fd-848b-26c46c4bb0ae"},"effectiveDateTime":"2022-08-19T00:00:00+00:00","valueQuantity":{"value":8.2}},"request":{"method":"POST","url":"Observation"}},{"fullUrl":"Observation/c10562b9-935e-4862-a5cc-41406357a6c9","resource":{"resourceType":"Observation","id":"c10562b9-935e-4862-a5cc-41406357a6c9","status":"final","code":{"coding":[{"system":"http://www.ama-assn.org/go/cpt","code":"85048"}]},"subject":{"reference":"Patient/7f199e41-abd5-47fd-848b-26c46c4bb0ae"},"effectiveDateTime":"2022-03-08T00:00:00+00:00","valueQuantity":{"value":4.7}},"request":{"method":"POST","url":"Observation"}},{"fullUrl":"Observation/482c7286-e10c-4da0-a95b-03109d392c7c","resource":{"resourceType":"Observation","id":"482c7286-e10c-4da0-a95b-03109d392c7c","status":"final","code":{"coding":[{"system":"http://www.ama-assn.org/go/cpt","code":"85048"}]},"subject":{"reference":"Patient/7f199e41-abd5-47fd-848b-26c46c4bb0ae"},"effectiveDateTime":"2022-05-04T00:00:00+00:00","valueQuantity":{"value":9.9}},"request":{"method":"POST","url":"Observation"}},{"fullUrl":"Procedure/70be6be9-a206-4b80-8953-1f4ca196a6c1","resource":{"resourceType":"Procedure","id":"70be6be9-a206-4b80-8953-1f4ca196a6c1","status":"completed","code":{"coding":[{"system":"http://snomed.info/sct","code":"189009"}]},"subject":{"reference":"Patient/7f199e41-abd5-47fd-848b-26c46c4bb0ae"},"performedDateTime":"2022-05-13T00:00:00+00:00"},"request":{"method":"POST","url":"Procedure"}},{"fullUrl":"Procedure/26653462-6a9d-45fb-bc05-52eb1a373fd3","resource":{"resourceType":"Procedure","id":"26653462-6a9d-45fb-bc05-52eb1a373fd3","status":"completed","code":{"coding":[{"system":"http://snomed.info/sct","code":"104001"}]},"subject":{"reference":"Patient/7f199e41-abd5-47fd-848b-26c46c4bb0ae"},"performedDateTime":"2022-02-19T00:00:00+00:00"},"request":{"method":"POST","url":"Procedure"}},{"fullUrl":"Procedure/1690fec0-aed8-4d3c-9690-cd9fe7f74eb3","resource":{"resourceType":"Procedure","id":"1690fec0-aed8-4d3c-9690-cd9fe7f74eb3","status":"completed","code":{"coding":[{"system":"http://snomed.info/sct","code":"146005"}]},"subject":{"reference":"Patient/7f199e41-abd5-47fd-848b-26c46c4bb0ae"},"performedDateTime":"2022-08-25T00:00:00+00:00"},"request":{"method":"POST","url":"Procedure"}},{"fullUrl":"MedicationStatement/0f372a0c-b07b-47a3-b9c9-988ab2a2fc33","resource":{"resourceType":"MedicationStatement","id":"0f372a0c-b07b-47a3-b9c9-988ab2a2fc33","status":"completed","medicationCodeableConcept":{"coding":[{"system":"http://www.nlm.nih.gov/research/umls/rxnorm","code":"7980"}]},"subject":{"reference":"Patient/7f199e41-abd5-47fd-848b-26c46c4bb0ae"},"effectiveDateTime":"2022-08-04T00:00:00+00:00","dosage":[{"doseAndRate":[{"doseQuantity":{"value":2.0,"unit":"TAB","system":"http://terminology.hl7.org/CodeSystem/v3-orderableDrugForm","code":"TAB"}}]}]},"request":{"method":"POST","url":"MedicationStatement"}},{"fullUrl":"MedicationStatement/63a45f73-bd0b-40c3-898e-105ee4a763a4","resource":{"resourceType":"MedicationStatement","id":"63a45f73-bd0b-40c3-898e-105ee4a763a4","status":"completed","medicationCodeableConcept":{"coding":[{"system":"http://www.nlm.nih.gov/research/umls/rxnorm","code":"18631"}]},"subject":{"reference":"Patient/7f199e41-abd5-47fd-848b-26c46c4bb0ae"},"effectiveDateTime":"2022-01-28T00:00:00+00:00","dosage":[{"doseAndRate":[{"doseQuantity":{"value":2.0,"unit":"TAB","system":"http://terminology.hl7.org/CodeSystem/v3-orderableDrugForm","code":"TAB"}}]}]},"request":{"method":"POST","url":"MedicationStatement"}},{"fullUrl":"MedicationStatement/8ad63d2e-08ac-4d61-bd3b-dca28e94c689","resource":{"resourceType":"MedicationStatement","id":"8ad63d2e-08ac-4d61-bd3b-dca28e94c689","status":"completed","medicationCodeableConcept":{"coding":[{"system":"http://www.nlm.nih.gov/research/umls/rxnorm","code":"3640"}]},"subject":{"reference":"Patient/7f199e41-abd5-47fd-848b-26c46c4bb0ae"},"effectiveDateTime":"2022-04-02T00:00:00+00:00","dosage":[{"doseAndRate":[{"doseQuantity":{"value":1.0,"unit":"TAB","system":"http://terminology.hl7.org/CodeSystem/v3-orderableDrugForm","code":"TAB"}}]}]},"request":{"method":"POST","url":"MedicationStatement"}},{"fullUrl":"MedicationStatement/1e7179e6-3373-4067-8ee2-2dbfad6a51e6","resource":{"resourceType":"MedicationStatement","id":"1e7179e6-3373-4067-8ee2-2dbfad6a51e6","status":"completed","medicationCodeableConcept":{"coding":[{"system":"http://www.nlm.nih.gov/research/umls/rxnorm","code":"18631"}]},"subject":{"reference":"Patient/7f199e41-abd5-47fd-848b-26c46c4bb0ae"},"effectiveDateTime":"2022-10-23T00:00:00+00:00","dosage":[{"doseAndRate":[{"doseQuantity":{"value":1.0,"unit":"TAB","system":"http://terminology.hl7.org/CodeSystem/v3-orderableDrugForm","code":"TAB"}}]}]},"request":{"method":"POST","url":"MedicationStatement"}},{"fullUrl":"MedicationStatement/943d72d4-b7d8-46ea-b940-9ef93e13bdb4","resource":{"resourceType":"MedicationStatement","id":"943d72d4-b7d8-46ea-b940-9ef93e13bdb4","status":"completed","medicationCodeableConcept":{"coding":[{"system":"http://www.nlm.nih.gov/research/umls/rxnorm","code":"3640"}]},"subject":{"reference":"Patient/7f199e41-abd5-47fd-848b-26c46c4bb0ae"},"effectiveDateTime":"2022-10-21T00:00:00+00:00","dosage":[{"doseAndRate":[{"doseQuantity":{"value":2.0,"unit":"TAB","system":"http://terminology.hl7.org/CodeSystem/v3-orderableDrugForm","code":"TAB"}}]}]},"request":{"method":"POST","url":"MedicationStatement"}},{"fullUrl":"MedicationStatement/1b319458-82d6-48d0-8c0b-9409642c493a","resource":{"resourceType":"MedicationStatement","id":"1b319458-82d6-48d0-8c0b-9409642c493a","status":"completed","medicationCodeableConcept":{"coding":[{"system":"http://www.nlm.nih.gov/research/umls/rxnorm","code":"7980"}]},"subject":{"reference":"Patient/7f199e41-abd5-47fd-848b-26c46c4bb0ae"},"effectiveDateTime":"2022-08-09T00:00:00+00:00","dosage":[{"doseAndRate":[{"doseQuantity":{"value":2.0,"unit":"TAB","system":"http://terminology.hl7.org/CodeSystem/v3-orderableDrugForm","code":"TAB"}}]}]},"request":{"method":"POST","url":"MedicationStatement"}},{"fullUrl":"Encounter/a54d8927-0b6f-48a1-bb34-f3f44c288946","resource":{"resourceType":"Encounter","id":"a54d8927-0b6f-48a1-bb34-f3f44c288946","status":"finished","class":{"system":"http://terminology.hl7.org/CodeSystem/v3-ActCode","code":"IMP","display":"inpatient encounter"},"type":[{"coding":[{"system":"http://terminology.hl7.org/CodeSystem/encounter-type","code":"OKI"}]}],"subject":{"reference":"Patient/7f199e41-abd5-47fd-848b-26c46c4bb0ae"},"period":{"start":"2022-01-25T00:00:00+00:00","end":"2022-01-31T00:00:00+00:00"}},"request":{"method":"POST","url":"Encounter"}},{"fullUrl":"Encounter/a5af7bb8-dffc-4990-9c21-f22de96819b9","resource":{"resourceType":"Encounter","id":"a5af7bb8-dffc-4990-9c21-f22de96819b9","status":"finished","class":{"system":"http://terminology.hl7.org/CodeSystem/v3-ActCode","code":"OBSENC","display":"observation encounter"},"type":[{"coding":[{"system":"http://terminology.hl7.org/CodeSystem/encounter-type","code":"OKI"}]}],"subject":{"reference":"Patient/7f199e41-abd5-47fd-848b-26c46c4bb0ae"},"period":{"start":"2022-11-11T00:00:00+00:00","end":"2022-11-14T00:00:00+00:00"}},"request":{"method":"POST","url":"Encounter"}},{"fullUrl":"Patient/518f2482-1ec5-4ecc-bac1-0a4b932c6aa3","resource":{"resourceType":"Patient","id":"518f2482-1ec5-4ecc-bac1-0a4b932c6aa3","identifier":[{"type":{"coding":[{"system":"http://terminology.hl7.org/CodeSystem/v2-0203","code":"MR"}]},"system":"urn:fhirgen:mrn","value":"327-80-6570"}],"name":[{"family":"Smith","given":["Sherri"]}],"gender":"female","birthDate":"2001-02-11","address":[{"line":["9333 Mary Forges"],"city":"West Christopher","state":"Wyoming"}]},"request":{"method":"POST","url":"Patient"}},{"fullUrl":"Observation/9e20722d-8cc9-4da6-a58b-ad8b701a4757","resource":{"resourceType":"Observation","id":"9e20722d-8cc9-4da6-a58b-ad8b701a4757","status":"final","code":{"coding":[{"system":"http://loinc.org","code":"51475-2"}]},"subject":{"reference":"Patient/518f2482-1ec5-4ecc-bac1-0a4b932c6aa3"},"effectiveDateTime":"2022-05-10T00:00:00+00:00","valueRatio":{"numerator":{"value":1.0},"denominator":{"value":64.0}}},"request":{"method":"POST","url":"Observation"}},{"fullUrl":"Observation/8ef511bc-6b63-42eb-b0cc-526c4a00e99f","resource":{"resourceType":"Observation","id":"8ef511bc-6b63-42eb-b0cc-526c4a00e99f","status":"final","code":{"coding":[{"system":"http://loinc.org","code":"31147-2"}]},"subject":{"reference":"Patient/518f2482-1ec5-4ecc-bac1-0a4b932c6aa3"},"effectiveDateTime":"2022-08-16T00:00:00+00:00","valueRatio":{"numerator":{"value":1.0},"denominator":{"value":4.0}}},"request":{"method":"POST","url":"Observation"}},{"fullUrl":"Observation/a45187df-3d77-4e40-bfe7-7dc148ad5f73","resource":{"resourceType":"Observation","id":"a45187df-3d77-4e40-bfe7-7dc148ad5f73","status":"final","code":{"coding":[{"system":"http://loinc.org","code":"22590-4"}]},"subject":{"reference":"Patient/518f2482-1ec5-4ecc-bac1-0a4b932c6aa3"},"effectiveDateTime":"2022-09-06T00:00:00+00:00","valueRatio":{"numerator":{"value":1.0},"denominator":{"value":4.0}}},"request":{"method":"POST","url":"Observation"}},{"fullUrl":"Condition/28ac384f-b9c5-44b4-a93b-4ada2b3fca94","resource":{"resourceType":"Condition","id":"28ac384f-b9c5-44b4-a93b-4ada2b3fca94","code":{"coding":[{"system":"http://snomed.info/sct","code":"736686006"}]},"subject":{"reference":"Patient/518f2482-1ec5-4ecc-bac1-0a4b932c6aa3"},"onsetDateTime":"2022-03-16T00:00:00+00:00"},"request":{"method":"POST","url":"Condition"}},{"fullUrl":"Condition/ae45213b-c774-4f7f-81f2-c1bc1ba9ee32","resource":{"resourceType":"Condition","id":"ae45213b-c774-4f7f-81f2-c1bc1ba9ee32","code":{"coding":[{"system":"http://snomed.info/sct","code":"248980004"}]},"subject":{"reference":"Patient/518f2482-1ec5-4ecc-bac1-0a4b932c6aa3"},"onsetDateTime":"2022-07-28T00:00:00+00:00"},"request":{"method":"POST","url":"Condition"}},{"fullUrl":"Condition/cb50b4d5-a3d3-4a93-9983-2cd3dbaeba12","resource":{"resourceType":"Condition","id":"cb50b4d5-a3d3-4a93-9983-2cd3dbaeba12","code":{"coding":[{"system":"http://snomed.info/sct","code":"418290006"}]},"subject":{"reference":"Patient/518f2482-1ec5-4ecc-bac1-0a4b932c6aa3"},"onsetDateTime":"2022-10-02T00:00:00+00:00"},"request":{"method":"POST","url":"Condition"}},{"fullUrl":"Condition/9d56b64f-4730-420a-bfee-d4fad28bcaa3","resource":{"resourceType":"Condition","id":"9d56b64f-4730-420a-bfee-d4fad28bcaa3","code":{"coding":[{"system":"http://snomed.info/sct","code":"386661006"}]},"subject":{"reference":"Patient/518f2482-1ec5-4ecc-bac1-0a4b932c6aa3"},"onsetDateTime":"2022-08-18T00:00:00+00:00"},"request":{"method":"POST","url":"Condition"}},{"fullUrl":"Observation/1073e884-b17f-437d-9254-53a21a75f74d","resource":{"resourceType":"Observation","id":"1073e884-b17f-437d-9254-53a21a75f74d","status":"final","code":{"coding":[{"system":"http://loinc.org","code":"26464-8"}]},"subject":{"reference":"Patient/518f2482-1ec5-4ecc-bac1-0a4b932c6aa3"},"effectiveDateTime":"2022-05-09T00:00:00+00:00","valueQuantity":{"value":6.9}},"request":{"method":"POST","url":"Observation"}},{"fullUrl":"Observation/8b168735-75d3-4ecc-bc00-a48e3c7649f5","resource":{"resourceType":"Observation","id":"8b168735-75d3-4ecc-bc00-a48e3c7649f5","status":"final","code":{"coding":[{"system":"http://www.ama-assn.org/go/cpt","code":"85048"}]},"subject":{"reference":"Patient/518f2482-1ec5-4ecc-bac1-0a4b932c6aa3"},"effectiveDateTime":"2022-03-15T00:00:00+00:00","valueQuantity":{"value":10.8}},"request":{"method":"POST","url":"Observation"}},{"fullUrl":"Procedure/66d7526c-cf8c-49be-a148-8c3356279e89","resource":{"resourceType":"Procedure","id":"66d7526c-cf8c-49be-a148-8c3356279e89","status":"completed","code":{"coding":[{"system":"http://snomed.info/sct","code":"146005"}]},"subject":{"reference":"Patient/518f2482-1ec5-4ecc-bac1-0a4b932c6aa3"},"performedDateTime":"2022-12-16T00:00:00+00:00"},"request":{"method":"POST","url":"Procedure"}},{"fullUrl":"Procedure/4004f551-7e0e-4383-85fc-284206708be0","resource":{"resourceType":"Procedure","id":"4004f551-7e0e-4383-85fc-284206708be0","status":"completed","code":{"coding":[{"system":"http://snomed.info/sct","code":"115006"}]},"subject":{"reference":"Patient/518f2482-1ec5-4ecc-bac1-0a4b932c6aa3"},"performedDateTime":"2022-09-12T00:00:00+00:00"},"request":{"method":"POST","url":"Procedure"}},{"fullUrl":"Procedure/897e7e53-c591-4b3d-a415-0472cb08f6d9","resource":{"resourceType":"Procedure","id":"897e7e53-c591-4b3d-a415-0472cb08f6d9","status":"completed","code":{"coding":[{"system":"http://snomed.info/sct","code":"115006"}]},"subject":{"reference":"Patient/518f2482-1ec5-4ecc-bac1-0a4b932c6aa3"},"performedDateTime":"2022-01-10T00:00:00+00:00"},"request":{"method":"POST","url":"Procedure"}},{"fullUrl":"MedicationStatement/ef0d446e-21b2-4fe4-a924-3abaee022c47","resource":{"resourceType":"MedicationStatement","id":"ef0d446e-21b2-4fe4-a924-3abaee022c47","status":"completed","medicationCodeableConcept":{"coding":[{"system":"http://www.nlm.nih.gov/research/umls/rxnorm","code":"18631"}]},"subject":{"reference":"Patient/518f2482-1ec5-4ecc-bac1-0a4b932c6aa3"},"effectiveDateTime":"2022-11-27T00:00:00+00:00","dosage":[{"doseAndRate":[{"doseQuantity":{"value":2.0,"unit":"TAB","system":"http://terminology.hl7.org/CodeSystem/v3-orderableDrugForm","code":"TAB"}}]}]},"request":{"method":"POST","url":"MedicationStatement"}},{"fullUrl":"MedicationStatement/e9179fd5-a1da-4f72-9ad0-9817be3d2c63","resource":{"resourceType":"MedicationStatement","id":"e9179fd5-a1da-4f72-9ad0-9817be3d2c63","status":"completed","medicationCodeableConcept":{"coding":[{"system":"http://www.nlm.nih.gov/research/umls/rxnorm","code":"18631"}]},"subject":{"reference":"Patient/518f2482-1ec5-4ecc-bac1-0a4b932c6aa3"},"effectiveDateTime":"2022-02-02T00:00:00+00:00","dosage":[{"doseAndRate":[{"doseQuantity":{"value":2.0,"unit":"TAB","system":"http://terminology.hl7.org/CodeSystem/v3-orderableDrugForm","code":"TAB"}}]}]},"request":{"method":"POST","url":"MedicationStatement"}},{"fullUrl":"MedicationStatement/d09f2797-2722-4a38-bd78-d83319fd3845","resource":{"resourceType":"MedicationStatement","id":"d09f2797-2722-4a38-bd78-d83319fd3845","status":"completed","medicationCodeableConcept":{"coding":[{"system":"http://www.nlm.nih.gov/research/umls/rxnorm","code":"3640"}]},"subject":{"reference":"Patient/518f2482-1ec5-4ecc-bac1-0a4b932c6aa3"},"effectiveDateTime":"2022-12-28T00:00:00+00:00","dosage":[{"doseAndRate":[{"doseQuantity":{"value":1.0,"unit":"TAB","system":"http://terminology.hl7.org/CodeSystem/v3-orderableDrugForm","code":"TAB"}}]}]},"request":{"method":"POST","url":"MedicationStatement"}},{"fullUrl":"MedicationStatement/95924a8e-1c23-46c9-ad26-9ae5ecf012cc","resource":{"resourceType":"MedicationStatement","id":"95924a8e-1c23-46c9-ad26-9ae5ecf012cc","status":"completed","medicationCodeableConcept":{"coding":[{"system":"http://www.nlm.nih.gov/research/umls/rxnorm","code":"7980"}]},"subject":{"reference":"Patient/518f2482-1ec5-4ecc-bac1-0a4b932c6aa3"},"effectiveDateTime":"2022-09-27T00:00:00+00:00","dosage":[{"doseAndRate":[{"doseQuantity":{"value":1.0,"unit":"TAB","system":"http://terminology.hl7.org/CodeSystem/v3-orderableDrugForm","code":"TAB"}}]}]},"request":{"method":"POST","url":"MedicationStatement"}},{"fullUrl":"MedicationStatement/e931034e-b986-4d02-bb01-e70abf35ddd2","resource":{"resourceType":"MedicationStatement","id":"e931034e-b986-4d02-bb01-e70abf35ddd2","status":"completed","medicationCodeableConcept":{"coding":[{"system":"http://www.nlm.nih.gov/research/umls/rxnorm","code":"8698"}]},"subject":{"reference":"Patient/518f2482-1ec5-4ecc-bac1-0a4b932c6aa3"},"effectiveDateTime":"2022-11-01T00:00:00+00:00","dosage":[{"doseAndRate":[{"doseQuantity":{"value":1.0,"unit":"TAB","system":"http://terminology.hl7.org/CodeSystem/v3-orderableDrugForm","code":"TAB"}}]}]},"request":{"method":"POST","url":"MedicationStatement"}},{"fullUrl":"Encounter/18456158-e851-4cf7-b667-2e99cdf370e5","resource":{"resourceType":"Encounter","id":"18456158-e851-4cf7-b667-2e99cdf370e5","status":"finished","class":{"system":"http://terminology.hl7.org/CodeSystem/v3-ActCode","code":"IMP","display":"inpatient encounter"},"type":[{"coding":[{"system":"http://terminology.hl7.org/CodeSystem/encounter-type","code":"OKI"}]}],"subject":{"reference":"Patient/518f2482-1ec5-4ecc-bac1-0a4b932c6aa3"},"period":{"start":"2022-05-28T00:00:00+00:00","end":"2022-06-04T00:00:00+00:00"}},"request":{"method":"POST","url":"Encounter"}},{"fullUrl":"Encounter/3a783528-4e59-478e-a94d-ab41300f49c8","resource":{"resourceType":"Encounter","id":"3a783528-4e59-478e-a94d-ab41300f49c8","status":"finished","class":{"system":"http://terminology.hl7.org/CodeSystem/v3-ActCode","code":"PRENC","display":"pre-admission"},"type":[{"coding":[{"system":"http://terminology.hl7.org/CodeSystem/encounter-type","code":"CCS60"}]}],"subject":{"reference":"Patient/518f2482-1ec5-4ecc-bac1-0a4b932c6aa3"},"period":{"start":"2022-08-30T00:00:00+00:00","end":"2022-09-01T00:00:00+00:00"}},"request":{"method":"POST","url":"Encounter"}},{"fullUrl":"Encounter/b70df79d-97d7-46b7-952b-0d00236cbbcd","resource":{"resourceType":"Encounter","id":"b70df79d-97d7-46b7-952b-0d00236cbbcd","status":"finished","class":{"system":"http://terminology.hl7.org/CodeSystem/v3-ActCode","code":"VR","display":"virtual"},"type":[{"coding":[{"system":"http://terminology.hl7.org/CodeSystem/encounter-type","code":"BD/BM-clin"}]}],"subject":{"reference":"Patient/518f2482-1ec5-4ecc-bac1-0a4b932c6aa3"},"period":{"start":"2022-08-12T00:00:00+00:00","end":"2022-08-15T00:00:00+00:00"}},"request":{"method":"POST","url":"Encounter"}},{"fullUrl":"Patient/e502bb93-20d0-4eea-913c-1377cb29f43c","resource":{"resourceType":"Patient","id":"e502bb93-20d0-4eea-913c-1377cb29f43c","identifier":[{"type":{"coding":[{"system":"http://terminology.hl7.org/CodeSystem/v2-0203","code":"MR"}]},"system":"urn:fhirgen:mrn","value":"375-36-2354"}],"name":[{"family":"Mitchell","given":["Jeanette"]}],"gender":"other","birthDate":"1966-02-03","address":[{"line":["2817 Margaret Ports"],"city":"North John","state":"Illinois"}]},"request":{"method":"POST","url":"Patient"}},{"fullUrl":"Observation/feacf65b-1e42-4eb5-9095-cd7559fed8db","resource":{"resourceType":"Observation","id":"feacf65b-1e42-4eb5-9095-cd7559fed8db","status":"final","code":{"coding":[{"system":"http://loinc.org","code":"50695-6"}]},"subject":{"reference":"Patient/e502bb93-20d0-4eea-913c-1377cb29f43c"},"effectiveDateTime":"2022-09-23T00:00:00+00:00","valueRatio":{"numerator":{"value":1.0},"denominator":{"value":4.0}}},"request":{"method":"POST","url":"Observation"}},{"fullUrl":"Observation/90cc15bc-e00f-482b-9111-cfcea4c00f0e","resource":{"resourceType":"Observation","id":"90cc15bc-e00f-482b-9111-cfcea4c00f0e","status":"final","code":{"coding":[{"system":"http://loinc.org","code":"22590-4"}]},"subject":{"reference":"Patient/e502bb93-20d0-4eea-913c-1377cb29f43c"},"effectiveDateTime":"2022-10-20T00:00:00+00:00","valueRatio":{"numerator":{"value":1.0},"denominator":{"value":4.0}}},"request":{"method":"POST","url":"Observation"}},{"fullUrl":"Condition/c86eb2db-df61-4db3-b119-d697f2057e89","resource":{"resourceType":"Condition","id":"c86eb2db-df61-4db3-b119-d697f2057e89","code":{"coding":[{"system":"http://snomed.info/sct","code":"405737000"}]},"subject":{"reference":"Patient/e502bb93-20d0-4eea-913c-1377cb29f43c"},"onsetDateTime":"2022-07-19T00:00:00+00:00"},"request":{"method":"POST","url":"Condition"}},{"fullUrl":"Condition/6e6be929-5433-466c-8ecc-63c02e0e6747","resource":{"resourceType":"Condition","id":"6e6be929-5433-466c-8ecc-63c02e0e6747","code":{"coding":[{"system":"http://snomed.info/sct","code":"271807003"}]},"subject":{"reference":"Patient/e502bb93-20d0-4eea-913c-1377cb29f43c"},"onsetDateTime":"2022-11-19T00:00:00+00:00"},"request":{"method":"POST","url":"Condition"}},{"fullUrl":"Condition/b4a84a6c-45e1-4052-b02f-0b38c5f99432","resource":{"resourceType":"Condition","id":"b4a84a6c-45e1-4052-b02f-0b38c5f99432","code":{"coding":[{"system":"http://snomed.info/sct","code":"31070006"}]},"subject":{"reference":"Patient/e502bb93-20d0-4eea-913c-1377cb29f43c"},"onsetDateTime":"2022-01-25T00:00:00+00:00"},"request":{"method":"POST","url":"Condition"}},{"fullUrl":"Condition/62d9f91a-f1ab-4040-bafe-2f37c6935342","resource":{"resourceType":"Condition","id":"62d9f91a-f1ab-4040-bafe-2f37c6935342","code":{"coding":[{"system":"http://snomed.info/sct","code":"21522001"}]},"subject":{"reference":"Patient/e502bb93-20d0-4eea-913c-1377cb29f43c"},"onsetDateTime":"2022-10-09T00:00:00+00:00"},"request":{"method":"POST","url":"Condition"}},{"fullUrl":"Condition/cb264b62-ba11-4c5f-b740-e47f634cd925","resource":{"resourceType":"Condition","id":"cb264b62-ba11-4c5f-b740-e47f634cd925","code":{"coding":[{"system":"http://snomed.info/sct","code":"736686006"}]},"subject":{"reference":"Patient/e502bb93-20d0-4eea-913c-1377cb29f43c"},"onsetDateTime":"2022-12-17T00:00:00+00:00"},"request":{"method":"POST","url":"Condition"}},{"fullUrl":"Condition/a2ebc2d2-f50c-4a12-b714-47ea9677d772","resource":{"resourceType":"Condition","id":"a2ebc2d2-f50c-4a12-b714-47ea9677d772","code":{"coding":[{"system":"http://snomed.info/sct","code":"91554004"}]},"subject":{"reference":"Patient/e502bb93-20d0-4eea-913c-1377cb29f43c"},"onsetDateTime":"2022-11-08T00:00:00+00:00"},"request":{"method":"POST","url":"Condition"}},{"fullUrl":"Condition/21e2cf25-0c84-4895-a6ed-406ffd7bd011","resource":{"resourceType":"Condition","id":"21e2cf25-0c84-4895-a6ed-406ffd7bd011","code":{"coding":[{"system":"http://snomed.info/sct","code":"31070006"}]},"subject":{"reference":"Patient/e502bb93-20d0-4eea-913c-1377cb29f43c"},"onsetDateTime":"2022-07-03T00:00:00+00:00"},"request":{"method":"POST","url":"Condition"}},{"fullUrl":"Condition/72cf2267-83a9-4145-8d31-e77a8a1d19db","resource":{"resourceType":"Condition","id":"72cf2267-83a9-4145-8d31-e77a8a1d19db","code":{"coding":[{"system":"http://snomed.info/sct","code":"3951002"}]},"subject":{"reference":"Patient/e502bb93-20d0-4eea-913c-1377cb29f43c"},"onsetDateTime":"2022-08-21T00:00:00+00:00"},"request":{"method":"POST","url":"Condition"}},{"fullUrl":"Observation/8ab631d0-d392-411e-b39b-7cf682861771","resource":{"resourceType":"Observation","id":"8ab631d0-d392-411e-b39b-7cf682861771","status":"final","code":{"coding":[{"system":"http://www.ama-assn.org/go/cpt","code":"85048"}]},"subject":{"reference":"Patient/e502bb93-20d0-4eea-913c-1377cb29f43c"},"effectiveDateTime":"2022-04-02T00:00:00+00:00","valueQuantity":{"value":7.4}},"request":{"method":"POST","url":"Observation"}},{"fullUrl":"Observation/c8e57422-60e1-476c-9443-920da390b8e9","resource":{"resourceType":"Observation","id":"c8e57422-60e1-476c-9443-920da390b8e9","status":"final","code":{"coding":[{"system":"http://loinc.org","code":"26464-8"}]},"subject":{"reference":"Patient/e502bb93-20d0-4eea-913c-1377cb29f43c"},"effectiveDateTime":"2022-12-21T00:00:00+00:00","valueQuantity":{"value":7.5}},"request":{"method":"POST","url":"Observation"}},{"fullUrl":"Procedure/d232e4e5-4c4b-4c2f-9e3d-d83c36e63f92","resource":{"resourceType":"Procedure","id":"d232e4e5-4c4b-4c2f-9e3d-d83c36e63f92","status":"completed","code":{"coding":[{"system":"http://snomed.info/sct","code":"115006"}]},"subject":{"reference":"Patient/e502bb93-20d0-4eea-913c-1377cb29f43c"},"performedDateTime":"2022-07-03T00:00:00+00:00"},"request":{"method":"POST","url":"Procedure"}},{"fullUrl":"Procedure/9f269001-e9b2-448e-9af6-69cd9c9ea885","resource":{"resourceType":"Procedure","id":"9f269001-e9b2-448e-9af6-69cd9c9ea885","status":"completed","code":{"coding":[{"system":"http://snomed.info/sct","code":"115006"}]},"subject":{"reference":"Patient/e502bb93-20d0-4eea-913c-1377cb29f43c"},"performedDateTime":"2022-08-08T00:00:00+00:00"},"request":{"method":"POST","url":"Procedure"}},{"fullUrl":"Procedure/4f943073-474c-449f-8691-3204d0bcf201","resource":{"resourceType":"Procedure","id":"4f943073-474c-449f-8691-3204d0bcf201","status":"completed","code":{"coding":[{"system":"http://snomed.info/sct","code":"647000"}]},"subject":{"reference":"Patient/e502bb93-20d0-4eea-913c-1377cb29f43c"},"performedDateTime":"2022-07-11T00:00:00+00:00"},"request":{"method":"POST","url":"Procedure"}},{"fullUrl":"MedicationStatement/ae09f4b7-0ed7-41a8-bcf0-0d9c2bb6291c","resource":{"resourceType":"MedicationStatement","id":"ae09f4b7-0ed7-41a8-bcf0-0d9c2bb6291c","status":"completed","medicationCodeableConcept":{"coding":[{"system":"http://www.nlm.nih.gov/research/umls/rxnorm","code":"10395"}]},"subject":{"reference":"Patient/e502bb93-20d0-4eea-913c-1377cb29f43c"},"effectiveDateTime":"2022-02-25T00:00:00+00:00","dosage":[{"doseAndRate":[{"doseQuantity":{"value":2.0,"unit":"TAB","system":"http://terminology.hl7.org/CodeSystem/v3-orderableDrugForm","code":"TAB"}}]}]},"request":{"method":"POST","url":"MedicationStatement"}},{"fullUrl":"MedicationStatement/8f3db698-487e-458e-a6f0-e75272100e46","resource":{"resourceType":"MedicationStatement","id":"8f3db698-487e-458e-a6f0-e75272100e46","status":"completed","medicationCodeableConcept":{"coding":[{"system":"http://www.nlm.nih.gov/research/umls/rxnorm","code":"8698"}]},"subject":{"reference":"Patient/e502bb93-20d0-4eea-913c-1377cb29f43c"},"effectiveDateTime":"2022-05-13T00:00:00+00:00","dosage":[{"doseAndRate":[{"doseQuantity":{"value":2.0,"unit":"TAB","system":"http://terminology.hl7.org/CodeSystem/v3-orderableDrugForm","code":"TAB"}}]}]},"request":{"method":"POST","url":"MedicationStatement"}},{"fullUrl":"MedicationStatement/b6b7931f-e042-4b1c-81c2-42c8256f4685","resource":{"resourceType":"MedicationStatement","id":"b6b7931f-e042-4b1c-81c2-42c8256f4685","status":"completed","medicationCodeableConcept":{"coding":[{"system":"http://www.nlm.nih.gov/research/umls/rxnorm","code":"10395"}]},"subject":{"reference":"Patient/e502bb93-20d0-4eea-913c-1377cb29f43c"},"effectiveDateTime":"2022-02-08T00:00:00+00:00","dosage":[{"doseAndRate":[{"doseQuantity":{"value":2.0,"unit":"TAB","system":"http://terminology.hl7.org/CodeSystem/v3-orderableDrugForm","code":"TAB"}}]}]},"request":{"method":"POST","url":"MedicationStatement"}},{"fullUrl":"MedicationStatement/3de8cb89-7b1e-4233-a4c1-ca9ab891dab4","resource":{"resourceType":"MedicationStatement","id":"3de8cb89-7b1e-4233-a4c1-ca9ab891dab4","status":"completed","medicationCodeableConcept":{"coding":[{"system":"http://www.nlm.nih.gov/research/umls/rxnorm","code":"2193"}]},"subject":{"reference":"Patient/e502bb93-20d0-4eea-913c-1377cb29f43c"},"effectiveDateTime":"2022-01-10T00:00:00+00:00","dosage":[{"doseAndRate":[{"doseQuantity":{"value":2.0,"unit":"TAB","system":"http://terminology.hl7.org/CodeSystem/v3-orderableDrugForm","code":"TAB"}}]}]},"request":{"method":"POST","url":"MedicationStatement"}},{"fullUrl":"MedicationStatement/0059fa99-49d2-4460-8e8f-628acb0e0797","resource":{"resourceType":"MedicationStatement","id":"0059fa99-49d2-4460-8e8f-628acb0e0797","status":"completed","medicationCodeableConcept":{"coding":[{"system":"http://www.nlm.nih.gov/research/umls/rxnorm","code":"3640"}]},"subject":{"reference":"Patient/e502bb93-20d0-4eea-913c-1377cb29f43c"},"effectiveDateTime":"2022-11-21T00:00:00+00:00","dosage":[{"doseAndRate":[{"doseQuantity":{"value":2.0,"unit":"TAB","system":"http://terminology.hl7.org/CodeSystem/v3-orderableDrugForm","code":"TAB"}}]}]},"request":{"method":"POST","url":"MedicationStatement"}},{"fullUrl":"Encounter/92747e6f-00df-4e96-b721-c1c6b0f83df9","resource":{"resourceType":"Encounter","id":"92747e6f-00df-4e96-b721-c1c6b0f83df9","status":"finished","class":{"system":"http://terminology.hl7.org/CodeSystem/v3-ActCode","code":"OBSENC","display":"observation encounter"},"type":[{"coding":[{"system":"http://terminology.hl7.org/CodeSystem/encounter-type","code":"OKI"}]}],"subject":{"reference":"Patient/e502bb93-20d0-4eea-913c-1377cb29f43c"},"period":{"start":"2022-03-09T00:00:00+00:00","end":"2022-03-11T00:00:00+00:00"}},"request":{"method":"POST","url":"Encounter"}},{"fullUrl":"Encounter/2106087c-7441-458c-a18e-95cf673c00b6","resource":{"resourceType":"Encounter","id":"2106087c-7441-458c-a18e-95cf673c00b6","status":"finished","class":{"system":"http://terminology.hl7.org/CodeSystem/v3-ActCode","code":"EMER","display":"emergency"},"type":[{"coding":[{"system":"http://terminology.hl7.org/CodeSystem/encounter-type","code":"CCS60"}]}],"subject":{"reference":"Patient/e502bb93-20d0-4eea-913c-1377cb29f43c"},"period":{"start":"2022-02-03T00:00:00+00:00","end":"2022-02-04T00:00:00+00:00"}},"request":{"method":"POST","url":"Encounter"}},{"fullUrl":"Encounter/b33d5f72-f534-4e79-9d05-5a72aec3930d","resource":{"resourceType":"Encounter","id":"b33d5f72-f534-4e79-9d05-5a72aec3930d","status":"finished","class":{"system":"http://terminology.hl7.org/CodeSystem/v3-ActCode","code":"FLD","display":"field"},"type":[{"coding":[{"system":"http://terminology.hl7.org/CodeSystem/encounter-type","code":"ADMS"}]}],"subject":{"reference":"Patient/e502bb93-20d0-4eea-913c-1377cb29f43c"},"period":{"start":"2022-02-02T00:00:00+00:00","end":"2022-02-03T00:00:00+00:00"}},"request":{"method":"POST","url":"Encounter"}}]}