{"resourceType":"Bundle","id":"58c6601c-6e79-4282-9919-130292380c6e","type":"transaction","entry":[{"fullUrl":"Patient/672b9dd9-acd5-47ee-ae55-e1955cc45e78","resource":{"resourceType":"Patient","id":"672b9dd9-acd5-47ee-ae55-e1955cc45e78","identifier":[{"type":{"coding":[{"system":"http://terminology.hl7.org/CodeSystem/v2-0203","code":"MR"}]},"system":"urn:fhirgen:mrn","value":"173-56-4348"}],"name":[{"use":"official","family":"Bailey","given":["Mark"]},{"use":"maiden","family":"Phillips"}],"telecom":[{"system":"phone","value":"293-159-3186x955","use":"work"},{"system":"email","value":"gallowayrebecca@gmail.com","use":"mobile"}],"gender":"male","birthDate":"2001-08-22","address":[{"use":"home","line":["9604 Parker Trail"],"city":"East Chelsea","state":"WV","postalCode":"39206"},{"use":"old","line":["98347 Amanda Hills Apt. 458"],"city":"East Meganshire","state":"AZ","postalCode":"10677"}]},"request":{"method":"POST","url":"Patient"}},{"fullUrl":"Observation/23efb284-9f98-44c0-aed7-6ae381ef12ad","resource":{"resourceType":"Observation","id":"23efb284-9f98-44c0-aed7-6ae381ef12ad","status":"final","code":{"coding":[{"system":"http://loinc.org","code":"51475-2"}]},"subject":{"reference":"Patient/672b9dd9-acd5-47ee-ae55-e1955cc45e78"},"effectiveDateTime":"2022-05-23T00:00:00+00:00","valueRatio":{"numerator":{"value":1},"denominator":{"value":4}}},"request":{"method":"POST","url":"Observation"}},{"fullUrl":"Observation/49dd4e8a-95f2-4932-a3e7-40bab6241f22","resource":{"resourceType":"Observation","id":"49dd4e8a-95f2-4932-a3e7-40bab6241f22","status":"final","code":{"coding":[{"system":"http://loinc.org","code":"50690-7"}]},"subject":{"reference":"Patient/672b9dd9-acd5-47ee-ae55-e1955cc45e78"},"effectiveDateTime":"2022-01-11T00:00:00+00:00","valueRatio":{"numerator":{"value":1},"denominator":{"value":64}}},"request":{"method":"POST","url":"Observation"}},{"fullUrl":"Condition/7a21a969-e168-4156-8a70-8f5467f41b48","resource":{"resourceType":"Condition","id":"7a21a969-e168-4156-8a70-8f5467f41b48","code":{"coding":[{"system":"http://snomed.info/sct","code":"79342006"}]},"subject":{"reference":"Patient/672b9dd9-acd5-47ee-ae55-e1955cc45e78"},"onsetDateTime":"2022-11-28T00:00:00+00:00"},"request":{"method":"POST","url":"Condition"}},{"fullUrl":"Condition/bddd9c9a-4e61-4ff4-afe9-fdbad485b144","resource":{"resourceType":"Condition","id":"bddd9c9a-4e61-4ff4-afe9-fdbad485b144","code":{"coding":[{"system":"http://snomed.info/sct","code":"91554004"}]},"subject":{"reference":"Patient/672b9dd9-acd5-47ee-ae55-e1955cc45e78"},"onsetDateTime":"2022-09-10T00:00:00+00:00"},"request":{"method":"POST","url":"Condition"}},{"fullUrl":"Condition/d6295d7c-bcf3-4145-b38c-1e6748486c94","resource":{"resourceType":"Condition","id":"d6295d7c-bcf3-4145-b38c-1e6748486c94","code":{"coding":[{"system":"http://snomed.info/sct","code":"71315007"}]},"subject":{"reference":"Patient/672b9dd9-acd5-47ee-ae55-e1955cc45e78"},"onsetDateTime":"2022-04-02T00:00:00+00:00"},"request":{"method":"POST","url":"Condition"}},{"fullUrl":"Condition/0657cbb4-5c23-4032-a296-fd4bb2f67452","resource":{"resourceType":"Condition","id":"0657cbb4-5c23-4032-a296-fd4bb2f67452","code":{"coding":[{"system":"http://snomed.info/sct","code":"91554004"}]},"subject":{"reference":"Patient/672b9dd9-acd5-47ee-ae55-e1955cc45e78"},"onsetDateTime":"2022-02-02T00:00:00+00:00"},"request":{"method":"POST","url":"Condition"}},{"fullUrl":"Condition/b60b7c79-a2c6-4d0a-bca5-0eb7525f184f","resource":{"resourceType":"Condition","id":"b60b7c79-a2c6-4d0a-bca5-0eb7525f184f","code":{"coding":[{"system":"http://snomed.info/sct","code":"418290006"}]},"subject":{"reference":"Patient/672b9dd9-acd5-47ee-ae55-e1955cc45e78"},"onsetDateTime":"2022-04-29T00:00:00+00:00"},"request":{"method":"POST","url":"Condition"}},{"fullUrl":"Condition/6c9b0b03-e763-4dd9-b215-ca1974214b83","resource":{"resourceType":"Condition","id":"6c9b0b03-e763-4dd9-b215-ca1974214b83","code":{"coding":[{"system":"http://snomed.info/sct","code":"709977002"}]},"subject":{"reference":"Patient/672b9dd9-acd5-47ee-ae55-e1955cc45e78"},"onsetDateTime":"2022-10-10T00:00:00+00:00"},"request":{"method":"POST","url":"Condition"}},{"fullUrl":"Condition/1063e7df-38cc-419b-8b55-d6a5f576fc8e","resource":{"resourceType":"Condition","id":"1063e7df-38cc-419b-8b55-d6a5f576fc8e","code":{"coding":[{"system":"http://snomed.info/sct","code":"44882003"}]},"subject":{"reference":"Patient/672b9dd9-acd5-47ee-ae55-e1955cc45e78"},"onsetDateTime":"2022-03-10T00:00:00+00:00"},"request":{"method":"POST","url":"Condition"}},{"fullUrl":"Observation/3bf9588a-153c-4ea1-b864-87271f3a8073","resource":{"resourceType":"Observation","id":"3bf9588a-153c-4ea1-b864-87271f3a8073","status":"final","code":{"coding":[{"system":"http://loinc.org","code":"804-5"}]},"subject":{"reference":"Patient/672b9dd9-acd5-47ee-ae55-e1955cc45e78"},"effectiveDateTime":"2022-09-03T00:00:00+00:00","valueQuantity":{"value":7.9}},"request":{"method":"POST","url":"Observation"}},{"fullUrl":"Observation/d76cb180-5594-4087-9a04-55b46c7139d7","resource":{"resourceType":"Observation","id":"d76cb180-5594-4087-9a04-55b46c7139d7","status":"final","code":{"coding":[{"system":"http://loinc.org","code":"49498-9"}]},"subject":{"reference":"Patient/672b9dd9-acd5-47ee-ae55-e1955cc45e78"},"effectiveDateTime":"2022-04-10T00:00:00+00:00","valueQuantity":{"value":10.4}},"request":{"method":"POST","url":"Observation"}},{"fullUrl":"Observation/22c3c481-decd-4a3d-832f-990562f6fcbc","resource":{"resourceType":"Observation","id":"22c3c481-decd-4a3d-832f-990562f6fcbc","status":"final","code":{"coding":[{"system":"http://loinc.org","code":"49498-9"}]},"subject":{"reference":"Patient/672b9dd9-acd5-47ee-ae55-e1955cc45e78"},"effectiveDateTime":"2022-08-03T00:00:00+00:00","valueCodeableConcept":{"coding":[{"system":"snomed","code":"123456","display":"fake snomed"}]}},"request":{"method":"POST","url":"Observation"}},{"fullUrl":"Observation/fc0c3380-cffa-422d-b3b7-8d2fb7ad381f","resource":{"resourceType":"Observation","id":"fc0c3380-cffa-422d-b3b7-8d2fb7ad381f","status":"final","code":{"coding":[{"system":"http://loinc.org","code":"49498-9"}]},"subject":{"reference":"Patient/672b9dd9-acd5-47ee-ae55-e1955cc45e78"},"effectiveDateTime":"2022-11-03T00:00:00+00:00","valueCodeableConcept":{"coding":[{"system":"snomed","code":"123456","display":"fake snomed"}]}},"request":{"method":"POST","url":"Observation"}},{"fullUrl":"Observation/111bcbef-3ac2-4995-af9c-f0337e07430b","resource":{"resourceType":"Observation","id":"111bcbef-3ac2-4995-af9c-f0337e07430b","status":"final","code":{"coding":[{"system":"http://loinc.org","code":"49498-9"}]},"subject":{"reference":"Patient/672b9dd9-acd5-47ee-ae55-e1955cc45e78"},"effectiveDateTime":"2022-09-14T00:00:00+00:00"},"request":{"method":"POST","url":"Observation"}},{"fullUrl":"Observation/7f357878-664a-4479-b77c-f6c56a0fb14c","resource":{"resourceType":"Observation","id":"7f357878-664a-4479-b77c-f6c56a0fb14c","status":"final","code":{"coding":[{"system":"http://loinc.org","code":"49498-9"}]},"subject":{"reference":"Patient/672b9dd9-acd5-47ee-ae55-e1955cc45e78"},"effectiveDateTime":"2022-05-24T00:00:00+00:00"},"request":{"method":"POST","url":"Observation"}},{"fullUrl":"Procedure/beefef21-66d5-4728-aff6-e1b19383e9a0","resource":{"resourceType":"Procedure","id":"beefef21-66d5-4728-aff6-e1b19383e9a0","status":"completed","code":{"coding":[{"system":"http://snomed.info/sct","code":"104001"}]},"subject":{"reference":"Patient/672b9dd9-acd5-47ee-ae55-e1955cc45e78"},"performedDateTime":"2022-12-31T00:00:00+00:00"},"request":{"method":"POST","url":"Procedure"}},{"fullUrl":"Procedure/aa801779-c6fc-4c3d-a64f-4a6cafcd5016","resource":{"resourceType":"Procedure","id":"aa801779-c6fc-4c3d-a64f-4a6cafcd5016","status":"completed","code":{"coding":[{"system":"http://snomed.info/sct","code":"647000"}]},"subject":{"reference":"Patient/672b9dd9-acd5-47ee-ae55-e1955cc45e78"},"performedDateTime":"2022-09-04T00:00:00+00:00"},"request":{"method":"POST","url":"Procedure"}},{"fullUrl":"Procedure/92a99370-6551-4be9-a419-e87ff3885d4a","resource":{"resourceType":"Procedure","id":"92a99370-6551-4be9-a419-e87ff3885d4a","status":"completed","code":{"coding":[{"system":"http://snomed.info/sct","code":"104001"}]},"subject":{"reference":"Patient/672b9dd9-acd5-47ee-ae55-e1955cc45e78"},"performedDateTime":"2022-12-29T00:00:00+00:00"},"request":{"method":"POST","url":"Procedure"}},{"fullUrl":"MedicationStatement/1a896c8f-f030-4788-8371-1c5f09ab6915","resource":{"resourceType":"MedicationStatement","id":"1a896c8f-f030-4788-8371-1c5f09ab6915","status":"completed","medicationCodeableConcept":{"coding":[{"system":"http://www.nlm.nih.gov/research/umls/rxnorm","code":"2193"}]},"subject":{"reference":"Patient/672b9dd9-acd5-47ee-ae55-e1955cc45e78"},"effectiveDateTime":"2022-10-03T00:00:00+00:00","dosage":[{"doseAndRate":[{"doseQuantity":{"value":2,"unit":"TAB","system":"http://terminology.hl7.org/CodeSystem/v3-orderableDrugForm","code":"TAB"}}]}]},"request":{"method":"POST","url":"MedicationStatement"}},{"fullUrl":"MedicationStatement/b1ad0d94-705b-4991-b7ff-0400885fad95","resource":{"resourceType":"MedicationStatement","id":"b1ad0d94-705b-4991-b7ff-0400885fad95","status":"completed","medicationCodeableConcept":{"coding":[{"system":"http://www.nlm.nih.gov/research/umls/rxnorm","code":"18631"}]},"subject":{"reference":"Patient/672b9dd9-acd5-47ee-ae55-e1955cc45e78"},"effectiveDateTime":"2022-09-13T00:00:00+00:00","dosage":[{"doseAndRate":[{"doseQuantity":{"value":1,"unit":"TAB","system":"http://terminology.hl7.org/CodeSystem/v3-orderableDrugForm","code":"TAB"}}]}]},"request":{"method":"POST","url":"MedicationStatement"}},{"fullUrl":"MedicationStatement/0556d1db-915a-43d6-9049-cee2d55cd80e","resource":{"resourceType":"MedicationStatement","id":"0556d1db-915a-43d6-9049-cee2d55cd80e","status":"completed","medicationCodeableConcept":{"coding":[{"system":"http://www.nlm.nih.gov/research/umls/rxnorm","code":"7980"}]},"subject":{"reference":"Patient/672b9dd9-acd5-47ee-ae55-e1955cc45e78"},"effectiveDateTime":"2022-10-28T00:00:00+00:00","dosage":[{"doseAndRate":[{"doseQuantity":{"value":2,"unit":"TAB","system":"http://terminology.hl7.org/CodeSystem/v3-orderableDrugForm","code":"TAB"}}]}]},"request":{"method":"POST","url":"MedicationStatement"}},{"fullUrl":"MedicationStatement/52e1f625-c94b-463f-855e-8a65def25be8","resource":{"resourceType":"MedicationStatement","id":"52e1f625-c94b-463f-855e-8a65def25be8","status":"completed","medicationCodeableConcept":{"coding":[{"system":"http://www.nlm.nih.gov/research/umls/rxnorm","code":"10395"}]},"subject":{"reference":"Patient/672b9dd9-acd5-47ee-ae55-e1955cc45e78"},"effectiveDateTime":"2022-07-14T00:00:00+00:00","dosage":[{"doseAndRate":[{"doseQuantity":{"value":4.8,"unit":"TAB","system":"http://terminology.hl7.org/CodeSystem/v3-orderableDrugForm","code":"TAB"}}]}]},"request":{"method":"POST","url":"MedicationStatement"}},{"fullUrl":"MedicationStatement/c07dda0e-7630-4aeb-a3f5-8c5d55eda65e","resource":{"resourceType":"MedicationStatement","id":"c07dda0e-7630-4aeb-a3f5-8c5d55eda65e","status":"completed","medicationCodeableConcept":{"coding":[{"system":"http://www.nlm.nih.gov/research/umls/rxnorm","code":"3640"}]},"subject":{"reference":"Patient/672b9dd9-acd5-47ee-ae55-e1955cc45e78"},"effectiveDateTime":"2022-08-04T00:00:00+00:00","dosage":[{"doseAndRate":[{"doseQuantity":{"value":5.4,"unit":"TAB","system":"http://terminology.hl7.org/CodeSystem/v3-orderableDrugForm","code":"TAB"}}]}]},"request":{"method":"POST","url":"MedicationStatement"}},{"fullUrl":"MedicationStatement/fd32373b-889a-4c87-9000-ea4390a146ae","resource":{"resourceType":"MedicationStatement","id":"fd32373b-889a-4c87-9000-ea4390a146ae","status":"completed","medicationCodeableConcept":{"coding":[{"system":"http://www.nlm.nih.gov/research/umls/rxnorm","code":"7984"}]},"subject":{"reference":"Patient/672b9dd9-acd5-47ee-ae55-e1955cc45e78"},"effectiveDateTime":"2022-05-22T00:00:00+00:00","dosage":[{"doseAndRate":[{"doseQuantity":{"value":4.5,"unit":"TAB","system":"http://terminology.hl7.org/CodeSystem/v3-orderableDrugForm","code":"TAB"}}]}]},"request":{"method":"POST","url":"MedicationStatement"}},{"fullUrl":"MedicationStatement/fd2c4a21-be6d-47cb-a12c-e2cf202a2d12","resource":{"resourceType":"MedicationStatement","id":"fd2c4a21-be6d-47cb-a12c-e2cf202a2d12","status":"completed","medicationCodeableConcept":{"coding":[{"system":"http://www.nlm.nih.gov/research/umls/rxnorm","code":"7980"}]},"subject":{"reference":"Patient/672b9dd9-acd5-47ee-ae55-e1955cc45e78"},"effectiveDateTime":"2022-12-14T00:00:00+00:00","dosage":[{"doseAndRate":[{"doseQuantity":{"value":3.2,"unit":"TAB","system":"http://terminology.hl7.org/CodeSystem/v3-orderableDrugForm","code":"TAB"}}]}]},"request":{"method":"POST","url":"MedicationStatement"}},{"fullUrl":"MedicationStatement/2921992b-3915-4f16-ad86-090917b96931","resource":{"resourceType":"MedicationStatement","id":"2921992b-3915-4f16-ad86-090917b96931","status":"completed","medicationCodeableConcept":{"coding":[{"system":"http://www.nlm.nih.gov/research/umls/rxnorm","code":"2193"}]},"subject":{"reference":"Patient/672b9dd9-acd5-47ee-ae55-e1955cc45e78"},"effectiveDateTime":"2022-11-12T00:00:00+00:00","dosage":[{"doseAndRate":[{"doseQuantity":{"value":5.8,"unit":"TAB","system":"http://terminology.hl7.org/CodeSystem/v3-orderableDrugForm","code":"TAB"}}]}]},"request":{"method":"POST","url":"MedicationStatement"}},{"fullUrl":"MedicationStatement/c9af6af4-6eea-41bf-be9f-46404cb1b3c1","resource":{"resourceType":"MedicationStatement","id":"c9af6af4-6eea-41bf-be9f-46404cb1b3c1","status":"completed","medicationCodeableConcept":{"coding":[{"system":"http://www.nlm.nih.gov/research/umls/rxnorm","code":"2193"}]},"subject":{"reference":"Patient/672b9dd9-acd5-47ee-ae55-e1955cc45e78"},"effectiveDateTime":"2022-09-03T00:00:00+00:00","dosage":[{"doseAndRate":[{"doseQuantity":{"value":4.9,"unit":"TAB","system":"http://terminology.hl7.org/CodeSystem/v3-orderableDrugForm","code":"TAB"}}]}]},"request":{"method":"POST","url":"MedicationStatement"}},{"fullUrl":"MedicationStatement/d344ad07-49d1-4228-a3ed-73d84f404fcb","resource":{"resourceType":"MedicationStatement","id":"d344ad07-49d1-4228-a3ed-73d84f404fcb","status":"completed","medicationCodeableConcept":{"coding":[{"system":"http://www.nlm.nih.gov/research/umls/rxnorm","code":"2193"}]},"subject":{"reference":"Patient/672b9dd9-acd5-47ee-ae55-e1955cc45e78"},"effectiveDateTime":"2022-07-04T00:00:00+00:00","dosage":[{"doseAndRate":[{"doseQuantity":{"value":6.9,"unit":"TAB","system":"http://terminology.hl7.org/CodeSystem/v3-orderableDrugForm","code":"TAB"}}]}]},"request":{"method":"POST","url":"MedicationStatement"}},{"fullUrl":"MedicationStatement/d2309c02-5b3b-4aba-a6ed-fcb383e3beb4","resource":{"resourceType":"MedicationStatement","id":"d2309c02-5b3b-4aba-a6ed-fcb383e3beb4","status":"completed","medicationCodeableConcept":{"coding":[{"system":"http://www.nlm.nih.gov/research/umls/rxnorm","code":"7984"}]},"subject":{"reference":"Patient/672b9dd9-acd5-47ee-ae55-e1955cc45e78"},"effectiveDateTime":"2022-01-20T00:00:00+00:00","dosage":[{"doseAndRate":[{"doseQuantity":{"value":5.3,"unit":"TAB","system":"http://terminology.hl7.org/CodeSystem/v3-orderableDrugForm","code":"TAB"}}]}]},"request":{"method":"POST","url":"MedicationStatement"}},{"fullUrl":"Encounter/346cc22e-e9fc-462e-87a3-13a1744d13a6","resource":{"resourceType":"Encounter","id":"346cc22e-e9fc-462e-87a3-13a1744d13a6","status":"finished","class":{"system":"http://terminology.hl7.org/CodeSystem/v3-ActCode","code":"IMP","display":"inpatient encounter"},"type":[{"coding":[{"system":"http://terminology.hl7.org/CodeSystem/encounter-type","code":"OKI"}]}],"subject":{"reference":"Patient/672b9dd9-acd5-47ee-ae55-e1955cc45e78"},"period":{"start":"2022-08-30T00:00:00+00:00","end":"2022-09-06T00:00:00+00:00"}},"request":{"method":"POST","url":"Encounter"}},{"fullUrl":"Encounter/d32c4a16-d7a8-4f21-be9d-b04e02d95cf9","resource":{"resourceType":"Encounter","id":"d32c4a16-d7a8-4f21-be9d-b04e02d95cf9","status":"finished","class":{"system":"http://terminology.hl7.org/CodeSystem/v3-ActCode","code":"IMP","display":"inpatient encounter"},"type":[{"coding":[{"system":"http://terminology.hl7.org/CodeSystem/encounter-type","code":"OKI"}]}],"subject":{"reference":"Patient/672b9dd9-acd5-47ee-ae55-e1955cc45e78"},"period":{"start":"2022-12-10T00:00:00+00:00","end":"2022-12-11T00:00:00+00:00"}},"request":{"method":"POST","url":"Encounter"}},{"fullUrl":"Encounter/48f8b40d-b524-47e1-9300-58d63f59efb6","resource":{"resourceType":"Encounter","id":"48f8b40d-b524-47e1-9300-58d63f59efb6","status":"finished","class":{"system":"http://terminology.hl7.org/CodeSystem/v3-ActCode","code":"FLD","display":"field"},"type":[{"coding":[{"system":"http://terminology.hl7.org/CodeSystem/encounter-type","code":"OKI"}]}],"subject":{"reference":"Patient/672b9dd9-acd5-47ee-ae55-e1955cc45e78"},"period":{"start":"2022-07-04T00:00:00+00:00","end":"2022-07-10T00:00:00+00:00"}},"request":{"method":"POST","url":"Encounter"}},{"fullUrl":"Encounter/d2e2ebcf-6b93-4e6c-a128-fcddc36d9c5f","resource":{"resourceType":"Encounter","id":"d2e2ebcf-6b93-4e6c-a128-fcddc36d9c5f","status":"finished","class":{"system":"http://terminology.hl7.org/CodeSystem/v3-ActCode","code":"PRENC","display":"pre-admission"},"type":[{"coding":[{"system":"http://terminology.hl7.org/CodeSystem/encounter-type","code":"BD/BM-clin"}]}],"subject":{"reference":"Patient/672b9dd9-acd5-47ee-ae55-e1955cc45e78"},"period":{"start":"2022-08-26T00:00:00+00:00","end":"2022-08-30T00:00:00+00:00"}},"request":{"method":"POST","url":"Encounter"}},{"fullUrl":"Patient/f62e8dde-e6b7-4a60-ab73-2114b4f7aad7","resource":{"resourceType":"Patient","id":"f62e8dde-e6b7-4a60-ab73-2114b4f7aad7","identifier":[{"type":{"coding":[{"system":"http://terminology.hl7.org/CodeSystem/v2-0203","code":"MR"}]},"system":"urn:fhirgen:mrn","value":"097-54-1996"}],"name":[{"use":"official","family":"Martinez","given":["Jeffrey"]},{"use":"maiden","family":"Rodriguez"}],"telecom":[{"system":"phone","value":"444-234-9294","use":"home"},{"system":"email","value":"brendasandoval@gmail.com","use":"mobile"}],"gender":"male","birthDate":"1950-06-30","address":[{"use":"home","line":["251 Steven Union"],"city":"New Christine","state":"MN","postalCode":"52684"},{"use":"old","line":["5888 Joy Squares"],"city":"New Ivanborough","state":"MT","postalCode":"43611"}]},"request":{"method":"POST","url":"Patient"}},{"fullUrl":"Observation/b3f4beac-b493-4bd5-8cb2-a4069bdf07a8","resource":{"resourceType":"Observation","id":"b3f4beac-b493-4bd5-8cb2-a4069bdf07a8","status":"final","code":{"coding":[{"system":"http://loinc.org","code":"47476-7"}]},"subject":{"reference":"Patient/f62e8dde-e6b7-4a60-ab73-2114b4f7aad7"},"effectiveDateTime":"2022-03-19T00:00:00+00:00","valueRatio":{"numerator":{"value":1},"denominator":{"value":4}}},"request":{"method":"POST","url":"Observation"}},{"fullUrl":"Observation/5d41054c-f7fb-47c1-8043-d0556663455b","resource":{"resourceType":"Observation","id":"5d41054c-f7fb-47c1-8043-d0556663455b","status":"final","code":{"coding":[{"system":"http://loinc.org","code":"47476-7"}]},"subject":{"reference":"Patient/f62e8dde-e6b7-4a60-ab73-2114b4f7aad7"},"effectiveDateTime":"2022-10-31T00:00:00+00:00","valueRatio":{"numerator":{"value":1},"denominator":{"value":4}}},"request":{"method":"POST","url":"Observation"}},{"fullUrl":"Condition/eb6dc13a-ff10-42f8-a352-ca6120e2eac1","resource":{"resourceType":"Condition","id":"eb6dc13a-ff10-42f8-a352-ca6120e2eac1","code":{"coding":[{"system":"http://snomed.info/sct","code":"30746006"}]},"subject":{"reference":"Patient/f62e8dde-e6b7-4a60-ab73-2114b4f7aad7"},"onsetDateTime":"2022-05-18T00:00:00+00:00"},"request":{"method":"POST","url":"Condition"}},{"fullUrl":"Condition/947bacfc-138e-48ea-a1cb-e412df457ee1","resource":{"resourceType":"Condition","id":"947bacfc-138e-48ea-a1cb-e412df457ee1","code":{"coding":[{"system":"http://snomed.info/sct","code":"271939006"}]},"subject":{"reference":"Patient/f62e8dde-e6b7-4a60-ab73-2114b4f7aad7"},"onsetDateTime":"2022-12-01T00:00:00+00:00"},"request":{"method":"POST","url":"Condition"}},{"fullUrl":"Condition/0fab097d-4493-4a81-ba84-a956c107b3d3","resource":{"resourceType":"Condition","id":"0fab097d-4493-4a81-ba84-a956c107b3d3","code":{"coding":[{"system":"http://snomed.info/sct","code":"71315007"}]},"subject":{"reference":"Patient/f62e8dde-e6b7-4a60-ab73-2114b4f7aad7"},"onsetDateTime":"2022-10-02T00:00:00+00:00"},"request":{"method":"POST","url":"Condition"}},{"fullUrl":"Observation/0ee37304-3b61-48db-8104-690b8914ea23","resource":{"resourceType":"Observation","id":"0ee37304-3b61-48db-8104-690b8914ea23","status":"final","code":{"coding":[{"system":"http://loinc.org","code":"49498-9"}]},"subject":{"reference":"Patient/f62e8dde-e6b7-4a60-ab73-2114b4f7aad7"},"effectiveDateTime":"2022-02-03T00:00:00+00:00","valueQuantity":{"value":10.2}},"request":{"method":"POST","url":"Observation"}},{"fullUrl":"Observation/23a730d7-7dff-4dd5-a96d-64b270842507","resource":{"resourceType":"Observation","id":"23a730d7-7dff-4dd5-a96d-64b270842507","status":"final","code":{"coding":[{"system":"http://loinc.org","code":"49498-9"}]},"subject":{"reference":"Patient/f62e8dde-e6b7-4a60-ab73-2114b4f7aad7"},"effectiveDateTime":"2022-12-29T00:00:00+00:00","valueQuantity":{"value":8.3}},"request":{"method":"POST","url":"Observation"}},{"fullUrl":"Observation/2bd9be28-4658-476b-8ff7-abda3ea5c5d8","resource":{"resourceType":"Observation","id":"2bd9be28-4658-476b-8ff7-abda3ea5c5d8","status":"final","code":{"coding":[{"system":"http://loinc.org","code":"6690-2"}]},"subject":{"reference":"Patient/f62e8dde-e6b7-4a60-ab73-2114b4f7aad7"},"effectiveDateTime":"2022-06-25T00:00:00+00:00","valueQuantity":{"value":7.1}},"request":{"method":"POST","url":"Observation"}},{"fullUrl":"Observation/ddc533cb-4a67-4d77-beb5-071e4def4e17","resource":{"resourceType":"Observation","id":"ddc533cb-4a67-4d77-beb5-071e4def4e17","status":"final","code":{"coding":[{"system":"http://loinc.org","code":"26464-8"}]},"subject":{"reference":"Patient/f62e8dde-e6b7-4a60-ab73-2114b4f7aad7"},"effectiveDateTime":"2022-01-26T00:00:00+00:00","valueCodeableConcept":{"coding":[{"system":"snomed","code":"123456","display":"fake snomed"}]}},"request":{"method":"POST","url":"Observation"}},{"fullUrl":"Observation/a05e759c-c5c1-4c6c-a4ac-5f55f1fa975f","resource":{"resourceType":"Observation","id":"a05e759c-c5c1-4c6c-a4ac-5f55f1fa975f","status":"final","code":{"coding":[{"system":"http://loinc.org","code":"6690-2"}]},"subject":{"reference":"Patient/f62e8dde-e6b7-4a60-ab73-2114b4f7aad7"},"effectiveDateTime":"2022-04-30T00:00:00+00:00","valueCodeableConcept":{"coding":[{"system":"snomed","code":"123456","display":"fake snomed"}]}},"request":{"method":"POST","url":"Observation"}},{"fullUrl":"Observation/468f7bf7-f637-4311-88cc-550b142a8ea6","resource":{"resourceType":"Observation","id":"468f7bf7-f637-4311-88cc-550b142a8ea6","status":"final","code":{"coding":[{"system":"http://loinc.org","code":"49498-9"}]},"subject":{"reference":"Patient/f62e8dde-e6b7-4a60-ab73-2114b4f7aad7"},"effectiveDateTime":"2022-04-11T00:00:00+00:00"},"request":{"method":"POST","url":"Observation"}},{"fullUrl":"Observation/e1e56ae3-0ed5-4442-9a65-6695f549f636","resource":{"resourceType":"Observation","id":"e1e56ae3-0ed5-4442-9a65-6695f549f636","status":"final","code":{"coding":[{"system":"http://loinc.org","code":"49498-9"}]},"subject":{"reference":"Patient/f62e8dde-e6b7-4a60-ab73-2114b4f7aad7"},"effectiveDateTime":"2022-05-15T00:00:00+00:00"},"request":{"method":"POST","url":"Observation"}},{"fullUrl":"Observation/51b6313c-e1d0-490f-bb79-aa410e562114","resource":{"resourceType":"Observation","id":"51b6313c-e1d0-490f-bb79-aa410e562114","status":"final","code":{"coding":[{"system":"http://loinc.org","code":"49498-9"}]},"subject":{"reference":"Patient/f62e8dde-e6b7-4a60-ab73-2114b4f7aad7"},"effectiveDateTime":"2022-04-13T00:00:00+00:00"},"request":{"method":"POST","url":"Observation"}},{"fullUrl":"Procedure/6ce2a992-287d-4757-967e-9adbf2388872","resource":{"resourceType":"Procedure","id":"6ce2a992-287d-4757-967e-9adbf2388872","status":"completed","code":{"coding":[{"system":"http://snomed.info/sct","code":"104001"}]},"subject":{"reference":"Patient/f62e8dde-e6b7-4a60-ab73-2114b4f7aad7"},"performedDateTime":"2022-06-19T00:00:00+00:00"},"request":{"method":"POST","url":"Procedure"}},{"fullUrl":"Procedure/0701b4ea-15ba-44b6-905b-50337863dd86","resource":{"resourceType":"Procedure","id":"0701b4ea-15ba-44b6-905b-50337863dd86","status":"completed","code":{"coding":[{"system":"http://snomed.info/sct","code":"115006"}]},"subject":{"reference":"Patient/f62e8dde-e6b7-4a60-ab73-2114b4f7aad7"},"performedDateTime":"2022-12-03T00:00:00+00:00"},"request":{"method":"POST","url":"Procedure"}},{"fullUrl":"Procedure/f6ef44a9-98cc-418c-a32f-d6cd656211e7","resource":{"resourceType":"Procedure","id":"f6ef44a9-98cc-418c-a32f-d6cd656211e7","status":"completed","code":{"coding":[{"system":"http://snomed.info/sct","code":"146005"}]},"subject":{"reference":"Patient/f62e8dde-e6b7-4a60-ab73-2114b4f7aad7"},"performedDateTime":"2022-03-15T00:00:00+00:00"},"request":{"method":"POST","url":"Procedure"}},{"fullUrl":"MedicationStatement/b33dc777-9de7-4929-b88e-ae789ddb2b9b","resource":{"resourceType":"MedicationStatement","id":"b33dc777-9de7-4929-b88e-ae789ddb2b9b","status":"completed","medicationCodeableConcept":{"coding":[{"system":"http://www.nlm.nih.gov/research/umls/rxnorm","code":"18631"}]},"subject":{"reference":"Patient/f62e8dde-e6b7-4a60-ab73-2114b4f7aad7"},"effectiveDateTime":"2022-11-22T00:00:00+00:00","dosage":[{"doseAndRate":[{"doseQuantity":{"value":1,"unit":"TAB","system":"http://terminology.hl7.org/CodeSystem/v3-orderableDrugForm","code":"TAB"}}]}]},"request":{"method":"POST","url":"MedicationStatement"}},{"fullUrl":"MedicationStatement/3d30c851-e11a-43ea-b5f2-58048ff284a8","resource":{"resourceType":"MedicationStatement","id":"3d30c851-e11a-43ea-b5f2-58048ff284a8","status":"completed","medicationCodeableConcept":{"coding":[{"system":"http://www.nlm.nih.gov/research/umls/rxnorm","code":"8698"}]},"subject":{"reference":"Patient/f62e8dde-e6b7-4a60-ab73-2114b4f7aad7"},"effectiveDateTime":"2022-06-20T00:00:00+00:00","dosage":[{"doseAndRate":[{"doseQuantity":{"value":1,"unit":"TAB","system":"http://terminology.hl7.org/CodeSystem/v3-orderableDrugForm","code":"TAB"}}]}]},"request":{"method":"POST","url":"MedicationStatement"}},{"fullUrl":"MedicationStatement/a26168f3-8af2-4812-9424-65544c1daeb9","resource":{"resourceType":"MedicationStatement","id":"a26168f3-8af2-4812-9424-65544c1daeb9","status":"completed","medicationCodeableConcept":{"coding":[{"system":"http://www.nlm.nih.gov/research/umls/rxnorm","code":"2193"}]},"subject":{"reference":"Patient/f62e8dde-e6b7-4a60-ab73-2114b4f7aad7"},"effectiveDateTime":"2022-04-05T00:00:00+00:00","dosage":[{"doseAndRate":[{"doseQuantity":{"value":1,"unit":"TAB","system":"http://terminology.hl7.org/CodeSystem/v3-orderableDrugForm","code":"TAB"}}]}]},"request":{"method":"POST","url":"MedicationStatement"}},{"fullUrl":"MedicationStatement/6ad96891-780e-44c3-a500-33b73d695204","resource":{"resourceType":"MedicationStatement","id":"6ad96891-780e-44c3-a500-33b73d695204","status":"completed","medicationCodeableConcept":{"coding":[{"system":"http://www.nlm.nih.gov/research/umls/rxnorm","code":"7980"}]},"subject":{"reference":"Patient/f62e8dde-e6b7-4a60-ab73-2114b4f7aad7"},"effectiveDateTime":"2022-11-11T00:00:00+00:00","dosage":[{"doseAndRate":[{"doseQuantity":{"value":2,"unit":"TAB","system":"http://terminology.hl7.org/CodeSystem/v3-orderableDrugForm","code":"TAB"}}]}]},"request":{"method":"POST","url":"MedicationStatement"}},{"fullUrl":"MedicationStatement/9c4385ca-0103-4f0c-b891-ee6f4eb85d07","resource":{"resourceType":"MedicationStatement","id":"9c4385ca-0103-4f0c-b891-ee6f4eb85d07","status":"completed","medicationCodeableConcept":{"coding":[{"system":"http://www.nlm.nih.gov/research/umls/rxnorm","code":"10395"}]},"subject":{"reference":"Patient/f62e8dde-e6b7-4a60-ab73-2114b4f7aad7"},"effectiveDateTime":"2022-08-22T00:00:00+00:00","dosage":[{"doseAndRate":[{"doseQuantity":{"value":1,"unit":"TAB","system":"http://terminology.hl7.org/CodeSystem/v3-orderableDrugForm","code":"TAB"}}]}]},"request":{"method":"POST","url":"MedicationStatement"}},{"fullUrl":"MedicationStatement/3f4b3d2c-dd19-4c46-985f-542f01580e7d","resource":{"resourceType":"MedicationStatement","id":"3f4b3d2c-dd19-4c46-985f-542f01580e7d","status":"completed","medicationCodeableConcept":{"coding":[{"system":"http://www.nlm.nih.gov/research/umls/rxnorm","code":"7980"}]},"subject":{"reference":"Patient/f62e8dde-e6b7-4a60-ab73-2114b4f7aad7"},"effectiveDateTime":"2022-10-05T00:00:00+00:00","dosage":[{"doseAndRate":[{"doseQuantity":{"value":2,"unit":"TAB","system":"http://terminology.hl7.org/CodeSystem/v3-orderableDrugForm","code":"TAB"}}]}]},"request":{"method":"POST","url":"MedicationStatement"}},{"fullUrl":"MedicationStatement/8ce63bb6-8598-47b8-b79c-7ade399d6ffa","resource":{"resourceType":"MedicationStatement","id":"8ce63bb6-8598-47b8-b79c-7ade399d6ffa","status":"completed","medicationCodeableConcept":{"coding":[{"system":"http://www.nlm.nih.gov/research/umls/rxnorm","code":"10395"}]},"subject":{"reference":"Patient/f62e8dde-e6b7-4a60-ab73-2114b4f7aad7"},"effectiveDateTime":"2022-07-02T00:00:00+00:00","dosage":[{"doseAndRate":[{"doseQuantity":{"value":1,"unit":"TAB","system":"http://terminology.hl7.org/CodeSystem/v3-orderableDrugForm","code":"TAB"}}]}]},"request":{"method":"POST","url":"MedicationStatement"}},{"fullUrl":"MedicationStatement/d5063650-ca3a-446c-b210-064ade243001","resource":{"resourceType":"MedicationStatement","id":"d5063650-ca3a-446c-b210-064ade243001","status":"completed","medicationCodeableConcept":{"coding":[{"system":"http://www.nlm.nih.gov/research/umls/rxnorm","code":"8698"}]},"subject":{"reference":"Patient/f62e8dde-e6b7-4a60-ab73-2114b4f7aad7"},"effectiveDateTime":"2022-10-20T00:00:00+00:00","dosage":[{"doseAndRate":[{"doseQuantity":{"value":1,"unit":"TAB","system":"http://terminology.hl7.org/CodeSystem/v3-orderableDrugForm","code":"TAB"}}]}]},"request":{"method":"POST","url":"MedicationStatement"}},{"fullUrl":"MedicationStatement/86bcca1c-d09f-4021-92bf-73ef86c5f511","resource":{"resourceType":"MedicationStatement","id":"86bcca1c-d09f-4021-92bf-73ef86c5f511","status":"completed","medicationCodeableConcept":{"coding":[{"system":"http://www.nlm.nih.gov/research/umls/rxnorm","code":"10395"}]},"subject":{"reference":"Patient/f62e8dde-e6b7-4a60-ab73-2114b4f7aad7"},"effectiveDateTime":"2022-02-05T00:00:00+00:00","dosage":[{"doseAndRate":[{"doseQuantity":{"value":4.6,"unit":"TAB","system":"http://terminology.hl7.org/CodeSystem/v3-orderableDrugForm","code":"TAB"}}]}]},"request":{"method":"POST","url":"MedicationStatement"}},{"fullUrl":"Encounter/174f8c91-3538-4b13-8877-6da4057f4468","resource":{"resourceType":"Encounter","id":"174f8c91-3538-4b13-8877-6da4057f4468","status":"finished","class":{"system":"http://terminology.hl7.org/CodeSystem/v3-ActCode","code":"IMP","display":"inpatient encounter"},"type":[{"coding":[{"system":"http://terminology.hl7.org/CodeSystem/encounter-type","code":"ADMS"}]}],"subject":{"reference":"Patient/f62e8dde-e6b7-4a60-ab73-2114b4f7aad7"},"period":{"start":"2022-03-20T00:00:00+00:00","end":"2022-03-26T00:00:00+00:00"}},"request":{"method":"POST","url":"Encounter"}},{"fullUrl":"Encounter/de1b7d09-98d8-4062-9a02-f539de5f631f","resource":{"resourceType":"Encounter","id":"de1b7d09-98d8-4062-9a02-f539de5f631f","status":"finished","class":{"system":"http://terminology.hl7.org/CodeSystem/v3-ActCode","code":"IMP","display":"inpatient encounter"},"type":[{"coding":[{"system":"http://terminology.hl7.org/CodeSystem/encounter-type","code":"BD/BM-clin"}]}],"subject":{"reference":"Patient/f62e8dde-e6b7-4a60-ab73-2114b4f7aad7"},"period":{"start":"2022-09-23T00:00:00+00:00","end":"2022-09-28T00:00:00+00:00"}},"request":{"method":"POST","url":"Encounter"}},{"fullUrl":"Encounter/2a73edc0-8eaf-412e-81e0-1954320c4588","resource":{"resourceType":"Encounter","id":"2a73edc0-8eaf-412e-81e0-1954320c4588","status":"finished","class":{"system":"http://terminology.hl7.org/CodeSystem/v3-ActCode","code":"OBSENC","display":"observation encounter"},"type":[{"coding":[{"system":"http://terminology.hl7.org/CodeSystem/encounter-type","code":"OKI"}]}],"subject":{"reference":"Patient/f62e8dde-e6b7-4a60-ab73-2114b4f7aad7"},"period":{"start":"2022-03-04T00:00:00+00:00","end":"2022-03-13T00:00:00+00:00"}},"request":{"method":"POST","url":"Encounter"}},{"fullUrl":"Encounter/ab498192-90a8-403b-8909-9458b6748e17","resource":{"resourceType":"Encounter","id":"ab498192-90a8-403b-8909-9458b6748e17","status":"finished","class":{"system":"http://terminology.hl7.org/CodeSystem/v3-ActCode","code":"PRENC","display":"pre-admission"},"type":[{"coding":[{"system":"http://terminology.hl7.org/CodeSystem/encounter-type","code":"BD/BM-clin"}]}],"subject":{"reference":"Patient/f62e8dde-e6b7-4a60-ab73-2114b4f7aad7"},"period":{"start":"2022-03-28T00:00:00+00:00","end":"2022-04-03T00:00:00+00:00"}},"request":{"method":"POST","url":"Encounter"}},{"fullUrl":"Encounter/0f7a7ab0-4e25-4c6f-879d-dcc823a1b812","resource":{"resourceType":"Encounter","id":"0f7a7ab0-4e25-4c6f-879d-dcc823a1b812","status":"finished","class":{"system":"http://terminology.hl7.org/CodeSystem/v3-ActCode","code":"ACUTE","display":"inpatient acute"},"type":[{"coding":[{"system":"http://terminology.hl7.org/CodeSystem/encounter-type","code":"CCS60"}]}],"subject":{"reference":"Patient/f62e8dde-e6b7-4a60-ab73-2114b4f7aad7"},"period":{"start":"2022-05-01T00:00:00+00:00","end":"2022-05-01T00:00:00+00:00"}},"request":{"method":"POST","url":"Encounter"}},{"fullUrl":"Patient/aed29a57-daff-4581-9176-b3b977fc683e","resource":{"resourceType":"Patient","id":"aed29a57-daff-4581-9176-b3b977fc683e","identifier":[{"type":{"coding":[{"system":"http://terminology.hl7.org/CodeSystem/v2-0203","code":"MR"}]},"system":"urn:fhirgen:mrn","value":"010-36-4018"}],"name":[{"use":"official","family":"Young","given":["Angela"]},{"use":"maiden","family":"Ramirez"}],"telecom":[{"system":"phone","value":"9718260789","use":"mobile"},{"system":"email","value":"brennansara@gmail.com","use":"mobile"}],"gender":"female","birthDate":"1965-03-04","address":[{"use":"home","line":["09471 Steven Ville Suite 309"],"city":"Saraville","state":"ID","postalCode":"43380"},{"use":"old","line":["16347 Lee Camp"],"city":"Castroberg","state":"AK","postalCode":"16450"}]},"request":{"method":"POST","url":"Patient"}},{"fullUrl":"Observation/2c358f58-2a2a-4e6f-ab9e-34d7a9d9bf26","resource":{"resourceType":"Observation","id":"2c358f58-2a2a-4e6f-ab9e-34d7a9d9bf26","status":"final","code":{"coding":[{"system":"http://loinc.org","code":"50690-7"}]},"subject":{"reference":"Patient/aed29a57-daff-4581-9176-b3b977fc683e"},"effectiveDateTime":"2022-05-27T00:00:00+00:00","valueRatio":{"numerator":{"value":1},"denominator":{"value":32}}},"request":{"method":"POST","url":"Observation"}},{"fullUrl":"Observation/0fe4f32e-0735-4b4d-b5d3-f95a9d1a1e53","resource":{"resourceType":"Observation","id":"0fe4f32e-0735-4b4d-b5d3-f95a9d1a1e53","status":"final","code":{"coding":[{"system":"http://loinc.org","code":"31146-4"}]},"subject":{"reference":"Patient/aed29a57-daff-4581-9176-b3b977fc683e"},"effectiveDateTime":"2022-08-03T00:00:00+00:00","valueRatio":{"numerator":{"value":1},"denominator":{"value":32}}},"request":{"method":"POST","url":"Observation"}},{"fullUrl":"Observation/57e6071e-02ab-45f6-b6fd-9a9f982dfb08","resource":{"resourceType":"Observation","id":"57e6071e-02ab-45f6-b6fd-9a9f982dfb08","status":"final","code":{"coding":[{"system":"http://loinc.org","code":"47476-7"}]},"subject":{"reference":"Patient/aed29a57-daff-4581-9176-b3b977fc683e"},"effectiveDateTime":"2022-01-14T00:00:00+00:00","valueRatio":{"numerator":{"value":1},"denominator":{"value":4}}},"request":{"method":"POST","url":"Observation"}},{"fullUrl":"Condition/4f4d52af-6672-43fe-aad6-a5ab2b77fd1a","resource":{"resourceType":"Condition","id":"4f4d52af-6672-43fe-aad6-a5ab2b77fd1a","code":{"coding":[{"system":"http://snomed.info/sct","code":"31070006"}]},"subject":{"reference":"Patient/aed29a57-daff-4581-9176-b3b977fc683e"},"onsetDateTime":"2022-12-05T00:00:00+00:00"},"request":{"method":"POST","url":"Condition"}},{"fullUrl":"Condition/1f85dcb0-158c-4f66-9361-0ea2123493f2","resource":{"resourceType":"Condition","id":"1f85dcb0-158c-4f66-9361-0ea2123493f2","code":{"coding":[{"system":"http://snomed.info/sct","code":"30746006"}]},"subject":{"reference":"Patient/aed29a57-daff-4581-9176-b3b977fc683e"},"onsetDateTime":"2022-06-07T00:00:00+00:00"},"request":{"method":"POST","url":"Condition"}},{"fullUrl":"Condition/c975a44b-9205-445e-a437-90d2f8200baf","resource":{"resourceType":"Condition","id":"c975a44b-9205-445e-a437-90d2f8200baf","code":{"coding":[{"system":"http://snomed.info/sct","code":"3951002"}]},"subject":{"reference":"Patient/aed29a57-daff-4581-9176-b3b977fc683e"},"onsetDateTime":"2022-03-01T00:00:00+00:00"},"request":{"method":"POST","url":"Condition"}},{"fullUrl":"Condition/439a7f3a-4a5f-4861-873a-f30b5d779091","resource":{"resourceType":"Condition","id":"439a7f3a-4a5f-4861-873a-f30b5d779091","code":{"coding":[{"system":"http://snomed.info/sct","code":"21522001"}]},"subject":{"reference":"Patient/aed29a57-daff-4581-9176-b3b977fc683e"},"onsetDateTime":"2022-11-11T00:00:00+00:00"},"request":{"method":"POST","url":"Condition"}},{"fullUrl":"Condition/80144df0-2c34-4399-a21f-6f20daf70ea4","resource":{"resourceType":"Condition","id":"80144df0-2c34-4399-a21f-6f20daf70ea4","code":{"coding":[{"system":"http://snomed.info/sct","code":"21522001"}]},"subject":{"reference":"Patient/aed29a57-daff-4581-9176-b3b977fc683e"},"onsetDateTime":"2022-05-23T00:00:00+00:00"},"request":{"method":"POST","url":"Condition"}},{"fullUrl":"Condition/a56550bf-299d-47a6-85db-7a968b6dfb87","resource":{"resourceType":"Condition","id":"a56550bf-299d-47a6-85db-7a968b6dfb87","code":{"coding":[{"system":"http://snomed.info/sct","code":"56317004"}]},"subject":{"reference":"Patient/aed29a57-daff-4581-9176-b3b977fc683e"},"onsetDateTime":"2022-08-15T00:00:00+00:00"},"request":{"method":"POST","url":"Condition"}},{"fullUrl":"Condition/ccf086f9-c56e-4a05-bc0d-01976498fc3c","resource":{"resourceType":"Condition","id":"ccf086f9-c56e-4a05-bc0d-01976498fc3c","code":{"coding":[{"system":"http://snomed.info/sct","code":"248980004"}]},"subject":{"reference":"Patient/aed29a57-daff-4581-9176-b3b977fc683e"},"onsetDateTime":"2022-12-12T00:00:00+00:00"},"request":{"method":"POST","url":"Condition"}},{"fullUrl":"Observation/406fd5ce-8e4c-46b6-b5e8-9d1fd146e905","resource":{"resourceType":"Observation","id":"406fd5ce-8e4c-46b6-b5e8-9d1fd146e905","status":"final","code":{"coding":[{"system":"http://www.ama-assn.org/go/cpt","code":"85048"}]},"subject":{"reference":"Patient/aed29a57-daff-4581-9176-b3b977fc683e"},"effectiveDateTime":"2022-09-27T00:00:00+00:00","valueQuantity":{"value":7.6}},"request":{"method":"POST","url":"Observation"}},{"fullUrl":"Observation/210704df-5ae1-43c7-a290-ca93a4b7423c","resource":{"resourceType":"Observation","id":"210704df-5ae1-43c7-a290-ca93a4b7423c","status":"final","code":{"coding":[{"system":"http://loinc.org","code":"804-5"}]},"subject":{"reference":"Patient/aed29a57-daff-4581-9176-b3b977fc683e"},"effectiveDateTime":"2022-04-13T00:00:00+00:00","valueQuantity":{"value":6}},"request":{"method":"POST","url":"Observation"}},{"fullUrl":"Observation/7bd419e8-d18a-4341-9ceb-89d01251e909","resource":{"resourceType":"Observation","id":"7bd419e8-d18a-4341-9ceb-89d01251e909","status":"final","code":{"coding":[{"system":"http://loinc.org","code":"6690-2"}]},"subject":{"reference":"Patient/aed29a57-daff-4581-9176-b3b977fc683e"},"effectiveDateTime":"2022-10-14T00:00:00+00:00","valueQuantity":{"value":8.8}},"request":{"method":"POST","url":"Observation"}},{"fullUrl":"Observation/b5bd5949-4c64-49e8-b248-44e6cc34d314","resource":{"resourceType":"Observation","id":"b5bd5949-4c64-49e8-b248-44e6cc34d314","status":"final","code":{"coding":[{"system":"http://www.ama-assn.org/go/cpt","code":"85048"}]},"subject":{"reference":"Patient/aed29a57-daff-4581-9176-b3b977fc683e"},"effectiveDateTime":"2022-04-12T00:00:00+00:00","valueCodeableConcept":{"coding":[{"system":"snomed","code":"123456","display":"fake snomed"}]}},"request":{"method":"POST","url":"Observation"}},{"fullUrl":"Observation/2a60a3cd-74ad-4b26-be61-67a8f1dd4b84","resource":{"resourceType":"Observation","id":"2a60a3cd-74ad-4b26-be61-67a8f1dd4b84","status":"final","code":{"coding":[{"system":"http://loinc.org","code":"26464-8"}]},"subject":{"reference":"Patient/aed29a57-daff-4581-9176-b3b977fc683e"},"effectiveDateTime":"2022-01-13T00:00:00+00:00","valueCodeableConcept":{"coding":[{"system":"snomed","code":"123456","display":"fake snomed"}]}},"request":{"method":"POST","url":"Observation"}},{"fullUrl":"Observation/ae036a52-2267-4763-a449-97c5768f313c","resource":{"resourceType":"Observation","id":"ae036a52-2267-4763-a449-97c5768f313c","status":"final","code":{"coding":[{"system":"http://loinc.org","code":"49498-9"}]},"subject":{"reference":"Patient/aed29a57-daff-4581-9176-b3b977fc683e"},"effectiveDateTime":"2022-07-31T00:00:00+00:00"},"request":{"method":"POST","url":"Observation"}},{"fullUrl":"Observation/f9a9cf0b-413d-44e2-aa81-eaca4754ee64","resource":{"resourceType":"Observation","id":"f9a9cf0b-413d-44e2-aa81-eaca4754ee64","status":"final","code":{"coding":[{"system":"http://loinc.org","code":"49498-9"}]},"subject":{"reference":"Patient/aed29a57-daff-4581-9176-b3b977fc683e"},"effectiveDateTime":"2022-07-11T00:00:00+00:00"},"request":{"method":"POST","url":"Observation"}},{"fullUrl":"Procedure/eae73158-9249-42ba-b1bd-285b03fa1e9e","resource":{"resourceType":"Procedure","id":"eae73158-9249-42ba-b1bd-285b03fa1e9e","status":"completed","code":{"coding":[{"system":"http://snomed.info/sct","code":"104001"}]},"subject":{"reference":"Patient/aed29a57-daff-4581-9176-b3b977fc683e"},"performedDateTime":"2022-10-23T00:00:00+00:00"},"request":{"method":"POST","url":"Procedure"}},{"fullUrl":"Procedure/ba5eeac8-4cb5-4a34-9c3f-2f07144bb02a","resource":{"resourceType":"Procedure","id":"ba5eeac8-4cb5-4a34-9c3f-2f07144bb02a","status":"completed","code":{"coding":[{"system":"http://snomed.info/sct","code":"104001"}]},"subject":{"reference":"Patient/aed29a57-daff-4581-9176-b3b977fc683e"},"performedDateTime":"2022-07-09T00:00:00+00:00"},"request":{"method":"POST","url":"Procedure"}},{"fullUrl":"Procedure/bd4c76e1-2107-46ac-afea-34ae14539bc0","resource":{"resourceType":"Procedure","id":"bd4c76e1-2107-46ac-afea-34ae14539bc0","status":"completed","code":{"coding":[{"system":"http://snomed.info/sct","code":"189009"}]},"subject":{"reference":"Patient/aed29a57-daff-4581-9176-b3b977fc683e"},"performedDateTime":"2022-09-18T00:00:00+00:00"},"request":{"method":"POST","url":"Procedure"}},{"fullUrl":"MedicationStatement/7b2668d6-50d6-4541-90a7-90f6813e65f9","resource":{"resourceType":"MedicationStatement","id":"7b2668d6-50d6-4541-90a7-90f6813e65f9","status":"completed","medicationCodeableConcept":{"coding":[{"system":"http://www.nlm.nih.gov/research/umls/rxnorm","code":"7984"}]},"subject":{"reference":"Patient/aed29a57-daff-4581-9176-b3b977fc683e"},"effectiveDateTime":"2022-12-12T00:00:00+00:00","dosage":[{"doseAndRate":[{"doseQuantity":{"value":2,"unit":"TAB","system":"http://terminology.hl7.org/CodeSystem/v3-orderableDrugForm","code":"TAB"}}]}]},"request":{"method":"POST","url":"MedicationStatement"}},{"fullUrl":"MedicationStatement/ea133b43-ba51-4e09-8a89-a9df2a20da4e","resource":{"resourceType":"MedicationStatement","id":"ea133b43-ba51-4e09-8a89-a9df2a20da4e","status":"completed","medicationCodeableConcept":{"coding":[{"system":"http://www.nlm.nih.gov/research/umls/rxnorm","code":"10395"}]},"subject":{"reference":"Patient/aed29a57-daff-4581-9176-b3b977fc683e"},"effectiveDateTime":"2022-01-24T00:00:00+00:00","dosage":[{"doseAndRate":[{"doseQuantity":{"value":1,"unit":"TAB","system":"http://terminology.hl7.org/CodeSystem/v3-orderableDrugForm","code":"TAB"}}]}]},"request":{"method":"POST","url":"MedicationStatement"}},{"fullUrl":"MedicationStatement/f7854d2e-2824-451e-b1c5-e7ee5ec3269f","resource":{"resourceType":"MedicationStatement","id":"f7854d2e-2824-451e-b1c5-e7ee5ec3269f","status":"completed","medicationCodeableConcept":{"coding":[{"system":"http://www.nlm.nih.gov/research/umls/rxnorm","code":"10395"}]},"subject":{"reference":"Patient/aed29a57-daff-4581-9176-b3b977fc683e"},"effectiveDateTime":"2022-10-15T00:00:00+00:00","dosage":[{"doseAndRate":[{"doseQuantity":{"value":2,"unit":"TAB","system":"http://terminology.hl7.org/CodeSystem/v3-orderableDrugForm","code":"TAB"}}]}]},"request":{"method":"POST","url":"MedicationStatement"}},{"fullUrl":"MedicationStatement/2a920f60-9e27-4b3b-85be-8f72b98a11e0","resource":{"resourceType":"MedicationStatement","id":"2a920f60-9e27-4b3b-85be-8f72b98a11e0","status":"completed","medicationCodeableConcept":{"coding":[{"system":"http://www.nlm.nih.gov/research/umls/rxnorm","code":"8698"}]},"subject":{"reference":"Patient/aed29a57-daff-4581-9176-b3b977fc683e"},"effectiveDateTime":"2022-02-27T00:00:00+00:00","dosage":[{"doseAndRate":[{"doseQuantity":{"value":2,"unit":"TAB","system":"http://terminology.hl7.org/CodeSystem/v3-orderableDrugForm","code":"TAB"}}]}]},"request":{"method":"POST","url":"MedicationStatement"}},{"fullUrl":"MedicationStatement/1f9de1bc-44d8-421e-96c0-7195330e007d","resource":{"resourceType":"MedicationStatement","id":"1f9de1bc-44d8-421e-96c0-7195330e007d","status":"completed","medicationCodeableConcept":{"coding":[{"system":"http://www.nlm.nih.gov/research/umls/rxnorm","code":"7984"}]},"subject":{"reference":"Patient/aed29a57-daff-4581-9176-b3b977fc683e"},"effectiveDateTime":"2022-05-20T00:00:00+00:00","dosage":[{"doseAndRate":[{"doseQuantity":{"value":2,"unit":"TAB","system":"http://terminology.hl7.org/CodeSystem/v3-orderableDrugForm","code":"TAB"}}]}]},"request":{"method":"POST","url":"MedicationStatement"}},{"fullUrl":"MedicationStatement/1906500b-d7ad-4d9d-b670-aab31e430711","resource":{"resourceType":"MedicationStatement","id":"1906500b-d7ad-4d9d-b670-aab31e430711","status":"completed","medicationCodeableConcept":{"coding":[{"system":"http://www.nlm.nih.gov/research/umls/rxnorm","code":"2193"}]},"subject":{"reference":"Patient/aed29a57-daff-4581-9176-b3b977fc683e"},"effectiveDateTime":"2022-10-10T00:00:00+00:00","dosage":[{"doseAndRate":[{"doseQuantity":{"value":2,"unit":"TAB","system":"http://terminology.hl7.org/CodeSystem/v3-orderableDrugForm","code":"TAB"}}]}]},"request":{"method":"POST","url":"MedicationStatement"}},{"fullUrl":"MedicationStatement/c339d93f-e095-4acf-8dbb-886bb7b09dc0","resource":{"resourceType":"MedicationStatement","id":"c339d93f-e095-4acf-8dbb-886bb7b09dc0","status":"completed","medicationCodeableConcept":{"coding":[{"system":"http://www.nlm.nih.gov/research/umls/rxnorm","code":"8698"}]},"subject":{"reference":"Patient/aed29a57-daff-4581-9176-b3b977fc683e"},"effectiveDateTime":"2022-10-29T00:00:00+00:00","dosage":[{"doseAndRate":[{"doseQuantity":{"value":6.8,"unit":"TAB","system":"http://terminology.hl7.org/CodeSystem/v3-orderableDrugForm","code":"TAB"}}]}]},"request":{"method":"POST","url":"MedicationStatement"}},{"fullUrl":"MedicationStatement/b0c7917f-c94f-435c-ac88-ceca4a1a4e0e","resource":{"resourceType":"MedicationStatement","id":"b0c7917f-c94f-435c-ac88-ceca4a1a4e0e","status":"completed","medicationCodeableConcept":{"coding":[{"system":"http://www.nlm.nih.gov/research/umls/rxnorm","code":"7984"}]},"subject":{"reference":"Patient/aed29a57-daff-4581-9176-b3b977fc683e"},"effectiveDateTime":"2022-03-27T00:00:00+00:00","dosage":[{"doseAndRate":[{"doseQuantity":{"value":6.4,"unit":"TAB","system":"http://terminology.hl7.org/CodeSystem/v3-orderableDrugForm","code":"TAB"}}]}]},"request":{"method":"POST","url":"MedicationStatement"}},{"fullUrl":"MedicationStatement/81277238-213a-4c39-b8d7-5ead03d4b2c1","resource":{"resourceType":"MedicationStatement","id":"81277238-213a-4c39-b8d7-5ead03d4b2c1","status":"completed","medicationCodeableConcept":{"coding":[{"system":"http://www.nlm.nih.gov/research/umls/rxnorm","code":"8698"}]},"subject":{"reference":"Patient/aed29a57-daff-4581-9176-b3b977fc683e"},"effectiveDateTime":"2022-01-23T00:00:00+00:00","dosage":[{"doseAndRate":[{"doseQuantity":{"value":6.4,"unit":"TAB","system":"http://terminology.hl7.org/CodeSystem/v3-orderableDrugForm","code":"TAB"}}]}]},"request":{"method":"POST","url":"MedicationStatement"}},{"fullUrl":"Encounter/c1fd82e6-c651-4c7a-ae35-17f45fd93379","resource":{"resourceType":"Encounter","id":"c1fd82e6-c651-4c7a-ae35-17f45fd93379","status":"finished","class":{"system":"http://terminology.hl7.org/CodeSystem/v3-ActCode","code":"IMP","display":"inpatient encounter"},"type":[{"coding":[{"system":"http://terminology.hl7.org/CodeSystem/encounter-type","code":"OKI"}]}],"subject":{"reference":"Patient/aed29a57-daff-4581-9176-b3b977fc683e"},"period":{"start":"2022-07-22T00:00:00+00:00","end":"2022-07-22T00:00:00+00:00"}},"request":{"method":"POST","url":"Encounter"}},{"fullUrl":"Encounter/5bde0f1b-ae57-4a70-8c7a-80138f5f21aa","resource":{"resourceType":"Encounter","id":"5bde0f1b-ae57-4a70-8c7a-80138f5f21aa","status":"finished","class":{"system":"http://terminology.hl7.org/CodeSystem/v3-ActCode","code":"IMP","display":"inpatient encounter"},"type":[{"coding":[{"system":"http://terminology.hl7.org/CodeSystem/encounter-type","code":"OKI"}]}],"subject":{"reference":"Patient/aed29a57-daff-4581-9176-b3b977fc683e"},"period":{"start":"2022-05-27T00:00:00+00:00","end":"2022-06-03T00:00:00+00:00"}},"request":{"method":"POST","url":"Encounter"}},{"fullUrl":"Encounter/118ff877-d269-487c-8366-e8ff03b1dcca","resource":{"resourceType":"Encounter","id":"118ff877-d269-487c-8366-e8ff03b1dcca","status":"finished","class":{"system":"http://terminology.hl7.org/CodeSystem/v3-ActCode","code":"IMP","display":"inpatient encounter"},"type":[{"coding":[{"system":"http://terminology.hl7.org/CodeSystem/encounter-type","code":"OKI"}]}],"subject":{"reference":"Patient/aed29a57-daff-4581-9176-b3b977fc683e"},"period":{"start":"2022-10-12T00:00:00+00:00","end":"2022-10-18T00:00:00+00:00"}},"request":{"method":"POST","url":"Encounter"}},{"fullUrl":"Encounter/bc6b691e-62b7-4230-9492-8bc81bc21e92","resource":{"resourceType":"Encounter","id":"bc6b691e-62b7-4230-9492-8bc81bc21e92","status":"finished","class":{"system":"http://terminology.hl7.org/CodeSystem/v3-ActCode","code":"IMP","display":"inpatient encounter"},"type":[{"coding":[{"system":"http://terminology.hl7.org/CodeSystem/encounter-type","code":"ADMS"}]}],"subject":{"reference":"Patient/aed29a57-daff-4581-9176-b3b977fc683e"},"period":{"start":"2022-08-01T00:00:00+00:00","end":"2022-08-06T00:00:00+00:00"}},"request":{"method":"POST","url":"Encounter"}},{"fullUrl":"Encounter/fdb2d4b8-55be-4e73-b403-35e11bcdff90","resource":{"resourceType":"Encounter","id":"fdb2d4b8-55be-4e73-b403-35e11bcdff90","status":"finished","class":{"system":"http://terminology.hl7.org/CodeSystem/v3-ActCode","code":"ACUTE","display":"inpatient acute"},"type":[{"coding":[{"system":"http://terminology.hl7.org/CodeSystem/encounter-type","code":"BD/BM-clin"}]}],"subject":{"reference":"Patient/aed29a57-daff-4581-9176-b3b977fc683e"},"period":{"start":"2022-02-25T00:00:00+00:00","end":"2022-03-03T00:00:00+00:00"}},"request":{"method":"POST","url":"Encounter"}},{"fullUrl":"Patient/45a313a1-60a4-440b-a7a7-70a538abbea8","resource":{"resourceType":"Patient","id":"45a313a1-60a4-440b-a7a7-70a538abbea8","identifier":[{"type":{"coding":[{"system":"http://terminology.hl7.org/CodeSystem/v2-0203","code":"MR"}]},"system":"urn:fhirgen:mrn","value":"148-62-6020"}],"name":[{"use":"official","family":"Small","given":["Stephanie"]},{"use":"maiden","family":"Cook"}],"telecom":[{"system":"phone","value":"985.997.9425","use":"work"},{"system":"email","value":"douglasperry@gmail.com","use":"work"}],"gender":"female","birthDate":"1945-12-04","address":[{"use":"home","line":["38224 Saunders Forest"],"city":"West Justinfurt","state":"WA","postalCode":"04292"},{"use":"old","line":["265 Thomas Fall Suite 042"],"city":"East Harryfort","state":"WA","postalCode":"36992"}]},"request":{"method":"POST","url":"Patient"}},{"fullUrl":"Observation/0f83fb95-1fd0-4023-8cd7-cd061bee94ae","resource":{"resourceType":"Observation","id":"0f83fb95-1fd0-4023-8cd7-cd061bee94ae","status":"final","code":{"coding":[{"system":"http://loinc.org","code":"87925-4"}]},"subject":{"reference":"Patient/45a313a1-60a4-440b-a7a7-70a538abbea8"},"effectiveDateTime":"2022-01-08T00:00:00+00:00","valueRatio":{"numerator":{"value":1},"denominator":{"value":64}}},"request":{"method":"POST","url":"Observation"}},{"fullUrl":"Observation/1d749f14-ceaf-4058-8f1b-a7c75c946008","resource":{"resourceType":"Observation","id":"1d749f14-ceaf-4058-8f1b-a7c75c946008","status":"final","code":{"coding":[{"system":"http://loinc.org","code":"5394-2"}]},"subject":{"reference":"Patient/45a313a1-60a4-440b-a7a7-70a538abbea8"},"effectiveDateTime":"2022-12-13T00:00:00+00:00","valueRatio":{"numerator":{"value":1},"denominator":{"value":64}}},"request":{"method":"POST","url":"Observation"}},{"fullUrl":"Observation/130ea444-7684-4707-b770-aea638b1629f","resource":{"resourceType":"Observation","id":"130ea444-7684-4707-b770-aea638b1629f","status":"final","code":{"coding":[{"system":"http://loinc.org","code":"26009-1"}]},"subject":{"reference":"Patient/45a313a1-60a4-440b-a7a7-70a538abbea8"},"effectiveDateTime":"2022-03-07T00:00:00+00:00","valueRatio":{"numerator":{"value":1},"denominator":{"value":32}}},"request":{"method":"POST","url":"Observation"}},{"fullUrl":"Condition/7f2ea8db-b95e-4f1a-aa49-aad2d6466934","resource":{"resourceType":"Condition","id":"7f2ea8db-b95e-4f1a-aa49-aad2d6466934","code":{"coding":[{"system":"http://snomed.info/sct","code":"709977002"}]},"subject":{"reference":"Patient/45a313a1-60a4-440b-a7a7-70a538abbea8"},"onsetDateTime":"2022-07-25T00:00:00+00:00"},"request":{"method":"POST","url":"Condition"}},{"fullUrl":"Condition/079c1ee3-f1c2-4c57-b5e8-8a63d4a7a443","resource":{"resourceType":"Condition","id":"079c1ee3-f1c2-4c57-b5e8-8a63d4a7a443","code":{"coding":[{"system":"http://snomed.info/sct","code":"386661006"}]},"subject":{"reference":"Patient/45a313a1-60a4-440b-a7a7-70a538abbea8"},"onsetDateTime":"2022-03-19T00:00:00+00:00"},"request":{"method":"POST","url":"Condition"}},{"fullUrl":"Condition/7c02ee09-64ac-4982-a38d-f6b135b6b714","resource":{"resourceType":"Condition","id":"7c02ee09-64ac-4982-a38d-f6b135b6b714","code":{"coding":[{"system":"http://snomed.info/sct","code":"736686006"}]},"subject":{"reference":"Patient/45a313a1-60a4-440b-a7a7-70a538abbea8"},"onsetDateTime":"2022-07-31T00:00:00+00:00"},"request":{"method":"POST","url":"Condition"}},{"fullUrl":"Observation/663441c0-59ff-418a-85e1-6a2b81e6456a","resource":{"resourceType":"Observation","id":"663441c0-59ff-418a-85e1-6a2b81e6456a","status":"final","code":{"coding":[{"system":"http://loinc.org","code":"804-5"}]},"subject":{"reference":"Patient/45a313a1-60a4-440b-a7a7-70a538abbea8"},"effectiveDateTime":"2022-01-21T00:00:00+00:00","valueQuantity":{"value":7.5}},"request":{"method":"POST","url":"Observation"}},{"fullUrl":"Observation/ebb3266a-811a-4532-a9fe-c44a3ffed46d","resource":{"resourceType":"Observation","id":"ebb3266a-811a-4532-a9fe-c44a3ffed46d","status":"final","code":{"coding":[{"system":"http://loinc.org","code":"49498-9"}]},"subject":{"reference":"Patient/45a313a1-60a4-440b-a7a7-70a538abbea8"},"effectiveDateTime":"2022-11-23T00:00:00+00:00","valueQuantity":{"value":10.7}},"request":{"method":"POST","url":"Observation"}},{"fullUrl":"Observation/be952286-572e-49bb-9487-8b534fd01f72","resource":{"resourceType":"Observation","id":"be952286-572e-49bb-9487-8b534fd01f72","status":"final","code":{"coding":[{"system":"http://www.ama-assn.org/go/cpt","code":"85048"}]},"subject":{"reference":"Patient/45a313a1-60a4-440b-a7a7-70a538abbea8"},"effectiveDateTime":"2022-11-14T00:00:00+00:00","valueCodeableConcept":{"coding":[{"system":"snomed","code":"123456","display":"fake snomed"}]}},"request":{"method":"POST","url":"Observation"}},{"fullUrl":"Observation/473d0396-7ae2-4323-b248-aae74c0f8678","resource":{"resourceType":"Observation","id":"473d0396-7ae2-4323-b248-aae74c0f8678","status":"final","code":{"coding":[{"system":"http://loinc.org","code":"49498-9"}]},"subject":{"reference":"Patient/45a313a1-60a4-440b-a7a7-70a538abbea8"},"effectiveDateTime":"2022-08-24T00:00:00+00:00","valueCodeableConcept":{"coding":[{"system":"snomed","code":"123456","display":"fake snomed"}]}},"request":{"method":"POST","url":"Observation"}},{"fullUrl":"Observation/56dc9180-66fb-460e-9770-7350ec255792","resource":{"resourceType":"Observation","id":"56dc9180-66fb-460e-9770-7350ec255792","status":"final","code":{"coding":[{"system":"http://loinc.org","code":"49498-9"}]},"subject":{"reference":"Patient/45a313a1-60a4-440b-a7a7-70a538abbea8"},"effectiveDateTime":"2022-02-11T00:00:00+00:00"},"request":{"method":"POST","url":"Observation"}},{"fullUrl":"Observation/e2253a73-f5a0-4ae6-bcc8-10d79cdbff54","resource":{"resourceType":"Observation","id":"e2253a73-f5a0-4ae6-bcc8-10d79cdbff54","status":"final","code":{"coding":[{"system":"http://loinc.org","code":"49498-9"}]},"subject":{"reference":"Patient/45a313a1-60a4-440b-a7a7-70a538abbea8"},"effectiveDateTime":"2022-04-02T00:00:00+00:00"},"request":{"method":"POST","url":"Observation"}},{"fullUrl":"Observation/9c934ab0-d78d-42ec-9423-6ca6e045b727","resource":{"resourceType":"Observation","id":"9c934ab0-d78d-42ec-9423-6ca6e045b727","status":"final","code":{"coding":[{"system":"http://loinc.org","code":"49498-9"}]},"subject":{"reference":"Patient/45a313a1-60a4-440b-a7a7-70a538abbea8"},"effectiveDateTime":"2022-10-10T00:00:00+00:00"},"request":{"method":"POST","url":"Observation"}},{"fullUrl":"Procedure/64711908-037a-4273-ad83-c706eb40f080","resource":{"resourceType":"Procedure","id":"64711908-037a-4273-ad83-c706eb40f080","status":"completed","code":{"coding":[{"system":"http://snomed.info/sct","code":"115006"}]},"subject":{"reference":"Patient/45a313a1-60a4-440b-a7a7-70a538abbea8"},"performedDateTime":"2022-05-16T00:00:00+00:00"},"request":{"method":"POST","url":"Procedure"}},{"fullUrl":"Procedure/68003e9d-09d1-4802-a0bc-ea80b5a7ff49","resource":{"resourceType":"Procedure","id":"68003e9d-09d1-4802-a0bc-ea80b5a7ff49","status":"completed","code":{"coding":[{"system":"http://snomed.info/sct","code":"104001"}]},"subject":{"reference":"Patient/45a313a1-60a4-440b-a7a7-70a538abbea8"},"performedDateTime":"2022-09-01T00:00:00+00:00"},"request":{"method":"POST","url":"Procedure"}},{"fullUrl":"Procedure/b04e35f3-242f-46e5-99b5-cf4a373a676d","resource":{"resourceType":"Procedure","id":"b04e35f3-242f-46e5-99b5-cf4a373a676d","status":"completed","code":{"coding":[{"system":"http://snomed.info/sct","code":"146005"}]},"subject":{"reference":"Patient/45a313a1-60a4-440b-a7a7-70a538abbea8"},"performedDateTime":"2022-04-16T00:00:00+00:00"},"request":{"method":"POST","url":"Procedure"}},{"fullUrl":"MedicationStatement/c0f52bc5-d35f-4148-84b1-fe2220371350","resource":{"resourceType":"MedicationStatement","id":"c0f52bc5-d35f-4148-84b1-fe2220371350","status":"completed","medicationCodeableConcept":{"coding":[{"system":"http://www.nlm.nih.gov/research/umls/rxnorm","code":"8698"}]},"subject":{"reference":"Patient/45a313a1-60a4-440b-a7a7-70a538abbea8"},"effectiveDateTime":"2022-09-10T00:00:00+00:00","dosage":[{"doseAndRate":[{"doseQuantity":{"value":2,"unit":"TAB","system":"http://terminology.hl7.org/CodeSystem/v3-orderableDrugForm","code":"TAB"}}]}]},"request":{"method":"POST","url":"MedicationStatement"}},{"fullUrl":"MedicationStatement/049bbe86-3b49-40d1-8a75-47a8bd7ce5e8","resource":{"resourceType":"MedicationStatement","id":"049bbe86-3b49-40d1-8a75-47a8bd7ce5e8","status":"completed","medicationCodeableConcept":{"coding":[{"system":"http://www.nlm.nih.gov/research/umls/rxnorm","code":"7984"}]},"subject":{"reference":"Patient/45a313a1-60a4-440b-a7a7-70a538abbea8"},"effectiveDateTime":"2022-08-12T00:00:00+00:00","dosage":[{"doseAndRate":[{"doseQuantity":{"value":1,"unit":"TAB","system":"http://terminology.hl7.org/CodeSystem/v3-orderableDrugForm","code":"TAB"}}]}]},"request":{"method":"POST","url":"MedicationStatement"}},{"fullUrl":"MedicationStatement/e667a538-b770-4054-a285-59b1839f2152","resource":{"resourceType":"MedicationStatement","id":"e667a538-b770-4054-a285-59b1839f2152","status":"completed","medicationCodeableConcept":{"coding":[{"system":"http://www.nlm.nih.gov/research/umls/rxnorm","code":"8698"}]},"subject":{"reference":"Patient/45a313a1-60a4-440b-a7a7-70a538abbea8"},"effectiveDateTime":"2022-10-10T00:00:00+00:00","dosage":[{"doseAndRate":[{"doseQuantity":{"value":2,"unit":"TAB","system":"http://terminology.hl7.org/CodeSystem/v3-orderableDrugForm","code":"TAB"}}]}]},"request":{"method":"POST","url":"MedicationStatement"}},{"fullUrl":"MedicationStatement/5af828ed-cf77-41a1-ad7c-8d6a75f0013c","resource":{"resourceType":"MedicationStatement","id":"5af828ed-cf77-41a1-ad7c-8d6a75f0013c","status":"completed","medicationCodeableConcept":{"coding":[{"system":"http://www.nlm.nih.gov/research/umls/rxnorm","code":"2193"}]},"subject":{"reference":"Patient/45a313a1-60a4-440b-a7a7-70a538abbea8"},"effectiveDateTime":"2022-05-19T00:00:00+00:00","dosage":[{"doseAndRate":[{"doseQuantity":{"value":2,"unit":"TAB","system":"http://terminology.hl7.org/CodeSystem/v3-orderableDrugForm","code":"TAB"}}]}]},"request":{"method":"POST","url":"MedicationStatement"}},{"fullUrl":"MedicationStatement/d236c2f6-8b3e-4dea-bd8b-fc02bf81a54b","resource":{"resourceType":"MedicationStatement","id":"d236c2f6-8b3e-4dea-bd8b-fc02bf81a54b","status":"completed","medicationCodeableConcept":{"coding":[{"system":"http://www.nlm.nih.gov/research/umls/rxnorm","code":"7984"}]},"subject":{"reference":"Patient/45a313a1-60a4-440b-a7a7-70a538abbea8"},"effectiveDateTime":"2022-06-05T00:00:00+00:00","dosage":[{"doseAndRate":[{"doseQuantity":{"value":2,"unit":"TAB","system":"http://terminology.hl7.org/CodeSystem/v3-orderableDrugForm","code":"TAB"}}]}]},"request":{"method":"POST","url":"MedicationStatement"}},{"fullUrl":"MedicationStatement/f5b81652-1f6f-4625-99dd-df66a1def5e1","resource":{"resourceType":"MedicationStatement","id":"f5b81652-1f6f-4625-99dd-df66a1def5e1","status":"completed","medicationCodeableConcept":{"coding":[{"system":"http://www.nlm.nih.gov/research/umls/rxnorm","code":"3640"}]},"subject":{"reference":"Patient/45a313a1-60a4-440b-a7a7-70a538abbea8"},"effectiveDateTime":"2022-03-09T00:00:00+00:00","dosage":[{"doseAndRate":[{"doseQuantity":{"value":1,"unit":"TAB","system":"http://terminology.hl7.org/CodeSystem/v3-orderableDrugForm","code":"TAB"}}]}]},"request":{"method":"POST","url":"MedicationStatement"}},{"fullUrl":"MedicationStatement/14bda910-add9-43d0-ae60-b7dc3a397932","resource":{"resourceType":"MedicationStatement","id":"14bda910-add9-43d0-ae60-b7dc3a397932","status":"completed","medicationCodeableConcept":{"coding":[{"system":"http://www.nlm.nih.gov/research/umls/rxnorm","code":"2193"}]},"subject":{"reference":"Patient/45a313a1-60a4-440b-a7a7-70a538abbea8"},"effectiveDateTime":"2022-11-14T00:00:00+00:00","dosage":[{"doseAndRate":[{"doseQuantity":{"value":1,"unit":"TAB","system":"http://terminology.hl7.org/CodeSystem/v3-orderableDrugForm","code":"TAB"}}]}]},"request":{"method":"POST","url":"MedicationStatement"}},{"fullUrl":"MedicationStatement/d06f7262-5d2c-470a-abb0-5d2ff4d10deb","resource":{"resourceType":"MedicationStatement","id":"d06f7262-5d2c-470a-abb0-5d2ff4d10deb","status":"completed","medicationCodeableConcept":{"coding":[{"system":"http://www.nlm.nih.gov/research/umls/rxnorm","code":"7984"}]},"subject":{"reference":"Patient/45a313a1-60a4-440b-a7a7-70a538abbea8"},"effectiveDateTime":"2022-02-15T00:00:00+00:00","dosage":[{"doseAndRate":[{"doseQuantity":{"value":4.2,"unit":"TAB","system":"http://terminology.hl7.org/CodeSystem/v3-orderableDrugForm","code":"TAB"}}]}]},"request":{"method":"POST","url":"MedicationStatement"}},{"fullUrl":"MedicationStatement/a4317955-6fa1-499b-b62a-722168624563","resource":{"resourceType":"MedicationStatement","id":"a4317955-6fa1-499b-b62a-722168624563","status":"completed","medicationCodeableConcept":{"coding":[{"system":"http://www.nlm.nih.gov/research/umls/rxnorm","code":"18631"}]},"subject":{"reference":"Patient/45a313a1-60a4-440b-a7a7-70a538abbea8"},"effectiveDateTime":"2022-09-12T00:00:00+00:00","dosage":[{"doseAndRate":[{"doseQuantity":{"value":3.2,"unit":"TAB","system":"http://terminology.hl7.org/CodeSystem/v3-orderableDrugForm","code":"TAB"}}]}]},"request":{"method":"POST","url":"MedicationStatement"}},{"fullUrl":"MedicationStatement/b0777ec2-3886-4a9f-95b4-0ddb1dac9ef1","resource":{"resourceType":"MedicationStatement","id":"b0777ec2-3886-4a9f-95b4-0ddb1dac9ef1","status":"completed","medicationCodeableConcept":{"coding":[{"system":"http://www.nlm.nih.gov/research/umls/rxnorm","code":"7984"}]},"subject":{"reference":"Patient/45a313a1-60a4-440b-a7a7-70a538abbea8"},"effectiveDateTime":"2022-01-29T00:00:00+00:00","dosage":[{"doseAndRate":[{"doseQuantity":{"value":4.7,"unit":"TAB","system":"http://terminology.hl7.org/CodeSystem/v3-orderableDrugForm","code":"TAB"}}]}]},"request":{"method":"POST","url":"MedicationStatement"}},{"fullUrl":"MedicationStatement/f4f33ac5-487b-41e1-ac77-811862ce223b","resource":{"resourceType":"MedicationStatement","id":"f4f33ac5-487b-41e1-ac77-811862ce223b","status":"completed","medicationCodeableConcept":{"coding":[{"system":"http://www.nlm.nih.gov/research/umls/rxnorm","code":"7980"}]},"subject":{"reference":"Patient/45a313a1-60a4-440b-a7a7-70a538abbea8"},"effectiveDateTime":"2022-02-24T00:00:00+00:00","dosage":[{"doseAndRate":[{"doseQuantity":{"value":6.8,"unit":"TAB","system":"http://terminology.hl7.org/CodeSystem/v3-orderableDrugForm","code":"TAB"}}]}]},"request":{"method":"POST","url":"MedicationStatement"}},{"fullUrl":"Encounter/122660fe-d27d-4c8f-abb9-9f3fe7fc57c3","resource":{"resourceType":"Encounter","id":"122660fe-d27d-4c8f-abb9-9f3fe7fc57c3","status":"finished","class":{"system":"http://terminology.hl7.org/CodeSystem/v3-ActCode","code":"IMP","display":"inpatient encounter"},"type":[{"coding":[{"system":"http://terminology.hl7.org/CodeSystem/encounter-type","code":"BD/BM-clin"}]}],"subject":{"reference":"Patient/45a313a1-60a4-440b-a7a7-70a538abbea8"},"period":{"start":"2022-12-20T00:00:00+00:00","end":"2022-12-27T00:00:00+00:00"}},"request":{"method":"POST","url":"Encounter"}},{"fullUrl":"Encounter/64e16e30-df51-431a-a3d1-c73b928c094a","resource":{"resourceType":"Encounter","id":"64e16e30-df51-431a-a3d1-c73b928c094a","status":"finished","class":{"system":"http://terminology.hl7.org/CodeSystem/v3-ActCode","code":"IMP","display":"inpatient encounter"},"type":[{"coding":[{"system":"http://terminology.hl7.org/CodeSystem/encounter-type","code":"CCS60"}]}],"subject":{"reference":"Patient/45a313a1-60a4-440b-a7a7-70a538abbea8"},"period":{"start":"2022-09-08T00:00:00+00:00","end":"2022-09-14T00:00:00+00:00"}},"request":{"method":"POST","url":"Encounter"}},{"fullUrl":"Encounter/4292e866-1f6f-4ea7-8362-f45cc1e0a565","resource":{"resourceType":"Encounter","id":"4292e866-1f6f-4ea7-8362-f45cc1e0a565","status":"finished","class":{"system":"http://terminology.hl7.org/CodeSystem/v3-ActCode","code":"EMER","display":"emergency"},"type":[{"coding":[{"system":"http://terminology.hl7.org/CodeSystem/encounter-type","code":"BD/BM-clin"}]}],"subject":{"reference":"Patient/45a313a1-60a4-440b-a7a7-70a538abbea8"},"period":{"start":"2022-03-06T00:00:00+00:00","end":"2022-03-11T00:00:00+00:00"}},"request":{"method":"POST","url":"Encounter"}},{"fullUrl":"Encounter/c2278480-046a-453b-a3f8-f4d7a4e96464","resource":{"resourceType":"Encounter","id":"c2278480-046a-453b-a3f8-f4d7a4e96464","status":"finished","class":{"system":"http://terminology.hl7.org/CodeSystem/v3-ActCode","code":"AMB","display":"ambulatory"},"type":[{"coding":[{"system":"http://terminology.hl7.org/CodeSystem/encounter-type","code":"BD/BM-clin"}]}],"subject":{"reference":"Patient/45a313a1-60a4-440b-a7a7-70a538abbea8"},"period":{"start":"2022-10-09T00:00:00+00:00","end":"2022-10-17T00:00:00+00:00"}},"request":{"method":"POST","url":"Encounter"}},{"fullUrl":"Patient/acedc7a0-4ff7-4be5-80b9-831ded60b20e","resource":{"resourceType":"Patient","id":"acedc7a0-4ff7-4be5-80b9-831ded60b20e","identifier":[{"type":{"coding":[{"system":"http://terminology.hl7.org/CodeSystem/v2-0203","code":"MR"}]},"system":"urn:fhirgen:mrn","value":"303-69-9550"}],"name":[{"use":"official","family":"Petersen","given":["Eric"]},{"use":"maiden","family":"Webster"}],"telecom":[{"system":"phone","value":"001-878-545-9768","use":"work"},{"system":"email","value":"mbrewer@gmail.com","use":"work"}],"gender":"other","birthDate":"1972-10-25","address":[{"use":"home","line":["567 Daniel Squares"],"city":"Smithfurt","state":"AK","postalCode":"51965"},{"use":"old","line":["236 Cassandra Islands"],"city":"New Brandonport","state":"KS","postalCode":"80284"}]},"request":{"method":"POST","url":"Patient"}},{"fullUrl":"Observation/913f4f85-b758-4e5d-882b-78b92a2ce99d","resource":{"resourceType":"Observation","id":"913f4f85-b758-4e5d-882b-78b92a2ce99d","status":"final","code":{"coding":[{"system":"http://loinc.org","code":"5394-2"}]},"subject":{"reference":"Patient/acedc7a0-4ff7-4be5-80b9-831ded60b20e"},"effectiveDateTime":"2022-03-14T00:00:00+00:00","valueRatio":{"numerator":{"value":1},"denominator":{"value":32}}},"request":{"method":"POST","url":"Observation"}},{"fullUrl":"Observation/037d87d2-32ae-4a6c-bb46-fa7021b25840","resource":{"resourceType":"Observation","id":"037d87d2-32ae-4a6c-bb46-fa7021b25840","status":"final","code":{"coding":[{"system":"http://loinc.org","code":"50695-6"}]},"subject":{"reference":"Patient/acedc7a0-4ff7-4be5-80b9-831ded60b20e"},"effectiveDateTime":"2022-03-26T00:00:00+00:00","valueRatio":{"numerator":{"value":1},"denominator":{"value":64}}},"request":{"method":"POST","url":"Observation"}},{"fullUrl":"Condition/452d6737-a3e7-45a5-a803-3bfc6811c2f2","resource":{"resourceType":"Condition","id":"452d6737-a3e7-45a5-a803-3bfc6811c2f2","code":{"coding":[{"system":"http://snomed.info/sct","code":"30746006"}]},"subject":{"reference":"Patient/acedc7a0-4ff7-4be5-80b9-831ded60b20e"},"onsetDateTime":"2022-06-27T00:00:00+00:00"},"request":{"method":"POST","url":"Condition"}},{"fullUrl":"Condition/8052b69d-d716-4883-888e-f86d15d68a72","resource":{"resourceType":"Condition","id":"8052b69d-d716-4883-888e-f86d15d68a72","code":{"coding":[{"system":"http://snomed.info/sct","code":"405737000"}]},"subject":{"reference":"Patient/acedc7a0-4ff7-4be5-80b9-831ded60b20e"},"onsetDateTime":"2022-02-06T00:00:00+00:00"},"request":{"method":"POST","url":"Condition"}},{"fullUrl":"Condition/c468fc12-04c7-4b62-b164-650f748fffe6","resource":{"resourceType":"Condition","id":"c468fc12-04c7-4b62-b164-650f748fffe6","code":{"coding":[{"system":"http://snomed.info/sct","code":"297123002"}]},"subject":{"reference":"Patient/acedc7a0-4ff7-4be5-80b9-831ded60b20e"},"onsetDateTime":"2022-05-20T00:00:00+00:00"},"request":{"method":"POST","url":"Condition"}},{"fullUrl":"Condition/84a4b3e8-2999-40d2-b665-37b2cda8a780","resource":{"resourceType":"Condition","id":"84a4b3e8-2999-40d2-b665-37b2cda8a780","code":{"coding":[{"system":"http://snomed.info/sct","code":"79342006"}]},"subject":{"reference":"Patient/acedc7a0-4ff7-4be5-80b9-831ded60b20e"},"onsetDateTime":"2022-12-04T00:00:00+00:00"},"request":{"method":"POST","url":"Condition"}},{"fullUrl":"Condition/f4b71e11-0549-428c-b03b-bb90b16c4d48","resource":{"resourceType":"Condition","id":"f4b71e11-0549-428c-b03b-bb90b16c4d48","code":{"coding":[{"system":"http://snomed.info/sct","code":"31070006"}]},"subject":{"reference":"Patient/acedc7a0-4ff7-4be5-80b9-831ded60b20e"},"onsetDateTime":"2022-11-20T00:00:00+00:00"},"request":{"method":"POST","url":"Condition"}},{"fullUrl":"Condition/cdebca36-10a3-4a31-8cbb-16659a62edb8","resource":{"resourceType":"Condition","id":"cdebca36-10a3-4a31-8cbb-16659a62edb8","code":{"coding":[{"system":"http://snomed.info/sct","code":"405737000"}]},"subject":{"reference":"Patient/acedc7a0-4ff7-4be5-80b9-831ded60b20e"},"onsetDateTime":"2022-11-14T00:00:00+00:00"},"request":{"method":"POST","url":"Condition"}},{"fullUrl":"Observation/34b8aece-1e88-4075-8271-6a638b2ba661","resource":{"resourceType":"Observation","id":"34b8aece-1e88-4075-8271-6a638b2ba661","status":"final","code":{"coding":[{"system":"http://loinc.org","code":"804-5"}]},"subject":{"reference":"Patient/acedc7a0-4ff7-4be5-80b9-831ded60b20e"},"effectiveDateTime":"2022-02-11T00:00:00+00:00","valueQuantity":{"value":5}},"request":{"method":"POST","url":"Observation"}},{"fullUrl":"Observation/d2c27129-0c66-4346-a916-b13dcccb704e","resource":{"resourceType":"Observation","id":"d2c27129-0c66-4346-a916-b13dcccb704e","status":"final","code":{"coding":[{"system":"http://www.ama-assn.org/go/cpt","code":"85048"}]},"subject":{"reference":"Patient/acedc7a0-4ff7-4be5-80b9-831ded60b20e"},"effectiveDateTime":"2022-08-16T00:00:00+00:00","valueQuantity":{"value":5.9}},"request":{"method":"POST","url":"Observation"}},{"fullUrl":"Observation/45e229c2-7dff-40e6-8792-b3d24d91630a","resource":{"resourceType":"Observation","id":"45e229c2-7dff-40e6-8792-b3d24d91630a","status":"final","code":{"coding":[{"system":"http://loinc.org","code":"26464-8"}]},"subject":{"reference":"Patient/acedc7a0-4ff7-4be5-80b9-831ded60b20e"},"effectiveDateTime":"2022-01-17T00:00:00+00:00","valueQuantity":{"value":10.1}},"request":{"method":"POST","url":"Observation"}},{"fullUrl":"Observation/6fe67ed1-a7ec-465a-9e0c-c4b936960b7a","resource":{"resourceType":"Observation","id":"6fe67ed1-a7ec-465a-9e0c-c4b936960b7a","status":"final","code":{"coding":[{"system":"http://www.ama-assn.org/go/cpt","code":"85048"}]},"subject":{"reference":"Patient/acedc7a0-4ff7-4be5-80b9-831ded60b20e"},"effectiveDateTime":"2022-01-22T00:00:00+00:00","valueCodeableConcept":{"coding":[{"system":"snomed","code":"123456","display":"fake snomed"}]}},"request":{"method":"POST","url":"Observation"}},{"fullUrl":"Observation/9350169a-9c00-457a-9757-357bd1a04243","resource":{"resourceType":"Observation","id":"9350169a-9c00-457a-9757-357bd1a04243","status":"final","code":{"coding":[{"system":"http://loinc.org","code":"804-5"}]},"subject":{"reference":"Patient/acedc7a0-4ff7-4be5-80b9-831ded60b20e"},"effectiveDateTime":"2022-11-16T00:00:00+00:00","valueCodeableConcept":{"coding":[{"system":"snomed","code":"123456","display":"fake snomed"}]}},"request":{"method":"POST","url":"Observation"}},{"fullUrl":"Observation/358fdd78-1aad-4ff0-9e40-e8cbff1fcf5d","resource":{"resourceType":"Observation","id":"358fdd78-1aad-4ff0-9e40-e8cbff1fcf5d","status":"final","code":{"coding":[{"system":"http://loinc.org","code":"49498-9"}]},"subject":{"reference":"Patient/acedc7a0-4ff7-4be5-80b9-831ded60b20e"},"effectiveDateTime":"2022-11-20T00:00:00+00:00"},"request":{"method":"POST","url":"Observation"}},{"fullUrl":"Observation/300bc5a1-bcf8-41ba-82a1-0856a52d9f4c","resource":{"resourceType":"Observation","id":"300bc5a1-bcf8-41ba-82a1-0856a52d9f4c","status":"final","code":{"coding":[{"system":"http://loinc.org","code":"49498-9"}]},"subject":{"reference":"Patient/acedc7a0-4ff7-4be5-80b9-831ded60b20e"},"effectiveDateTime":"2022-08-02T00:00:00+00:00"},"request":{"method":"POST","url":"Observation"}},{"fullUrl":"Procedure/69751552-daf3-44ec-893a-c8685eee52c4","resource":{"resourceType":"Procedure","id":"69751552-daf3-44ec-893a-c8685eee52c4","status":"completed","code":{"coding":[{"system":"http://snomed.info/sct","code":"146005"}]},"subject":{"reference":"Patient/acedc7a0-4ff7-4be5-80b9-831ded60b20e"},"performedDateTime":"2022-03-11T00:00:00+00:00"},"request":{"method":"POST","url":"Procedure"}},{"fullUrl":"Procedure/895ed29c-3b0d-4dd4-8bdc-7f7817cbe5c0","resource":{"resourceType":"Procedure","id":"895ed29c-3b0d-4dd4-8bdc-7f7817cbe5c0","status":"completed","code":{"coding":[{"system":"http://snomed.info/sct","code":"647000"}]},"subject":{"reference":"Patient/acedc7a0-4ff7-4be5-80b9-831ded60b20e"},"performedDateTime":"2022-03-10T00:00:00+00:00"},"request":{"method":"POST","url":"Procedure"}},{"fullUrl":"Procedure/d22d7ba8-782e-4166-ba14-46d222958c04","resource":{"resourceType":"Procedure","id":"d22d7ba8-782e-4166-ba14-46d222958c04","status":"completed","code":{"coding":[{"system":"http://snomed.info/sct","code":"104001"}]},"subject":{"reference":"Patient/acedc7a0-4ff7-4be5-80b9-831ded60b20e"},"performedDateTime":"2022-06-17T00:00:00+00:00"},"request":{"method":"POST","url":"Procedure"}},{"fullUrl":"MedicationStatement/c2fda213-a974-4e7e-b1a0-e31c29f7789e","resource":{"resourceType":"MedicationStatement","id":"c2fda213-a974-4e7e-b1a0-e31c29f7789e","status":"completed","medicationCodeableConcept":{"coding":[{"system":"http://www.nlm.nih.gov/research/umls/rxnorm","code":"7980"}]},"subject":{"reference":"Patient/acedc7a0-4ff7-4be5-80b9-831ded60b20e"},"effectiveDateTime":"2022-01-26T00:00:00+00:00","dosage":[{"doseAndRate":[{"doseQuantity":{"value":1,"unit":"TAB","system":"http://terminology.hl7.org/CodeSystem/v3-orderableDrugForm","code":"TAB"}}]}]},"request":{"method":"POST","url":"MedicationStatement"}},{"fullUrl":"MedicationStatement/0182a043-7aea-4a22-88fe-bb381ac08d24","resource":{"resourceType":"MedicationStatement","id":"0182a043-7aea-4a22-88fe-bb381ac08d24","status":"completed","medicationCodeableConcept":{"coding":[{"system":"http://www.nlm.nih.gov/research/umls/rxnorm","code":"7984"}]},"subject":{"reference":"Patient/acedc7a0-4ff7-4be5-80b9-831ded60b20e"},"effectiveDateTime":"2022-12-30T00:00:00+00:00","dosage":[{"doseAndRate":[{"doseQuantity":{"value":2,"unit":"TAB","system":"http://terminology.hl7.org/CodeSystem/v3-orderableDrugForm","code":"TAB"}}]}]},"request":{"method":"POST","url":"MedicationStatement"}},{"fullUrl":"MedicationStatement/8359c9cb-7197-4854-bb35-08df1a90a2e3","resource":{"resourceType":"MedicationStatement","id":"8359c9cb-7197-4854-bb35-08df1a90a2e3","status":"completed","medicationCodeableConcept":{"coding":[{"system":"http://www.nlm.nih.gov/research/umls/rxnorm","code":"8698"}]},"subject":{"reference":"Patient/acedc7a0-4ff7-4be5-80b9-831ded60b20e"},"effectiveDateTime":"2022-08-08T00:00:00+00:00","dosage":[{"doseAndRate":[{"doseQuantity":{"value":1,"unit":"TAB","system":"http://terminology.hl7.org/CodeSystem/v3-orderableDrugForm","code":"TAB"}}]}]},"request":{"method":"POST","url":"MedicationStatement"}},{"fullUrl":"MedicationStatement/616c8876-0ee5-4197-a4a6-2624878ca64c","resource":{"resourceType":"MedicationStatement","id":"616c8876-0ee5-4197-a4a6-2624878ca64c","status":"completed","medicationCodeableConcept":{"coding":[{"system":"http://www.nlm.nih.gov/research/umls/rxnorm","code":"7984"}]},"subject":{"reference":"Patient/acedc7a0-4ff7-4be5-80b9-831ded60b20e"},"effectiveDateTime":"2022-07-16T00:00:00+00:00","dosage":[{"doseAndRate":[{"doseQuantity":{"value":1,"unit":"TAB","system":"http://terminology.hl7.org/CodeSystem/v3-orderableDrugForm","code":"TAB"}}]}]},"request":{"method":"POST","url":"MedicationStatement"}},{"fullUrl":"MedicationStatement/d6ce2bfa-245a-4dd6-85e0-3481b3953a9b","resource":{"resourceType":"MedicationStatement","id":"d6ce2bfa-245a-4dd6-85e0-3481b3953a9b","status":"completed","medicationCodeableConcept":{"coding":[{"system":"http://www.nlm.nih.gov/research/umls/rxnorm","code":"8698"}]},"subject":{"reference":"Patient/acedc7a0-4ff7-4be5-80b9-831ded60b20e"},"effectiveDateTime":"2022-02-28T00:00:00+00:00","dosage":[{"doseAndRate":[{"doseQuantity":{"value":3.1,"unit":"TAB","system":"http://terminology.hl7.org/CodeSystem/v3-orderableDrugForm","code":"TAB"}}]}]},"request":{"method":"POST","url":"MedicationStatement"}},{"fullUrl":"MedicationStatement/a2925bb6-3b7b-40a2-9328-8bc93d1832d8","resource":{"resourceType":"MedicationStatement","id":"a2925bb6-3b7b-40a2-9328-8bc93d1832d8","status":"completed","medicationCodeableConcept":{"coding":[{"system":"http://www.nlm.nih.gov/research/umls/rxnorm","code":"10395"}]},"subject":{"reference":"Patient/acedc7a0-4ff7-4be5-80b9-831ded60b20e"},"effectiveDateTime":"2022-12-15T00:00:00+00:00","dosage":[{"doseAndRate":[{"doseQuantity":{"value":6.3,"unit":"TAB","system":"http://terminology.hl7.org/CodeSystem/v3-orderableDrugForm","code":"TAB"}}]}]},"request":{"method":"POST","url":"MedicationStatement"}},{"fullUrl":"MedicationStatement/785c36dd-a3f2-4204-bcd0-045d28d7f7b9","resource":{"resourceType":"MedicationStatement","id":"785c36dd-a3f2-4204-bcd0-045d28d7f7b9","status":"completed","medicationCodeableConcept":{"coding":[{"system":"http://www.nlm.nih.gov/research/umls/rxnorm","code":"3640"}]},"subject":{"reference":"Patient/acedc7a0-4ff7-4be5-80b9-831ded60b20e"},"effectiveDateTime":"2022-12-28T00:00:00+00:00","dosage":[{"doseAndRate":[{"doseQuantity":{"value":5,"unit":"TAB","system":"http://terminology.hl7.org/CodeSystem/v3-orderableDrugForm","code":"TAB"}}]}]},"request":{"method":"POST","url":"MedicationStatement"}},{"fullUrl":"MedicationStatement/1f8a38f2-b86f-45ad-bb21-74fb41bf6ad4","resource":{"resourceType":"MedicationStatement","id":"1f8a38f2-b86f-45ad-bb21-74fb41bf6ad4","status":"completed","medicationCodeableConcept":{"coding":[{"system":"http://www.nlm.nih.gov/research/umls/rxnorm","code":"2193"}]},"subject":{"reference":"Patient/acedc7a0-4ff7-4be5-80b9-831ded60b20e"},"effectiveDateTime":"2022-12-14T00:00:00+00:00","dosage":[{"doseAndRate":[{"doseQuantity":{"value":4.9,"unit":"TAB","system":"http://terminology.hl7.org/CodeSystem/v3-orderableDrugForm","code":"TAB"}}]}]},"request":{"method":"POST","url":"MedicationStatement"}},{"fullUrl":"Encounter/8a6bf8e8-15fb-48e8-8811-4baa3207b74e","resource":{"resourceType":"Encounter","id":"8a6bf8e8-15fb-48e8-8811-4baa3207b74e","status":"finished","class":{"system":"http://terminology.hl7.org/CodeSystem/v3-ActCode","code":"IMP","display":"inpatient encounter"},"type":[{"coding":[{"system":"http://terminology.hl7.org/CodeSystem/encounter-type","code":"BD/BM-clin"}]}],"subject":{"reference":"Patient/acedc7a0-4ff7-4be5-80b9-831ded60b20e"},"period":{"start":"2022-12-10T00:00:00+00:00","end":"2022-12-17T00:00:00+00:00"}},"request":{"method":"POST","url":"Encounter"}},{"fullUrl":"Encounter/acfeb666-d8a0-43c9-abf9-e3099ff57efa","resource":{"resourceType":"Encounter","id":"acfeb666-d8a0-43c9-abf9-e3099ff57efa","status":"finished","class":{"system":"http://terminology.hl7.org/CodeSystem/v3-ActCode","code":"IMP","display":"inpatient encounter"},"type":[{"coding":[{"system":"http://terminology.hl7.org/CodeSystem/encounter-type","code":"ADMS"}]}],"subject":{"reference":"Patient/acedc7a0-4ff7-4be5-80b9-831ded60b20e"},"period":{"start":"2022-09-06T00:00:00+00:00","end":"2022-09-11T00:00:00+00:00"}},"request":{"method":"POST","url":"Encounter"}},{"fullUrl":"Encounter/aeae35f4-d859-4077-8dd1-ac677808c8e4","resource":{"resourceType":"Encounter","id":"aeae35f4-d859-4077-8dd1-ac677808c8e4","status":"finished","class":{"system":"http://terminology.hl7.org/CodeSystem/v3-ActCode","code":"IMP","display":"inpatient encounter"},"type":[{"coding":[{"system":"http://terminology.hl7.org/CodeSystem/encounter-type","code":"BD/BM-clin"}]}],"subject":{"reference":"Patient/acedc7a0-4ff7-4be5-80b9-831ded60b20e"},"period":{"start":"2022-11-19T00:00:00+00:00","end":"2022-11-23T00:00:00+00:00"}},"request":{"method":"POST","url":"Encounter"}},{"fullUrl":"Encounter/1534708c-66f4-4767-85bd-e204c751d34d","resource":{"resourceType":"Encounter","id":"1534708c-66f4-4767-85bd-e204c751d34d","status":"finished","class":{"system":"http://terminology.hl7.org/CodeSystem/v3-ActCode","code":"VR","display":"virtual"},"type":[{"coding":[{"system":"http://terminology.hl7.org/CodeSystem/encounter-type","code":"OKI"}]}],"subject":{"reference":"Patient/acedc7a0-4ff7-4be5-80b9-831ded60b20e"},"period":{"start":"2022-02-16T00:00:00+00:00","end":"2022-02-21T00:00:00+00:00"}},"request":{"method":"POST","url":"Encounter"}},{"fullUrl":"Encounter/ac8ea053-4835-4e4a-8ae4-929d581a38c9","resource":{"resourceType":"Encounter","id":"ac8ea053-4835-4e4a-8ae4-929d581a38c9","status":"finished","class":{"system":"http://terminology.hl7.org/CodeSystem/v3-ActCode","code":"OBSENC","display":"observation encounter"},"type":[{"coding":[{"system":"http://terminology.hl7.org/CodeSystem/encounter-type","code":"BD/BM-clin"}]}],"subject":{"reference":"Patient/acedc7a0-4ff7-4be5-80b9-831ded60b20e"},"period":{"start":"2022-08-25T00:00:00+00:00","end":"2022-08-27T00:00:00+00:00"}},"request":{"method":"POST","url":"Encounter"}}]}