{"resourceType":"Bundle","id":"8f0b5fa6-b796-435d-bceb-0a9785e6b7ee","type":"collection","entry":[{"fullUrl":"Patient/e002335b-917a-4f38-9e57-b1f96cdd6b11","resource":{"resourceType":"Patient","id":"e002335b-917a-4f38-9e57-b1f96cdd6b11","meta":{"profile":["http://hl7.org/fhir/us/core/StructureDefinition/us-core-patient"]},"identifier":[{"type":{"coding":[{"system":"http://terminology.hl7.org/CodeSystem/v2-0203","code":"MR"}]},"system":"urn:fhirgen:mrn","value":"118-61-8111"}],"name":[{"family":"Hodge","given":["Scott"]}],"gender":"male","birthDate":"1951-07-02","address":[{"line":["973 Ruth Drive"],"city":"Ashleyport","state":"Hawaii"}]}},{"fullUrl":"Observation/23831512-6b20-4680-913d-9188877fd4d6","resource":{"resourceType":"Observation","id":"23831512-6b20-4680-913d-9188877fd4d6","meta":{"profile":["http://hl7.org/fhir/us/core/StructureDefinition/us-core-observation-lab"]},"status":"final","category":[{"coding":[{"system":"http://terminology.hl7.org/CodeSystem/observation-category","code":"laboratory","display":"Laboratory"}]}],"code":{"coding":[{"system":"http://loinc.org","code":"51475-2"}]},"subject":{"reference":"Patient/e002335b-917a-4f38-9e57-b1f96cdd6b11"},"effectiveDateTime":"2022-05-25T00:00:00+00:00","valueRatio":{"numerator":{"value":1.0},"denominator":{"value":64.0}}}},{"fullUrl":"Observation/d90ab170-9df2-4349-a967-9f470d898f15","resource":{"resourceType":"Observation","id":"d90ab170-9df2-4349-a967-9f470d898f15","meta":{"profile":["http://hl7.org/fhir/us/core/StructureDefinition/us-core-observation-lab"]},"status":"final","category":[{"coding":[{"system":"http://terminology.hl7.org/CodeSystem/observation-category","code":"laboratory","display":"Laboratory"}]}],"code":{"coding":[{"system":"http://loinc.org","code":"26009-1"}]},"subject":{"reference":"Patient/e002335b-917a-4f38-9e57-b1f96cdd6b11"},"effectiveDateTime":"2022-11-14T00:00:00+00:00","valueRatio":{"numerator":{"value":1.0},"denominator":{"value":64.0}}}},{"fullUrl":"Observation/468b1475-d5e3-4a50-adc9-d33298cadc08","resource":{"resourceType":"Observation","id":"468b1475-d5e3-4a50-adc9-d33298cadc08","meta":{"profile":["http://hl7.org/fhir/us/core/StructureDefinition/us-core-observation-lab"]},"status":"final","category":[{"coding":[{"system":"http://terminology.hl7.org/CodeSystem/observation-category","code":"laboratory","display":"Laboratory"}]}],"code":{"coding":[{"system":"http://loinc.org","code":"11084-1"}]},"subject":{"reference":"Patient/e002335b-917a-4f38-9e57-b1f96cdd6b11"},"effectiveDateTime":"2022-11-15T00:00:00+00:00","valueRatio":{"numerator":{"value":1.0},"denominator":{"value":32.0}}}},{"fullUrl":"Condition/eda33089-4549-4940-ad64-b45aefde2535","resource":{"resourceType":"Condition","id":"eda33089-4549-4940-ad64-b45aefde2535","meta":{"profile":["http://hl7.org/fhir/us/core/StructureDefinition/us-core-condition"]},"clinicalStatus":{"coding":[{"system":"http://terminology.hl7.org/CodeSystem/condition-clinical","code":"active","display":"Active"}]},"category":[{"coding":[{"system":"http://terminology.hl7.org/CodeSystem/condition-ver-status","code":"confirmed"}]}],"code":{"coding":[{"system":"http://snomed.info/sct","code":"709977002"}]},"subject":{"reference":"Patient/e002335b-917a-4f38-9e57-b1f96cdd6b11"},"onsetDateTime":"2022-04-12T00:00:00+00:00"}},{"fullUrl":"Condition/92441902-973b-4bfa-9838-baad2dba0063","resource":{"resourceType":"Condition","id":"92441902-973b-4bfa-9838-baad2dba0063","meta":{"profile":["http://hl7.org/fhir/us/core/StructureDefinition/us-core-condition"]},"clinicalStatus":{"coding":[{"system":"http://terminology.hl7.org/CodeSystem/condition-clinical","code":"active","display":"Active"}]},"category":[{"coding":[{"system":"http://terminology.hl7.org/CodeSystem/condition-ver-status","code":"confirmed"}]}],"code":{"coding":[{"system":"http://snomed.info/sct","code":"91554004"}]},"subject":{"reference":"Patient/e002335b-917a-4f38-9e57-b1f96cdd6b11"},"onsetDateTime":"2022-12-21T00:00:00+00:00"}},{"fullUrl":"Condition/8f3187c0-5d0a-4e65-9ba1-a1701f3dd1e9","resource":{"resourceType":"Condition","id":"8f3187c0-5d0a-4e65-9ba1-a1701f3dd1e9","meta":{"profile":["http://hl7.org/fhir/us/core/StructureDefinition/us-core-condition"]},"clinicalStatus":{"coding":[{"system":"http://terminology.hl7.org/CodeSystem/condition-clinical","code":"active","display":"Active"}]},"category":[{"coding":[{"system":"http://terminology.hl7.org/CodeSystem/condition-ver-status","code":"confirmed"}]}],"code":{"coding":[{"system":"http://snomed.info/sct","code":"709977002"}]},"subject":{"reference":"Patient/e002335b-917a-4f38-9e57-b1f96cdd6b11"},"onsetDateTime":"2022-09-18T00:00:00+00:00"}},{"fullUrl":"Condition/db88c41c-388c-4587-a53c-bf1cffebee12","resource":{"resourceType":"Condition","id":"db88c41c-388c-4587-a53c-bf1cffebee12","meta":{"profile":["http://hl7.org/fhir/us/core/StructureDefinition/us-core-condition"]},"clinicalStatus":{"coding":[{"system":"http://terminology.hl7.org/CodeSystem/condition-clinical","code":"active","display":"Active"}]},"category":[{"coding":[{"system":"http://terminology.hl7.org/CodeSystem/condition-ver-status","code":"confirmed"}]}],"code":{"coding":[{"system":"http://snomed.info/sct","code":"91554004"}]},"subject":{"reference":"Patient/e002335b-917a-4f38-9e57-b1f96cdd6b11"},"onsetDateTime":"2022-05-04T00:00:00+00:00"}},{"fullUrl":"Observation/a946d0ff-fde2-4fcf-b515-49841fa0c128","resource":{"resourceType":"Observation","id":"a946d0ff-fde2-4fcf-b515-49841fa0c128","meta":{"profile":["http://hl7.org/fhir/us/core/StructureDefinition/us-core-observation-lab"]},"status":"final","category":[{"coding":[{"system":"http://terminology.hl7.org/CodeSystem/observation-category","code":"laboratory","display":"Laboratory"}]}],"code":{"coding":[{"system":"http://www.ama-assn.org/go/cpt","code":"85048"}]},"subject":{"reference":"Patient/e002335b-917a-4f38-9e57-b1f96cdd6b11"},"effectiveDateTime":"2022-08-02T00:00:00+00:00","valueQuantity":{"value":7.7}}},{"fullUrl":"Observation/7735e880-6d58-4d95-8cb6-82847fa829d2","resource":{"resourceType":"Observation","id":"7735e880-6d58-4d95-8cb6-82847fa829d2","meta":{"profile":["http://hl7.org/fhir/us/core/StructureDefinition/us-core-observation-lab"]},"status":"final","category":[{"coding":[{"system":"http://terminology.hl7.org/CodeSystem/observation-category","code":"laboratory","display":"Laboratory"}]}],"code":{"coding":[{"system":"http://loinc.org","code":"804-5"}]},"subject":{"reference":"Patient/e002335b-917a-4f38-9e57-b1f96cdd6b11"},"effectiveDateTime":"2022-07-27T00:00:00+00:00","valueQuantity":{"value":6.6}}},{"fullUrl":"Observation/d0c92516-34dd-4a78-ba5f-29d6f30f11aa","resource":{"resourceType":"Observation","id":"d0c92516-34dd-4a78-ba5f-29d6f30f11aa","meta":{"profile":["http://hl7.org/fhir/us/core/StructureDefinition/us-core-observation-lab"]},"status":"final","category":[{"coding":[{"system":"http://terminology.hl7.org/CodeSystem/observation-category","code":"laboratory","display":"Laboratory"}]}],"code":{"coding":[{"system":"http://loinc.org","code":"26464-8"}]},"subject":{"reference":"Patient/e002335b-917a-4f38-9e57-b1f96cdd6b11"},"effectiveDateTime":"2022-10-04T00:00:00+00:00","valueQuantity":{"value":9.8}}},{"fullUrl":"Observation/a23ead82-7d84-4427-90f5-5ba0b37304a4","resource":{"resourceType":"Observation","id":"a23ead82-7d84-4427-90f5-5ba0b37304a4","meta":{"profile":["http://hl7.org/fhir/us/core/StructureDefinition/us-core-bmi"]},"status":"final","category":[{"coding":[{"system":"http://terminology.hl7.org/CodeSystem/observation-category","code":"vital-signs","display":"Vital Signs"}]}],"code":{"coding":[{"system":"http://loinc.org","code":"39156-5"}]},"subject":{"reference":"Patient/e002335b-917a-4f38-9e57-b1f96cdd6b11"},"effectiveDateTime":"2022-04-06T00:00:00+00:00","valueQuantity":{"value":21.49,"unit":"kg/m2","system":"http://unitsofmeasure.org","code":"kg/m2"}}},{"fullUrl":"Observation/0c3e7c33-a871-46cc-bd15-3b4834138d5e","resource":{"resourceType":"Observation","id":"0c3e7c33-a871-46cc-bd15-3b4834138d5e","meta":{"profile":["http://hl7.org/fhir/us/core/StructureDefinition/us-core-head-circumference"]},"status":"final","category":[{"coding":[{"system":"http://terminology.hl7.org/CodeSystem/observation-category","code":"vital-signs","display":"Vital Signs"}]}],"code":{"coding":[{"system":"http://loinc.org","code":"9843-4"}]},"subject":{"reference":"Patient/e002335b-917a-4f38-9e57-b1f96cdd6b11"},"effectiveDateTime":"2022-10-17T00:00:00+00:00","valueQuantity":{"value":3.6,"unit":"Inch","system":"http://unitsofmeasure.org","code":"[in_i]"}}},{"fullUrl":"Observation/5ae8d0e3-c028-4c60-9839-ff4fb1188ff5","resource":{"resourceType":"Observation","id":"5ae8d0e3-c028-4c60-9839-ff4fb1188ff5","meta":{"profile":["http://hl7.org/fhir/us/core/StructureDefinition/us-core-body-height"]},"status":"final","category":[{"coding":[{"system":"http://terminology.hl7.org/CodeSystem/observation-category","code":"vital-signs","display":"Vital Signs"}]}],"code":{"coding":[{"system":"http://loinc.org","code":"8302-2"}]},"subject":{"reference":"Patient/e002335b-917a-4f38-9e57-b1f96cdd6b11"},"effectiveDateTime":"2022-02-13T00:00:00+00:00","valueQuantity":{"value":64.5,"unit":"Inch","system":"http://unitsofmeasure.org","code":"[in_i]"}}},{"fullUrl":"Observation/afdac049-486c-4bd8-8ebc-98fbbd98ad47","resource":{"resourceType":"Observation","id":"afdac049-486c-4bd8-8ebc-98fbbd98ad47","meta":{"profile":["http://hl7.org/fhir/us/core/StructureDefinition/us-core-body-height"]},"status":"final","category":[{"coding":[{"system":"http://terminology.hl7.org/CodeSystem/observation-category","code":"vital-signs","display":"Vital Signs"}]}],"code":{"coding":[{"system":"http://loinc.org","code":"8302-2"}]},"subject":{"reference":"Patient/e002335b-917a-4f38-9e57-b1f96cdd6b11"},"effectiveDateTime":"2022-03-29T00:00:00+00:00","valueQuantity":{"value":75.3,"unit":"Inch","system":"http://unitsofmeasure.org","code":"[in_i]"}}},{"fullUrl":"Observation/ba9cd80e-66ae-4bc8-b056-d63ddc8fa17f","resource":{"resourceType":"Observation","id":"ba9cd80e-66ae-4bc8-b056-d63ddc8fa17f","meta":{"profile":["http://hl7.org/fhir/us/core/StructureDefinition/us-core-body-weight"]},"status":"final","category":[{"coding":[{"system":"http://terminology.hl7.org/CodeSystem/observation-category","code":"vital-signs","display":"Vital Signs"}]}],"code":{"coding":[{"system":"http://loinc.org","code":"29463-7"}]},"subject":{"reference":"Patient/e002335b-917a-4f38-9e57-b1f96cdd6b11"},"effectiveDateTime":"2022-03-09T00:00:00+00:00","valueQuantity":{"value":55.5,"unit":"kilogram","system":"http://unitsofmeasure.org","code":"kg"}}},{"fullUrl":"Observation/3025b117-0ccd-4cc7-a5db-0e810282476a","resource":{"resourceType":"Observation","id":"3025b117-0ccd-4cc7-a5db-0e810282476a","meta":{"profile":["http://hl7.org/fhir/us/core/StructureDefinition/us-core-body-weight"]},"status":"final","category":[{"coding":[{"system":"http://terminology.hl7.org/CodeSystem/observation-category","code":"vital-signs","display":"Vital Signs"}]}],"code":{"coding":[{"system":"http://loinc.org","code":"29463-7"}]},"subject":{"reference":"Patient/e002335b-917a-4f38-9e57-b1f96cdd6b11"},"effectiveDateTime":"2022-05-02T00:00:00+00:00","valueQuantity":{"value":121.06,"unit":"kilogram","system":"http://unitsofmeasure.org","code":"kg"}}},{"fullUrl":"Observation/b20d5fbc-472f-4efd-8a55-05d616de1bf2","resource":{"resourceType":"Observation","id":"b20d5fbc-472f-4efd-8a55-05d616de1bf2","meta":{"profile":["http://hl7.org/fhir/us/core/StructureDefinition/us-core-body-temperature"]},"status":"final","category":[{"coding":[{"system":"http://terminology.hl7.org/CodeSystem/observation-category","code":"vital-signs","display":"Vital Signs"}]}],"code":{"coding":[{"system":"http://loinc.org","code":"8310-5"}]},"subject":{"reference":"Patient/e002335b-917a-4f38-9e57-b1f96cdd6b11"},"effectiveDateTime":"2022-10-21T00:00:00+00:00","valueQuantity":{"value":105.38,"unit":"kilogram","system":"http://unitsofmeasure.org","code":"kg"}}},{"fullUrl":"Observation/137679d3-54fc-4f0c-8b88-d45d40717645","resource":{"resourceType":"Observation","id":"137679d3-54fc-4f0c-8b88-d45d40717645","meta":{"profile":["http://hl7.org/fhir/us/core/StructureDefinition/us-core-heart-rate"]},"status":"final","category":[{"coding":[{"system":"http://terminology.hl7.org/CodeSystem/observation-category","code":"vital-signs","display":"Vital Signs"}]}],"code":{"coding":[{"system":"http://loinc.org","code":"8867-4"}]},"subject":{"reference":"Patient/e002335b-917a-4f38-9e57-b1f96cdd6b11"},"effectiveDateTime":"2022-07-24T00:00:00+00:00","valueQuantity":{"value":96.9,"unit":"Degrees Fahrenheit","system":"http://unitsofmeasure.org","code":"[degF]"}}},{"fullUrl":"Patient/89ff411a-24ce-4f20-826d-e1b1e88677bf","resource":{"resourceType":"Patient","id":"89ff411a-24ce-4f20-826d-e1b1e88677bf","meta":{"profile":["http://hl7.org/fhir/us/core/StructureDefinition/us-core-patient"]},"identifier":[{"type":{"coding":[{"system":"http://terminology.hl7.org/CodeSystem/v2-0203","code":"MR"}]},"system":"urn:fhirgen:mrn","value":"039-72-6315"}],"name":[{"family":"Hartman","given":["Adam"]}],"gender":"male","birthDate":"1956-01-23","address":[{"line":["83932 Kristen Prairie"],"city":"Barnesborough","state":"Alaska"}]}},{"fullUrl":"Observation/f8a709a5-7c54-4d3a-8d80-a1c16b25b80e","resource":{"resourceType":"Observation","id":"f8a709a5-7c54-4d3a-8d80-a1c16b25b80e","meta":{"profile":["http://hl7.org/fhir/us/core/StructureDefinition/us-core-observation-lab"]},"status":"final","category":[{"coding":[{"system":"http://terminology.hl7.org/CodeSystem/observation-category","code":"laboratory","display":"Laboratory"}]}],"code":{"coding":[{"system":"http://loinc.org","code":"50690-7"}]},"subject":{"reference":"Patient/89ff411a-24ce-4f20-826d-e1b1e88677bf"},"effectiveDateTime":"2022-12-05T00:00:00+00:00","valueRatio":{"numerator":{"value":1.0},"denominator":{"value":4.0}}}},{"fullUrl":"Observation/b261d62b-b7e7-4bd7-bdbc-17972e3fce13","resource":{"resourceType":"Observation","id":"b261d62b-b7e7-4bd7-bdbc-17972e3fce13","meta":{"profile":["http://hl7.org/fhir/us/core/StructureDefinition/us-core-observation-lab"]},"status":"final","category":[{"coding":[{"system":"http://terminology.hl7.org/CodeSystem/observation-category","code":"laboratory","display":"Laboratory"}]}],"code":{"coding":[{"system":"http://loinc.org","code":"46203-6"}]},"subject":{"reference":"Patient/89ff411a-24ce-4f20-826d-e1b1e88677bf"},"effectiveDateTime":"2022-12-31T00:00:00+00:00","valueRatio":{"numerator":{"value":1.0},"denominator":{"value":4.0}}}},{"fullUrl":"Condition/f1354c9b-9901-4755-8caa-116c55baf0e9","resource":{"resourceType":"Condition","id":"f1354c9b-9901-4755-8caa-116c55baf0e9","meta":{"profile":["http://hl7.org/fhir/us/core/StructureDefinition/us-core-condition"]},"clinicalStatus":{"coding":[{"system":"http://terminology.hl7.org/CodeSystem/condition-clinical","code":"active","display":"Active"}]},"category":[{"coding":[{"system":"http://terminology.hl7.org/CodeSystem/condition-ver-status","code":"confirmed"}]}],"code":{"coding":[{"system":"http://snomed.info/sct","code":"736686006"}]},"subject":{"reference":"Patient/89ff411a-24ce-4f20-826d-e1b1e88677bf"},"onsetDateTime":"2022-10-13T00:00:00+00:00"}},{"fullUrl":"Condition/ee7a08a8-3eeb-4ed2-a67e-e60145f6260c","resource":{"resourceType":"Condition","id":"ee7a08a8-3eeb-4ed2-a67e-e60145f6260c","meta":{"profile":["http://hl7.org/fhir/us/core/StructureDefinition/us-core-condition"]},"clinicalStatus":{"coding":[{"system":"http://terminology.hl7.org/CodeSystem/condition-clinical","code":"active","display":"Active"}]},"category":[{"coding":[{"system":"http://terminology.hl7.org/CodeSystem/condition-ver-status","code":"confirmed"}]}],"code":{"coding":[{"system":"http://snomed.info/sct","code":"736686006"}]},"subject":{"reference":"Patient/89ff411a-24ce-4f20-826d-e1b1e88677bf"},"onsetDateTime":"2022-08-17T00:00:00+00:00"}},{"fullUrl":"Condition/603fab46-4f90-47c5-a9d4-fb4637f0a9d9","resource":{"resourceType":"Condition","id":"603fab46-4f90-47c5-a9d4-fb4637f0a9d9","meta":{"profile":["http://hl7.org/fhir/us/core/StructureDefinition/us-core-condition"]},"clinicalStatus":{"coding":[{"system":"http://terminology.hl7.org/CodeSystem/condition-clinical","code":"active","display":"Active"}]},"category":[{"coding":[{"system":"http://terminology.hl7.org/CodeSystem/condition-ver-status","code":"confirmed"}]}],"code":{"coding":[{"system":"http://snomed.info/sct","code":"736686006"}]},"subject":{"reference":"Patient/89ff411a-24ce-4f20-826d-e1b1e88677bf"},"onsetDateTime":"2022-06-04T00:00:00+00:00"}},{"fullUrl":"Observation/b244ea31-57ea-4f38-820f-03137e2798df","resource":{"resourceType":"Observation","id":"b244ea31-57ea-4f38-820f-03137e2798df","meta":{"profile":["http://hl7.org/fhir/us/core/StructureDefinition/us-core-observation-lab"]},"status":"final","category":[{"coding":[{"system":"http://terminology.hl7.org/CodeSystem/observation-category","code":"laboratory","display":"Laboratory"}]}],"code":{"coding":[{"system":"http://loinc.org","code":"49498-9"}]},"subject":{"reference":"Patient/89ff411a-24ce-4f20-826d-e1b1e88677bf"},"effectiveDateTime":"2022-07-30T00:00:00+00:00","valueQuantity":{"value":4.9}}},{"fullUrl":"Observation/3c22a38e-b95e-4b8d-a0c2-b793dcef3130","resource":{"resourceType":"Observation","id":"3c22a38e-b95e-4b8d-a0c2-b793dcef3130","meta":{"profile":["http://hl7.org/fhir/us/core/StructureDefinition/us-core-observation-lab"]},"status":"final","category":[{"coding":[{"system":"http://terminology.hl7.org/CodeSystem/observation-category","code":"laboratory","display":"Laboratory"}]}],"code":{"coding":[{"system":"http://loinc.org","code":"6690-2"}]},"subject":{"reference":"Patient/89ff411a-24ce-4f20-826d-e1b1e88677bf"},"effectiveDateTime":"2022-01-02T00:00:00+00:00","valueQuantity":{"value":4.9}}},{"fullUrl":"Observation/ff81ac9b-0f0b-49ac-9a1d-f6af26087702","resource":{"resourceType":"Observation","id":"ff81ac9b-0f0b-49ac-9a1d-f6af26087702","meta":{"profile":["http://hl7.org/fhir/us/core/StructureDefinition/us-core-observation-lab"]},"status":"final","category":[{"coding":[{"system":"http://terminology.hl7.org/CodeSystem/observation-category","code":"laboratory","display":"Laboratory"}]}],"code":{"coding":[{"system":"http://loinc.org","code":"6690-2"}]},"subject":{"reference":"Patient/89ff411a-24ce-4f20-826d-e1b1e88677bf"},"effectiveDateTime":"2022-07-14T00:00:00+00:00","valueQuantity":{"value":10.2}}},{"fullUrl":"Observation/a0887ef6-13e3-40cc-975d-c8567a4cb4b2","resource":{"resourceType":"Observation","id":"a0887ef6-13e3-40cc-975d-c8567a4cb4b2","meta":{"profile":["http://hl7.org/fhir/us/core/StructureDefinition/us-core-bmi"]},"status":"final","category":[{"coding":[{"system":"http://terminology.hl7.org/CodeSystem/observation-category","code":"vital-signs","display":"Vital Signs"}]}],"code":{"coding":[{"system":"http://loinc.org","code":"39156-5"}]},"subject":{"reference":"Patient/89ff411a-24ce-4f20-826d-e1b1e88677bf"},"effectiveDateTime":"2022-07-27T00:00:00+00:00","valueQuantity":{"value":23.36,"unit":"kg/m2","system":"http://unitsofmeasure.org","code":"kg/m2"}}},{"fullUrl":"Observation/ee043101-59d9-4c56-a3dc-77acdad37c72","resource":{"resourceType":"Observation","id":"ee043101-59d9-4c56-a3dc-77acdad37c72","meta":{"profile":["http://hl7.org/fhir/us/core/StructureDefinition/us-core-head-circumference"]},"status":"final","category":[{"coding":[{"system":"http://terminology.hl7.org/CodeSystem/observation-category","code":"vital-signs","display":"Vital Signs"}]}],"code":{"coding":[{"system":"http://loinc.org","code":"9843-4"}]},"subject":{"reference":"Patient/89ff411a-24ce-4f20-826d-e1b1e88677bf"},"effectiveDateTime":"2022-12-08T00:00:00+00:00","valueQuantity":{"value":2.0,"unit":"Inch","system":"http://unitsofmeasure.org","code":"[in_i]"}}},{"fullUrl":"Observation/7cb1afd6-a25a-42f9-9ac6-6d043a58e4ec","resource":{"resourceType":"Observation","id":"7cb1afd6-a25a-42f9-9ac6-6d043a58e4ec","meta":{"profile":["http://hl7.org/fhir/us/core/StructureDefinition/us-core-head-circumference"]},"status":"final","category":[{"coding":[{"system":"http://terminology.hl7.org/CodeSystem/observation-category","code":"vital-signs","display":"Vital Signs"}]}],"code":{"coding":[{"system":"http://loinc.org","code":"9843-4"}]},"subject":{"reference":"Patient/89ff411a-24ce-4f20-826d-e1b1e88677bf"},"effectiveDateTime":"2022-06-08T00:00:00+00:00","valueQuantity":{"value":1.7,"unit":"Inch","system":"http://unitsofmeasure.org","code":"[in_i]"}}},{"fullUrl":"Observation/a3a40b13-b29d-4f4a-adec-0c222630166d","resource":{"resourceType":"Observation","id":"a3a40b13-b29d-4f4a-adec-0c222630166d","meta":{"profile":["http://hl7.org/fhir/us/core/StructureDefinition/us-core-body-height"]},"status":"final","category":[{"coding":[{"system":"http://terminology.hl7.org/CodeSystem/observation-category","code":"vital-signs","display":"Vital Signs"}]}],"code":{"coding":[{"system":"http://loinc.org","code":"8302-2"}]},"subject":{"reference":"Patient/89ff411a-24ce-4f20-826d-e1b1e88677bf"},"effectiveDateTime":"2022-04-02T00:00:00+00:00","valueQuantity":{"value":77.5,"unit":"Inch","system":"http://unitsofmeasure.org","code":"[in_i]"}}},{"fullUrl":"Observation/8c0b7dab-2c35-4820-b29a-5306e7700b3a","resource":{"resourceType":"Observation","id":"8c0b7dab-2c35-4820-b29a-5306e7700b3a","meta":{"profile":["http://hl7.org/fhir/us/core/StructureDefinition/us-core-body-weight"]},"status":"final","category":[{"coding":[{"system":"http://terminology.hl7.org/CodeSystem/observation-category","code":"vital-signs","display":"Vital Signs"}]}],"code":{"coding":[{"system":"http://loinc.org","code":"29463-7"}]},"subject":{"reference":"Patient/89ff411a-24ce-4f20-826d-e1b1e88677bf"},"effectiveDateTime":"2022-04-24T00:00:00+00:00","valueQuantity":{"value":101.99,"unit":"kilogram","system":"http://unitsofmeasure.org","code":"kg"}}},{"fullUrl":"Observation/a74b7b41-fb90-4f9a-af5c-1f6d7e73a603","resource":{"resourceType":"Observation","id":"a74b7b41-fb90-4f9a-af5c-1f6d7e73a603","meta":{"profile":["http://hl7.org/fhir/us/core/StructureDefinition/us-core-body-temperature"]},"status":"final","category":[{"coding":[{"system":"http://terminology.hl7.org/CodeSystem/observation-category","code":"vital-signs","display":"Vital Signs"}]}],"code":{"coding":[{"system":"http://loinc.org","code":"8310-5"}]},"subject":{"reference":"Patient/89ff411a-24ce-4f20-826d-e1b1e88677bf"},"effectiveDateTime":"2022-03-29T00:00:00+00:00","valueQuantity":{"value":125.61,"unit":"kilogram","system":"http://unitsofmeasure.org","code":"kg"}}},{"fullUrl":"Observation/d0dcf694-42c8-4cac-b66d-6ebc5f6f4f4a","resource":{"resourceType":"Observation","id":"d0dcf694-42c8-4cac-b66d-6ebc5f6f4f4a","meta":{"profile":["http://hl7.org/fhir/us/core/StructureDefinition/us-core-heart-rate"]},"status":"final","category":[{"coding":[{"system":"http://terminology.hl7.org/CodeSystem/observation-category","code":"vital-signs","display":"Vital Signs"}]}],"code":{"coding":[{"system":"http://loinc.org","code":"8867-4"}]},"subject":{"reference":"Patient/89ff411a-24ce-4f20-826d-e1b1e88677bf"},"effectiveDateTime":"2022-04-05T00:00:00+00:00","valueQuantity":{"value":97.2,"unit":"Degrees Fahrenheit","system":"http://unitsofmeasure.org","code":"[degF]"}}},{"fullUrl":"Patient/a692da0b-bc88-4ca3-9e59-f400278e55c6","resource":{"resourceType":"Patient","id":"a692da0b-bc88-4ca3-9e59-f400278e55c6","meta":{"profile":["http://hl7.org/fhir/us/core/StructureDefinition/us-core-patient"]},"identifier":[{"type":{"coding":[{"system":"http://terminology.hl7.org/CodeSystem/v2-0203","code":"MR"}]},"system":"urn:fhirgen:mrn","value":"452-97-5759"}],"name":[{"family":"Montgomery","given":["Carrie"]}],"gender":"female","birthDate":"1967-07-03","address":[{"line":["0527 Miller Ports Apt. 285"],"city":"West Ginaview","state":"Missouri"}]}},{"fullUrl":"Observation/3ba1a71e-697f-4cb2-9b1d-79ec14ce207d","resource":{"resourceType":"Observation","id":"3ba1a71e-697f-4cb2-9b1d-79ec14ce207d","meta":{"profile":["http://hl7.org/fhir/us/core/StructureDefinition/us-core-observation-lab"]},"status":"final","category":[{"coding":[{"system":"http://terminology.hl7.org/CodeSystem/observation-category","code":"laboratory","display":"Laboratory"}]}],"code":{"coding":[{"system":"http://loinc.org","code":"71793-4"}]},"subject":{"reference":"Patient/a692da0b-bc88-4ca3-9e59-f400278e55c6"},"effectiveDateTime":"2022-03-07T00:00:00+00:00","valueRatio":{"numerator":{"value":1.0},"denominator":{"value":32.0}}}},{"fullUrl":"Observation/d8b23115-e26e-4d4f-b2a1-959d8e97364d","resource":{"resourceType":"Observation","id":"d8b23115-e26e-4d4f-b2a1-959d8e97364d","meta":{"profile":["http://hl7.org/fhir/us/core/StructureDefinition/us-core-observation-lab"]},"status":"final","category":[{"coding":[{"system":"http://terminology.hl7.org/CodeSystem/observation-category","code":"laboratory","display":"Laboratory"}]}],"code":{"coding":[{"system":"http://loinc.org","code":"31146-4"}]},"subject":{"reference":"Patient/a692da0b-bc88-4ca3-9e59-f400278e55c6"},"effectiveDateTime":"2022-10-22T00:00:00+00:00","valueRatio":{"numerator":{"value":1.0},"denominator":{"value":4.0}}}},{"fullUrl":"Observation/392a1d57-2afa-40f8-bc29-81613673bf2d","resource":{"resourceType":"Observation","id":"392a1d57-2afa-40f8-bc29-81613673bf2d","meta":{"profile":["http://hl7.org/fhir/us/core/StructureDefinition/us-core-observation-lab"]},"status":"final","category":[{"coding":[{"system":"http://terminology.hl7.org/CodeSystem/observation-category","code":"laboratory","display":"Laboratory"}]}],"code":{"coding":[{"system":"http://loinc.org","code":"11084-1"}]},"subject":{"reference":"Patient/a692da0b-bc88-4ca3-9e59-f400278e55c6"},"effectiveDateTime":"2022-12-24T00:00:00+00:00","valueRatio":{"numerator":{"value":1.0},"denominator":{"value":4.0}}}},{"fullUrl":"Condition/612b6619-809b-49d8-950b-72cb0db31df4","resource":{"resourceType":"Condition","id":"612b6619-809b-49d8-950b-72cb0db31df4","meta":{"profile":["http://hl7.org/fhir/us/core/StructureDefinition/us-core-condition"]},"clinicalStatus":{"coding":[{"system":"http://terminology.hl7.org/CodeSystem/condition-clinical","code":"active","display":"Active"}]},"category":[{"coding":[{"system":"http://terminology.hl7.org/CodeSystem/condition-ver-status","code":"confirmed"}]}],"code":{"coding":[{"system":"http://snomed.info/sct","code":"736686006"}]},"subject":{"reference":"Patient/a692da0b-bc88-4ca3-9e59-f400278e55c6"},"onsetDateTime":"2022-01-24T00:00:00+00:00"}},{"fullUrl":"Condition/751a13b0-d880-454e-bd62-bd423ff3ef56","resource":{"resourceType":"Condition","id":"751a13b0-d880-454e-bd62-bd423ff3ef56","meta":{"profile":["http://hl7.org/fhir/us/core/StructureDefinition/us-core-condition"]},"clinicalStatus":{"coding":[{"system":"http://terminology.hl7.org/CodeSystem/condition-clinical","code":"active","display":"Active"}]},"category":[{"coding":[{"system":"http://terminology.hl7.org/CodeSystem/condition-ver-status","code":"confirmed"}]}],"code":{"coding":[{"system":"http://snomed.info/sct","code":"418290006"}]},"subject":{"reference":"Patient/a692da0b-bc88-4ca3-9e59-f400278e55c6"},"onsetDateTime":"2022-02-15T00:00:00+00:00"}},{"fullUrl":"Condition/5ffa6e4f-76ca-4f5e-8c2d-2eb9c2fe2fb7","resource":{"resourceType":"Condition","id":"5ffa6e4f-76ca-4f5e-8c2d-2eb9c2fe2fb7","meta":{"profile":["http://hl7.org/fhir/us/core/StructureDefinition/us-core-condition"]},"clinicalStatus":{"coding":[{"system":"http://terminology.hl7.org/CodeSystem/condition-clinical","code":"active","display":"Active"}]},"category":[{"coding":[{"system":"http://terminology.hl7.org/CodeSystem/condition-ver-status","code":"confirmed"}]}],"code":{"coding":[{"system":"http://snomed.info/sct","code":"736686006"}]},"subject":{"reference":"Patient/a692da0b-bc88-4ca3-9e59-f400278e55c6"},"onsetDateTime":"2022-12-27T00:00:00+00:00"}},{"fullUrl":"Condition/aab63356-0723-480f-b323-1898c7f8eace","resource":{"resourceType":"Condition","id":"aab63356-0723-480f-b323-1898c7f8eace","meta":{"profile":["http://hl7.org/fhir/us/core/StructureDefinition/us-core-condition"]},"clinicalStatus":{"coding":[{"system":"http://terminology.hl7.org/CodeSystem/condition-clinical","code":"active","display":"Active"}]},"category":[{"coding":[{"system":"http://terminology.hl7.org/CodeSystem/condition-ver-status","code":"confirmed"}]}],"code":{"coding":[{"system":"http://snomed.info/sct","code":"91554004"}]},"subject":{"reference":"Patient/a692da0b-bc88-4ca3-9e59-f400278e55c6"},"onsetDateTime":"2022-05-07T00:00:00+00:00"}},{"fullUrl":"Observation/2a946894-d93e-4a12-b242-ab827bdc83d0","resource":{"resourceType":"Observation","id":"2a946894-d93e-4a12-b242-ab827bdc83d0","meta":{"profile":["http://hl7.org/fhir/us/core/StructureDefinition/us-core-observation-lab"]},"status":"final","category":[{"coding":[{"system":"http://terminology.hl7.org/CodeSystem/observation-category","code":"laboratory","display":"Laboratory"}]}],"code":{"coding":[{"system":"http://loinc.org","code":"6690-2"}]},"subject":{"reference":"Patient/a692da0b-bc88-4ca3-9e59-f400278e55c6"},"effectiveDateTime":"2022-12-20T00:00:00+00:00","valueQuantity":{"value":11.0}}},{"fullUrl":"Observation/4a1b93d0-e648-4912-9c81-6eabacfe0a22","resource":{"resourceType":"Observation","id":"4a1b93d0-e648-4912-9c81-6eabacfe0a22","meta":{"profile":["http://hl7.org/fhir/us/core/StructureDefinition/us-core-observation-lab"]},"status":"final","category":[{"coding":[{"system":"http://terminology.hl7.org/CodeSystem/observation-category","code":"laboratory","display":"Laboratory"}]}],"code":{"coding":[{"system":"http://loinc.org","code":"26464-8"}]},"subject":{"reference":"Patient/a692da0b-bc88-4ca3-9e59-f400278e55c6"},"effectiveDateTime":"2022-10-14T00:00:00+00:00","valueQuantity":{"value":8.5}}},{"fullUrl":"Observation/e2610af6-5491-4f74-8aef-07360cbf11e3","resource":{"resourceType":"Observation","id":"e2610af6-5491-4f74-8aef-07360cbf11e3","meta":{"profile":["http://hl7.org/fhir/us/core/StructureDefinition/us-core-observation-lab"]},"status":"final","category":[{"coding":[{"system":"http://terminology.hl7.org/CodeSystem/observation-category","code":"laboratory","display":"Laboratory"}]}],"code":{"coding":[{"system":"http://loinc.org","code":"804-5"}]},"subject":{"reference":"Patient/a692da0b-bc88-4ca3-9e59-f400278e55c6"},"effectiveDateTime":"2022-08-03T00:00:00+00:00","valueQuantity":{"value":7.1}}},{"fullUrl":"Observation/1545cdd2-cbf3-4852-9ad8-3542fbf2bbf0","resource":{"resourceType":"Observation","id":"1545cdd2-cbf3-4852-9ad8-3542fbf2bbf0","meta":{"profile":["http://hl7.org/fhir/us/core/StructureDefinition/us-core-bmi"]},"status":"final","category":[{"coding":[{"system":"http://terminology.hl7.org/CodeSystem/observation-category","code":"vital-signs","display":"Vital Signs"}]}],"code":{"coding":[{"system":"http://loinc.org","code":"39156-5"}]},"subject":{"reference":"Patient/a692da0b-bc88-4ca3-9e59-f400278e55c6"},"effectiveDateTime":"2022-02-17T00:00:00+00:00","valueQuantity":{"value":12.86,"unit":"kg/m2","system":"http://unitsofmeasure.org","code":"kg/m2"}}},{"fullUrl":"Observation/257b464c-2382-4fbe-b0ad-aa4c813b0031","resource":{"resourceType":"Observation","id":"257b464c-2382-4fbe-b0ad-aa4c813b0031","meta":{"profile":["http://hl7.org/fhir/us/core/StructureDefinition/us-core-bmi"]},"status":"final","category":[{"coding":[{"system":"http://terminology.hl7.org/CodeSystem/observation-category","code":"vital-signs","display":"Vital Signs"}]}],"code":{"coding":[{"system":"http://loinc.org","code":"39156-5"}]},"subject":{"reference":"Patient/a692da0b-bc88-4ca3-9e59-f400278e55c6"},"effectiveDateTime":"2022-04-23T00:00:00+00:00","valueQuantity":{"value":15.31,"unit":"kg/m2","system":"http://unitsofmeasure.org","code":"kg/m2"}}},{"fullUrl":"Observation/2d56fffb-deb8-4174-a68a-9047dbe43a8b","resource":{"resourceType":"Observation","id":"2d56fffb-deb8-4174-a68a-9047dbe43a8b","meta":{"profile":["http://hl7.org/fhir/us/core/StructureDefinition/us-core-head-circumference"]},"status":"final","category":[{"coding":[{"system":"http://terminology.hl7.org/CodeSystem/observation-category","code":"vital-signs","display":"Vital Signs"}]}],"code":{"coding":[{"system":"http://loinc.org","code":"9843-4"}]},"subject":{"reference":"Patient/a692da0b-bc88-4ca3-9e59-f400278e55c6"},"effectiveDateTime":"2022-11-13T00:00:00+00:00","valueQuantity":{"value":7.9,"unit":"Inch","system":"http://unitsofmeasure.org","code":"[in_i]"}}},{"fullUrl":"Observation/10e46019-becc-44d2-8f00-d4883aeba98c","resource":{"resourceType":"Observation","id":"10e46019-becc-44d2-8f00-d4883aeba98c","meta":{"profile":["http://hl7.org/fhir/us/core/StructureDefinition/us-core-body-height"]},"status":"final","category":[{"coding":[{"system":"http://terminology.hl7.org/CodeSystem/observation-category","code":"vital-signs","display":"Vital Signs"}]}],"code":{"coding":[{"system":"http://loinc.org","code":"8302-2"}]},"subject":{"reference":"Patient/a692da0b-bc88-4ca3-9e59-f400278e55c6"},"effectiveDateTime":"2022-08-08T00:00:00+00:00","valueQuantity":{"value":63.3,"unit":"Inch","system":"http://unitsofmeasure.org","code":"[in_i]"}}},{"fullUrl":"Observation/2fbe02f2-2904-4a94-ac8c-f136f6b37b42","resource":{"resourceType":"Observation","id":"2fbe02f2-2904-4a94-ac8c-f136f6b37b42","meta":{"profile":["http://hl7.org/fhir/us/core/StructureDefinition/us-core-body-height"]},"status":"final","category":[{"coding":[{"system":"http://terminology.hl7.org/CodeSystem/observation-category","code":"vital-signs","display":"Vital Signs"}]}],"code":{"coding":[{"system":"http://loinc.org","code":"8302-2"}]},"subject":{"reference":"Patient/a692da0b-bc88-4ca3-9e59-f400278e55c6"},"effectiveDateTime":"2022-04-19T00:00:00+00:00","valueQuantity":{"value":78.3,"unit":"Inch","system":"http://unitsofmeasure.org","code":"[in_i]"}}},{"fullUrl":"Observation/80c8f609-8ff1-4af4-98d7-529ff8e4b060","resource":{"resourceType":"Observation","id":"80c8f609-8ff1-4af4-98d7-529ff8e4b060","meta":{"profile":["http://hl7.org/fhir/us/core/StructureDefinition/us-core-body-weight"]},"status":"final","category":[{"coding":[{"system":"http://terminology.hl7.org/CodeSystem/observation-category","code":"vital-signs","display":"Vital Signs"}]}],"code":{"coding":[{"system":"http://loinc.org","code":"29463-7"}]},"subject":{"reference":"Patient/a692da0b-bc88-4ca3-9e59-f400278e55c6"},"effectiveDateTime":"2022-05-15T00:00:00+00:00","valueQuantity":{"value":69.67,"unit":"kilogram","system":"http://unitsofmeasure.org","code":"kg"}}},{"fullUrl":"Observation/92f33ca4-920c-4dd2-a935-47439ab243d1","resource":{"resourceType":"Observation","id":"92f33ca4-920c-4dd2-a935-47439ab243d1","meta":{"profile":["http://hl7.org/fhir/us/core/StructureDefinition/us-core-body-temperature"]},"status":"final","category":[{"coding":[{"system":"http://terminology.hl7.org/CodeSystem/observation-category","code":"vital-signs","display":"Vital Signs"}]}],"code":{"coding":[{"system":"http://loinc.org","code":"8310-5"}]},"subject":{"reference":"Patient/a692da0b-bc88-4ca3-9e59-f400278e55c6"},"effectiveDateTime":"2022-07-13T00:00:00+00:00","valueQuantity":{"value":39.42,"unit":"kilogram","system":"http://unitsofmeasure.org","code":"kg"}}},{"fullUrl":"Observation/b2778abf-8d2c-40ab-813b-e3d0366f0ed3","resource":{"resourceType":"Observation","id":"b2778abf-8d2c-40ab-813b-e3d0366f0ed3","meta":{"profile":["http://hl7.org/fhir/us/core/StructureDefinition/us-core-body-temperature"]},"status":"final","category":[{"coding":[{"system":"http://terminology.hl7.org/CodeSystem/observation-category","code":"vital-signs","display":"Vital Signs"}]}],"code":{"coding":[{"system":"http://loinc.org","code":"8310-5"}]},"subject":{"reference":"Patient/a692da0b-bc88-4ca3-9e59-f400278e55c6"},"effectiveDateTime":"2022-04-20T00:00:00+00:00","valueQuantity":{"value":105.01,"unit":"kilogram","system":"http://unitsofmeasure.org","code":"kg"}}},{"fullUrl":"Observation/90e78071-64be-41c0-857c-23b38a704cf1","resource":{"resourceType":"Observation","id":"90e78071-64be-41c0-857c-23b38a704cf1","meta":{"profile":["http://hl7.org/fhir/us/core/StructureDefinition/us-core-heart-rate"]},"status":"final","category":[{"coding":[{"system":"http://terminology.hl7.org/CodeSystem/observation-category","code":"vital-signs","display":"Vital Signs"}]}],"code":{"coding":[{"system":"http://loinc.org","code":"8867-4"}]},"subject":{"reference":"Patient/a692da0b-bc88-4ca3-9e59-f400278e55c6"},"effectiveDateTime":"2022-10-26T00:00:00+00:00","valueQuantity":{"value":98.4,"unit":"Degrees Fahrenheit","system":"http://unitsofmeasure.org","code":"[degF]"}}},{"fullUrl":"Patient/8dd9d599-b0a6-49e2-8eac-b4ff9378f9a1","resource":{"resourceType":"Patient","id":"8dd9d599-b0a6-49e2-8eac-b4ff9378f9a1","meta":{"profile":["http://hl7.org/fhir/us/core/StructureDefinition/us-core-patient"]},"identifier":[{"type":{"coding":[{"system":"http://terminology.hl7.org/CodeSystem/v2-0203","code":"MR"}]},"system":"urn:fhirgen:mrn","value":"774-38-7153"}],"name":[{"family":"Garcia","given":["April"]}],"gender":"female","birthDate":"1950-06-20","address":[{"line":["52684 Dana Square Apt. 075"],"city":"Port Patricia","state":"Washington"}]}},{"fullUrl":"Observation/a23ef293-7ac7-43fe-88f2-6afa0b0d5cef","resource":{"resourceType":"Observation","id":"a23ef293-7ac7-43fe-88f2-6afa0b0d5cef","meta":{"profile":["http://hl7.org/fhir/us/core/StructureDefinition/us-core-observation-lab"]},"status":"final","category":[{"coding":[{"system":"http://terminology.hl7.org/CodeSystem/observation-category","code":"laboratory","display":"Laboratory"}]}],"code":{"coding":[{"system":"http://loinc.org","code":"50695-6"}]},"subject":{"reference":"Patient/8dd9d599-b0a6-49e2-8eac-b4ff9378f9a1"},"effectiveDateTime":"2022-11-16T00:00:00+00:00","valueRatio":{"numerator":{"value":1.0},"denominator":{"value":32.0}}}},{"fullUrl":"Observation/a10d2c22-853f-45ad-896c-41f8518da563","resource":{"resourceType":"Observation","id":"a10d2c22-853f-45ad-896c-41f8518da563","meta":{"profile":["http://hl7.org/fhir/us/core/StructureDefinition/us-core-observation-lab"]},"status":"final","category":[{"coding":[{"system":"http://terminology.hl7.org/CodeSystem/observation-category","code":"laboratory","display":"Laboratory"}]}],"code":{"coding":[{"system":"http://loinc.org","code":"31146-4"}]},"subject":{"reference":"Patient/8dd9d599-b0a6-49e2-8eac-b4ff9378f9a1"},"effectiveDateTime":"2022-02-05T00:00:00+00:00","valueRatio":{"numerator":{"value":1.0},"denominator":{"value":64.0}}}},{"fullUrl":"Observation/43440322-7bba-4905-b897-f04976f490c1","resource":{"resourceType":"Observation","id":"43440322-7bba-4905-b897-f04976f490c1","meta":{"profile":["http://hl7.org/fhir/us/core/StructureDefinition/us-core-observation-lab"]},"status":"final","category":[{"coding":[{"system":"http://terminology.hl7.org/CodeSystem/observation-category","code":"laboratory","display":"Laboratory"}]}],"code":{"coding":[{"system":"http://loinc.org","code":"47476-7"}]},"subject":{"reference":"Patient/8dd9d599-b0a6-49e2-8eac-b4ff9378f9a1"},"effectiveDateTime":"2022-11-04T00:00:00+00:00","valueRatio":{"numerator":{"value":1.0},"denominator":{"value":64.0}}}},{"fullUrl":"Condition/077cfff1-1f62-433d-aed0-62537f6898f8","resource":{"resourceType":"Condition","id":"077cfff1-1f62-433d-aed0-62537f6898f8","meta":{"profile":["http://hl7.org/fhir/us/core/StructureDefinition/us-core-condition"]},"clinicalStatus":{"coding":[{"system":"http://terminology.hl7.org/CodeSystem/condition-clinical","code":"active","display":"Active"}]},"category":[{"coding":[{"system":"http://terminology.hl7.org/CodeSystem/condition-ver-status","code":"confirmed"}]}],"code":{"coding":[{"system":"http://snomed.info/sct","code":"91554004"}]},"subject":{"reference":"Patient/8dd9d599-b0a6-49e2-8eac-b4ff9378f9a1"},"onsetDateTime":"2022-10-29T00:00:00+00:00"}},{"fullUrl":"Condition/78df9a41-25fb-4a0b-ad34-18bb2a49cb98","resource":{"resourceType":"Condition","id":"78df9a41-25fb-4a0b-ad34-18bb2a49cb98","meta":{"profile":["http://hl7.org/fhir/us/core/StructureDefinition/us-core-condition"]},"clinicalStatus":{"coding":[{"system":"http://terminology.hl7.org/CodeSystem/condition-clinical","code":"active","display":"Active"}]},"category":[{"coding":[{"system":"http://terminology.hl7.org/CodeSystem/condition-ver-status","code":"confirmed"}]}],"code":{"coding":[{"system":"http://snomed.info/sct","code":"418290006"}]},"subject":{"reference":"Patient/8dd9d599-b0a6-49e2-8eac-b4ff9378f9a1"},"onsetDateTime":"2022-11-29T00:00:00+00:00"}},{"fullUrl":"Condition/c1cde19d-8ae4-49a9-9390-bc57c76f449e","resource":{"resourceType":"Condition","id":"c1cde19d-8ae4-49a9-9390-bc57c76f449e","meta":{"profile":["http://hl7.org/fhir/us/core/StructureDefinition/us-core-condition"]},"clinicalStatus":{"coding":[{"system":"http://terminology.hl7.org/CodeSystem/condition-clinical","code":"active","display":"Active"}]},"category":[{"coding":[{"system":"http://terminology.hl7.org/CodeSystem/condition-ver-status","code":"confirmed"}]}],"code":{"coding":[{"system":"http://snomed.info/sct","code":"736686006"}]},"subject":{"reference":"Patient/8dd9d599-b0a6-49e2-8eac-b4ff9378f9a1"},"onsetDateTime":"2022-01-25T00:00:00+00:00"}},{"fullUrl":"Condition/bf22462f-4db4-4921-bd79-57370bffab9a","resource":{"resourceType":"Condition","id":"bf22462f-4db4-4921-bd79-57370bffab9a","meta":{"profile":["http://hl7.org/fhir/us/core/StructureDefinition/us-core-condition"]},"clinicalStatus":{"coding":[{"system":"http://terminology.hl7.org/CodeSystem/condition-clinical","code":"active","display":"Active"}]},"category":[{"coding":[{"system":"http://terminology.hl7.org/CodeSystem/condition-ver-status","code":"confirmed"}]}],"code":{"coding":[{"system":"http://snomed.info/sct","code":"709977002"}]},"subject":{"reference":"Patient/8dd9d599-b0a6-49e2-8eac-b4ff9378f9a1"},"onsetDateTime":"2022-11-01T00:00:00+00:00"}},{"fullUrl":"Observation/790099bc-0439-443b-b2e7-59c9b924fb43","resource":{"resourceType":"Observation","id":"790099bc-0439-443b-b2e7-59c9b924fb43","meta":{"profile":["http://hl7.org/fhir/us/core/StructureDefinition/us-core-observation-lab"]},"status":"final","category":[{"coding":[{"system":"http://terminology.hl7.org/CodeSystem/observation-category","code":"laboratory","display":"Laboratory"}]}],"code":{"coding":[{"system":"http://loinc.org","code":"26464-8"}]},"subject":{"reference":"Patient/8dd9d599-b0a6-49e2-8eac-b4ff9378f9a1"},"effectiveDateTime":"2022-08-19T00:00:00+00:00","valueQuantity":{"value":6.2}}},{"fullUrl":"Observation/a40cf700-f29f-45a5-a3f6-4a286ce78fa6","resource":{"resourceType":"Observation","id":"a40cf700-f29f-45a5-a3f6-4a286ce78fa6","meta":{"profile":["http://hl7.org/fhir/us/core/StructureDefinition/us-core-observation-lab"]},"status":"final","category":[{"coding":[{"system":"http://terminology.hl7.org/CodeSystem/observation-category","code":"laboratory","display":"Laboratory"}]}],"code":{"coding":[{"system":"http://loinc.org","code":"49498-9"}]},"subject":{"reference":"Patient/8dd9d599-b0a6-49e2-8eac-b4ff9378f9a1"},"effectiveDateTime":"2022-07-25T00:00:00+00:00","valueQuantity":{"value":4.2}}},{"fullUrl":"Observation/c36a0456-f878-4106-98bb-c9d5f4029090","resource":{"resourceType":"Observation","id":"c36a0456-f878-4106-98bb-c9d5f4029090","meta":{"profile":["http://hl7.org/fhir/us/core/StructureDefinition/us-core-observation-lab"]},"status":"final","category":[{"coding":[{"system":"http://terminology.hl7.org/CodeSystem/observation-category","code":"laboratory","display":"Laboratory"}]}],"code":{"coding":[{"system":"http://loinc.org","code":"26464-8"}]},"subject":{"reference":"Patient/8dd9d599-b0a6-49e2-8eac-b4ff9378f9a1"},"effectiveDateTime":"2022-08-13T00:00:00+00:00","valueQuantity":{"value":4.7}}},{"fullUrl":"Observation/9e0a6215-d363-4a80-bf2f-5f3e6573816d","resource":{"resourceType":"Observation","id":"9e0a6215-d363-4a80-bf2f-5f3e6573816d","meta":{"profile":["http://hl7.org/fhir/us/core/StructureDefinition/us-core-bmi"]},"status":"final","category":[{"coding":[{"system":"http://terminology.hl7.org/CodeSystem/observation-category","code":"vital-signs","display":"Vital Signs"}]}],"code":{"coding":[{"system":"http://loinc.org","code":"39156-5"}]},"subject":{"reference":"Patient/8dd9d599-b0a6-49e2-8eac-b4ff9378f9a1"},"effectiveDateTime":"2022-07-12T00:00:00+00:00","valueQuantity":{"value":16.18,"unit":"kg/m2","system":"http://unitsofmeasure.org","code":"kg/m2"}}},{"fullUrl":"Observation/60e7d2ad-8800-405f-ae56-77cd0f6a9684","resource":{"resourceType":"Observation","id":"60e7d2ad-8800-405f-ae56-77cd0f6a9684","meta":{"profile":["http://hl7.org/fhir/us/core/StructureDefinition/us-core-bmi"]},"status":"final","category":[{"coding":[{"system":"http://terminology.hl7.org/CodeSystem/observation-category","code":"vital-signs","display":"Vital Signs"}]}],"code":{"coding":[{"system":"http://loinc.org","code":"39156-5"}]},"subject":{"reference":"Patient/8dd9d599-b0a6-49e2-8eac-b4ff9378f9a1"},"effectiveDateTime":"2022-12-24T00:00:00+00:00","valueQuantity":{"value":12.46,"unit":"kg/m2","system":"http://unitsofmeasure.org","code":"kg/m2"}}},{"fullUrl":"Observation/f4fb2d11-8054-492a-a8e2-8d5174d8ebbb","resource":{"resourceType":"Observation","id":"f4fb2d11-8054-492a-a8e2-8d5174d8ebbb","meta":{"profile":["http://hl7.org/fhir/us/core/StructureDefinition/us-core-head-circumference"]},"status":"final","category":[{"coding":[{"system":"http://terminology.hl7.org/CodeSystem/observation-category","code":"vital-signs","display":"Vital Signs"}]}],"code":{"coding":[{"system":"http://loinc.org","code":"9843-4"}]},"subject":{"reference":"Patient/8dd9d599-b0a6-49e2-8eac-b4ff9378f9a1"},"effectiveDateTime":"2022-09-01T00:00:00+00:00","valueQuantity":{"value":8.5,"unit":"Inch","system":"http://unitsofmeasure.org","code":"[in_i]"}}},{"fullUrl":"Observation/3920cd68-e95d-434d-93cf-04d0a56087ef","resource":{"resourceType":"Observation","id":"3920cd68-e95d-434d-93cf-04d0a56087ef","meta":{"profile":["http://hl7.org/fhir/us/core/StructureDefinition/us-core-head-circumference"]},"status":"final","category":[{"coding":[{"system":"http://terminology.hl7.org/CodeSystem/observation-category","code":"vital-signs","display":"Vital Signs"}]}],"code":{"coding":[{"system":"http://loinc.org","code":"9843-4"}]},"subject":{"reference":"Patient/8dd9d599-b0a6-49e2-8eac-b4ff9378f9a1"},"effectiveDateTime":"2022-06-09T00:00:00+00:00","valueQuantity":{"value":8.7,"unit":"Inch","system":"http://unitsofmeasure.org","code":"[in_i]"}}},{"fullUrl":"Observation/d7ae9fda-eaf4-4f09-acd0-866a36ef0204","resource":{"resourceType":"Observation","id":"d7ae9fda-eaf4-4f09-acd0-866a36ef0204","meta":{"profile":["http://hl7.org/fhir/us/core/StructureDefinition/us-core-body-height"]},"status":"final","category":[{"coding":[{"system":"http://terminology.hl7.org/CodeSystem/observation-category","code":"vital-signs","display":"Vital Signs"}]}],"code":{"coding":[{"system":"http://loinc.org","code":"8302-2"}]},"subject":{"reference":"Patient/8dd9d599-b0a6-49e2-8eac-b4ff9378f9a1"},"effectiveDateTime":"2022-02-01T00:00:00+00:00","valueQuantity":{"value":69.0,"unit":"Inch","system":"http://unitsofmeasure.org","code":"[in_i]"}}},{"fullUrl":"Observation/e3bfcd76-e572-4a28-a15a-13e9ba71c725","resource":{"resourceType":"Observation","id":"e3bfcd76-e572-4a28-a15a-13e9ba71c725","meta":{"profile":["http://hl7.org/fhir/us/core/StructureDefinition/us-core-body-height"]},"status":"final","category":[{"coding":[{"system":"http://terminology.hl7.org/CodeSystem/observation-category","code":"vital-signs","display":"Vital Signs"}]}],"code":{"coding":[{"system":"http://loinc.org","code":"8302-2"}]},"subject":{"reference":"Patient/8dd9d599-b0a6-49e2-8eac-b4ff9378f9a1"},"effectiveDateTime":"2022-10-28T00:00:00+00:00","valueQuantity":{"value":78.4,"unit":"Inch","system":"http://unitsofmeasure.org","code":"[in_i]"}}},{"fullUrl":"Observation/89eed605-0c20-4d53-a550-59d2d99a1162","resource":{"resourceType":"Observation","id":"89eed605-0c20-4d53-a550-59d2d99a1162","meta":{"profile":["http://hl7.org/fhir/us/core/StructureDefinition/us-core-body-weight"]},"status":"final","category":[{"coding":[{"system":"http://terminology.hl7.org/CodeSystem/observation-category","code":"vital-signs","display":"Vital Signs"}]}],"code":{"coding":[{"system":"http://loinc.org","code":"29463-7"}]},"subject":{"reference":"Patient/8dd9d599-b0a6-49e2-8eac-b4ff9378f9a1"},"effectiveDateTime":"2022-06-14T00:00:00+00:00","valueQuantity":{"value":37.99,"unit":"kilogram","system":"http://unitsofmeasure.org","code":"kg"}}},{"fullUrl":"Observation/36e822dc-c5bd-4a58-a004-add0c9872986","resource":{"resourceType":"Observation","id":"36e822dc-c5bd-4a58-a004-add0c9872986","meta":{"profile":["http://hl7.org/fhir/us/core/StructureDefinition/us-core-body-temperature"]},"status":"final","category":[{"coding":[{"system":"http://terminology.hl7.org/CodeSystem/observation-category","code":"vital-signs","display":"Vital Signs"}]}],"code":{"coding":[{"system":"http://loinc.org","code":"8310-5"}]},"subject":{"reference":"Patient/8dd9d599-b0a6-49e2-8eac-b4ff9378f9a1"},"effectiveDateTime":"2022-12-02T00:00:00+00:00","valueQuantity":{"value":65.95,"unit":"kilogram","system":"http://unitsofmeasure.org","code":"kg"}}},{"fullUrl":"Observation/19b201e5-adc0-4467-9d12-f8af9d2cb902","resource":{"resourceType":"Observation","id":"19b201e5-adc0-4467-9d12-f8af9d2cb902","meta":{"profile":["http://hl7.org/fhir/us/core/StructureDefinition/us-core-body-temperature"]},"status":"final","category":[{"coding":[{"system":"http://terminology.hl7.org/CodeSystem/observation-category","code":"vital-signs","display":"Vital Signs"}]}],"code":{"coding":[{"system":"http://loinc.org","code":"8310-5"}]},"subject":{"reference":"Patient/8dd9d599-b0a6-49e2-8eac-b4ff9378f9a1"},"effectiveDateTime":"2022-02-07T00:00:00+00:00","valueQuantity":{"value":100.62,"unit":"kilogram","system":"http://unitsofmeasure.org","code":"kg"}}},{"fullUrl":"Observation/cdd86888-52d1-4519-898b-53f19fdf0866","resource":{"resourceType":"Observation","id":"cdd86888-52d1-4519-898b-53f19fdf0866","meta":{"profile":["http://hl7.org/fhir/us/core/StructureDefinition/us-core-heart-rate"]},"status":"final","category":[{"coding":[{"system":"http://terminology.hl7.org/CodeSystem/observation-category","code":"vital-signs","display":"Vital Signs"}]}],"code":{"coding":[{"system":"http://loinc.org","code":"8867-4"}]},"subject":{"reference":"Patient/8dd9d599-b0a6-49e2-8eac-b4ff9378f9a1"},"effectiveDateTime":"2022-04-07T00:00:00+00:00","valueQuantity":{"value":96.4,"unit":"Degrees Fahrenheit","system":"http://unitsofmeasure.org","code":"[degF]"}}},{"fullUrl":"Observation/ee62c1ab-2409-4f68-a904-3f214ab316e8","resource":{"resourceType":"Observation","id":"ee62c1ab-2409-4f68-a904-3f214ab316e8","meta":{"profile":["http://hl7.org/fhir/us/core/StructureDefinition/us-core-heart-rate"]},"status":"final","category":[{"coding":[{"system":"http://terminology.hl7.org/CodeSystem/observation-category","code":"vital-signs","display":"Vital Signs"}]}],"code":{"coding":[{"system":"http://loinc.org","code":"8867-4"}]},"subject":{"reference":"Patient/8dd9d599-b0a6-49e2-8eac-b4ff9378f9a1"},"effectiveDateTime":"2022-11-04T00:00:00+00:00","valueQuantity":{"value":100.1,"unit":"Degrees Fahrenheit","system":"http://unitsofmeasure.org","code":"[degF]"}}},{"fullUrl":"Patient/b1d3c9d2-a1fd-4ae7-8194-186f37f5c8c3","resource":{"resourceType":"Patient","id":"b1d3c9d2-a1fd-4ae7-8194-186f37f5c8c3","meta":{"profile":["http://hl7.org/fhir/us/core/StructureDefinition/us-core-patient"]},"identifier":[{"type":{"coding":[{"system":"http://terminology.hl7.org/CodeSystem/v2-0203","code":"MR"}]},"system":"urn:fhirgen:mrn","value":"348-76-4454"}],"name":[{"family":"Williams","given":["Danielle"]}],"gender":"other","birthDate":"2003-03-26","address":[{"line":["63204 Matthew Island"],"city":"New Austinville","state":"Alaska"}]}},{"fullUrl":"Observation/a75609da-0e41-461a-80a7-060c0a68538d","resource":{"resourceType":"Observation","id":"a75609da-0e41-461a-80a7-060c0a68538d","meta":{"profile":["http://hl7.org/fhir/us/core/StructureDefinition/us-core-observation-lab"]},"status":"final","category":[{"coding":[{"system":"http://terminology.hl7.org/CodeSystem/observation-category","code":"laboratory","display":"Laboratory"}]}],"code":{"coding":[{"system":"http://loinc.org","code":"5394-2"}]},"subject":{"reference":"Patient/b1d3c9d2-a1fd-4ae7-8194-186f37f5c8c3"},"effectiveDateTime":"2022-02-03T00:00:00+00:00","valueRatio":{"numerator":{"value":1.0},"denominator":{"value":32.0}}}},{"fullUrl":"Observation/2b08fcf0-2b24-49d9-aaf0-afce09786298","resource":{"resourceType":"Observation","id":"2b08fcf0-2b24-49d9-aaf0-afce09786298","meta":{"profile":["http://hl7.org/fhir/us/core/StructureDefinition/us-core-observation-lab"]},"status":"final","category":[{"coding":[{"system":"http://terminology.hl7.org/CodeSystem/observation-category","code":"laboratory","display":"Laboratory"}]}],"code":{"coding":[{"system":"http://loinc.org","code":"31146-4"}]},"subject":{"reference":"Patient/b1d3c9d2-a1fd-4ae7-8194-186f37f5c8c3"},"effectiveDateTime":"2022-10-12T00:00:00+00:00","valueRatio":{"numerator":{"value":1.0},"denominator":{"value":32.0}}}},{"fullUrl":"Condition/57f91738-ceba-407c-925b-fe9b64301eb7","resource":{"resourceType":"Condition","id":"57f91738-ceba-407c-925b-fe9b64301eb7","meta":{"profile":["http://hl7.org/fhir/us/core/StructureDefinition/us-core-condition"]},"clinicalStatus":{"coding":[{"system":"http://terminology.hl7.org/CodeSystem/condition-clinical","code":"active","display":"Active"}]},"category":[{"coding":[{"system":"http://terminology.hl7.org/CodeSystem/condition-ver-status","code":"confirmed"}]}],"code":{"coding":[{"system":"http://snomed.info/sct","code":"91554004"}]},"subject":{"reference":"Patient/b1d3c9d2-a1fd-4ae7-8194-186f37f5c8c3"},"onsetDateTime":"2022-11-16T00:00:00+00:00"}},{"fullUrl":"Condition/ca3c1553-f71c-408f-ac92-beaefc9424e6","resource":{"resourceType":"Condition","id":"ca3c1553-f71c-408f-ac92-beaefc9424e6","meta":{"profile":["http://hl7.org/fhir/us/core/StructureDefinition/us-core-condition"]},"clinicalStatus":{"coding":[{"system":"http://terminology.hl7.org/CodeSystem/condition-clinical","code":"active","display":"Active"}]},"category":[{"coding":[{"system":"http://terminology.hl7.org/CodeSystem/condition-ver-status","code":"confirmed"}]}],"code":{"coding":[{"system":"http://snomed.info/sct","code":"709977002"}]},"subject":{"reference":"Patient/b1d3c9d2-a1fd-4ae7-8194-186f37f5c8c3"},"onsetDateTime":"2022-08-26T00:00:00+00:00"}},{"fullUrl":"Condition/007cf9f7-064e-4660-b653-f5b48dab1282","resource":{"resourceType":"Condition","id":"007cf9f7-064e-4660-b653-f5b48dab1282","meta":{"profile":["http://hl7.org/fhir/us/core/StructureDefinition/us-core-condition"]},"clinicalStatus":{"coding":[{"system":"http://terminology.hl7.org/CodeSystem/condition-clinical","code":"active","display":"Active"}]},"category":[{"coding":[{"system":"http://terminology.hl7.org/CodeSystem/condition-ver-status","code":"confirmed"}]}],"code":{"coding":[{"system":"http://snomed.info/sct","code":"44882003"}]},"subject":{"reference":"Patient/b1d3c9d2-a1fd-4ae7-8194-186f37f5c8c3"},"onsetDateTime":"2022-07-31T00:00:00+00:00"}},{"fullUrl":"Condition/15ffbf81-0c56-41ba-b0c7-cf4483c19671","resource":{"resourceType":"Condition","id":"15ffbf81-0c56-41ba-b0c7-cf4483c19671","meta":{"profile":["http://hl7.org/fhir/us/core/StructureDefinition/us-core-condition"]},"clinicalStatus":{"coding":[{"system":"http://terminology.hl7.org/CodeSystem/condition-clinical","code":"active","display":"Active"}]},"category":[{"coding":[{"system":"http://terminology.hl7.org/CodeSystem/condition-ver-status","code":"confirmed"}]}],"code":{"coding":[{"system":"http://snomed.info/sct","code":"709977002"}]},"subject":{"reference":"Patient/b1d3c9d2-a1fd-4ae7-8194-186f37f5c8c3"},"onsetDateTime":"2022-01-11T00:00:00+00:00"}},{"fullUrl":"Condition/055e8e26-03c8-4d9a-aef6-afaa794f93ab","resource":{"resourceType":"Condition","id":"055e8e26-03c8-4d9a-aef6-afaa794f93ab","meta":{"profile":["http://hl7.org/fhir/us/core/StructureDefinition/us-core-condition"]},"clinicalStatus":{"coding":[{"system":"http://terminology.hl7.org/CodeSystem/condition-clinical","code":"active","display":"Active"}]},"category":[{"coding":[{"system":"http://terminology.hl7.org/CodeSystem/condition-ver-status","code":"confirmed"}]}],"code":{"coding":[{"system":"http://snomed.info/sct","code":"709977002"}]},"subject":{"reference":"Patient/b1d3c9d2-a1fd-4ae7-8194-186f37f5c8c3"},"onsetDateTime":"2022-04-21T00:00:00+00:00"}},{"fullUrl":"Condition/51665890-fd9c-49ae-9ee1-6650cea39936","resource":{"resourceType":"Condition","id":"51665890-fd9c-49ae-9ee1-6650cea39936","meta":{"profile":["http://hl7.org/fhir/us/core/StructureDefinition/us-core-condition"]},"clinicalStatus":{"coding":[{"system":"http://terminology.hl7.org/CodeSystem/condition-clinical","code":"active","display":"Active"}]},"category":[{"coding":[{"system":"http://terminology.hl7.org/CodeSystem/condition-ver-status","code":"confirmed"}]}],"code":{"coding":[{"system":"http://snomed.info/sct","code":"44882003"}]},"subject":{"reference":"Patient/b1d3c9d2-a1fd-4ae7-8194-186f37f5c8c3"},"onsetDateTime":"2022-12-21T00:00:00+00:00"}},{"fullUrl":"Condition/30c0805b-2eb7-44c3-8b92-48fa69fdfb90","resource":{"resourceType":"Condition","id":"30c0805b-2eb7-44c3-8b92-48fa69fdfb90","meta":{"profile":["http://hl7.org/fhir/us/core/StructureDefinition/us-core-condition"]},"clinicalStatus":{"coding":[{"system":"http://terminology.hl7.org/CodeSystem/condition-clinical","code":"active","display":"Active"}]},"category":[{"coding":[{"system":"http://terminology.hl7.org/CodeSystem/condition-ver-status","code":"confirmed"}]}],"code":{"coding":[{"system":"http://snomed.info/sct","code":"709977002"}]},"subject":{"reference":"Patient/b1d3c9d2-a1fd-4ae7-8194-186f37f5c8c3"},"onsetDateTime":"2022-06-17T00:00:00+00:00"}},{"fullUrl":"Condition/df190856-1da2-470d-9964-059d3a9c860c","resource":{"resourceType":"Condition","id":"df190856-1da2-470d-9964-059d3a9c860c","meta":{"profile":["http://hl7.org/fhir/us/core/StructureDefinition/us-core-condition"]},"clinicalStatus":{"coding":[{"system":"http://terminology.hl7.org/CodeSystem/condition-clinical","code":"active","display":"Active"}]},"category":[{"coding":[{"system":"http://terminology.hl7.org/CodeSystem/condition-ver-status","code":"confirmed"}]}],"code":{"coding":[{"system":"http://snomed.info/sct","code":"736686006"}]},"subject":{"reference":"Patient/b1d3c9d2-a1fd-4ae7-8194-186f37f5c8c3"},"onsetDateTime":"2022-01-18T00:00:00+00:00"}},{"fullUrl":"Observation/801cb026-8529-494c-8f8d-1c09c065483f","resource":{"resourceType":"Observation","id":"801cb026-8529-494c-8f8d-1c09c065483f","meta":{"profile":["http://hl7.org/fhir/us/core/StructureDefinition/us-core-observation-lab"]},"status":"final","category":[{"coding":[{"system":"http://terminology.hl7.org/CodeSystem/observation-category","code":"laboratory","display":"Laboratory"}]}],"code":{"coding":[{"system":"http://loinc.org","code":"6690-2"}]},"subject":{"reference":"Patient/b1d3c9d2-a1fd-4ae7-8194-186f37f5c8c3"},"effectiveDateTime":"2022-09-12T00:00:00+00:00","valueQuantity":{"value":10.3}}},{"fullUrl":"Observation/77dfc6dd-00ee-4498-8416-bacb65c1aff2","resource":{"resourceType":"Observation","id":"77dfc6dd-00ee-4498-8416-bacb65c1aff2","meta":{"profile":["http://hl7.org/fhir/us/core/StructureDefinition/us-core-observation-lab"]},"status":"final","category":[{"coding":[{"system":"http://terminology.hl7.org/CodeSystem/observation-category","code":"laboratory","display":"Laboratory"}]}],"code":{"coding":[{"system":"http://loinc.org","code":"26464-8"}]},"subject":{"reference":"Patient/b1d3c9d2-a1fd-4ae7-8194-186f37f5c8c3"},"effectiveDateTime":"2022-06-30T00:00:00+00:00","valueQuantity":{"value":9.3}}},{"fullUrl":"Observation/59769525-d5a4-48f4-936b-05cdf2c2551d","resource":{"resourceType":"Observation","id":"59769525-d5a4-48f4-936b-05cdf2c2551d","meta":{"profile":["http://hl7.org/fhir/us/core/StructureDefinition/us-core-bmi"]},"status":"final","category":[{"coding":[{"system":"http://terminology.hl7.org/CodeSystem/observation-category","code":"vital-signs","display":"Vital Signs"}]}],"code":{"coding":[{"system":"http://loinc.org","code":"39156-5"}]},"subject":{"reference":"Patient/b1d3c9d2-a1fd-4ae7-8194-186f37f5c8c3"},"effectiveDateTime":"2022-11-04T00:00:00+00:00","valueQuantity":{"value":19.31,"unit":"kg/m2","system":"http://unitsofmeasure.org","code":"kg/m2"}}},{"fullUrl":"Observation/270e2897-b2a0-4b36-ad4f-89087910c7a4","resource":{"resourceType":"Observation","id":"270e2897-b2a0-4b36-ad4f-89087910c7a4","meta":{"profile":["http://hl7.org/fhir/us/core/StructureDefinition/us-core-head-circumference"]},"status":"final","category":[{"coding":[{"system":"http://terminology.hl7.org/CodeSystem/observation-category","code":"vital-signs","display":"Vital Signs"}]}],"code":{"coding":[{"system":"http://loinc.org","code":"9843-4"}]},"subject":{"reference":"Patient/b1d3c9d2-a1fd-4ae7-8194-186f37f5c8c3"},"effectiveDateTime":"2022-09-24T00:00:00+00:00","valueQuantity":{"value":4.9,"unit":"Inch","system":"http://unitsofmeasure.org","code":"[in_i]"}}},{"fullUrl":"Observation/d07736db-fb66-43cb-8f3e-688126589f62","resource":{"resourceType":"Observation","id":"d07736db-fb66-43cb-8f3e-688126589f62","meta":{"profile":["http://hl7.org/fhir/us/core/StructureDefinition/us-core-head-circumference"]},"status":"final","category":[{"coding":[{"system":"http://terminology.hl7.org/CodeSystem/observation-category","code":"vital-signs","display":"Vital Signs"}]}],"code":{"coding":[{"system":"http://loinc.org","code":"9843-4"}]},"subject":{"reference":"Patient/b1d3c9d2-a1fd-4ae7-8194-186f37f5c8c3"},"effectiveDateTime":"2022-02-08T00:00:00+00:00","valueQuantity":{"value":7.5,"unit":"Inch","system":"http://unitsofmeasure.org","code":"[in_i]"}}},{"fullUrl":"Observation/786d49fa-7d9b-4d90-ae4b-968b3fb8f869","resource":{"resourceType":"Observation","id":"786d49fa-7d9b-4d90-ae4b-968b3fb8f869","meta":{"profile":["http://hl7.org/fhir/us/core/StructureDefinition/us-core-body-height"]},"status":"final","category":[{"coding":[{"system":"http://terminology.hl7.org/CodeSystem/observation-category","code":"vital-signs","display":"Vital Signs"}]}],"code":{"coding":[{"system":"http://loinc.org","code":"8302-2"}]},"subject":{"reference":"Patient/b1d3c9d2-a1fd-4ae7-8194-186f37f5c8c3"},"effectiveDateTime":"2022-05-06T00:00:00+00:00","valueQuantity":{"value":81.7,"unit":"Inch","system":"http://unitsofmeasure.org","code":"[in_i]"}}},{"fullUrl":"Observation/6c60d49c-5285-4df8-ab9e-724fa7495f14","resource":{"resourceType":"Observation","id":"6c60d49c-5285-4df8-ab9e-724fa7495f14","meta":{"profile":["http://hl7.org/fhir/us/core/StructureDefinition/us-core-body-weight"]},"status":"final","category":[{"coding":[{"system":"http://terminology.hl7.org/CodeSystem/observation-category","code":"vital-signs","display":"Vital Signs"}]}],"code":{"coding":[{"system":"http://loinc.org","code":"29463-7"}]},"subject":{"reference":"Patient/b1d3c9d2-a1fd-4ae7-8194-186f37f5c8c3"},"effectiveDateTime":"2022-11-20T00:00:00+00:00","valueQuantity":{"value":105.09,"unit":"kilogram","system":"http://unitsofmeasure.org","code":"kg"}}},{"fullUrl":"Observation/32d6fe65-7a7a-439d-8b6e-1c4b99abbcb4","resource":{"resourceType":"Observation","id":"32d6fe65-7a7a-439d-8b6e-1c4b99abbcb4","meta":{"profile":["http://hl7.org/fhir/us/core/StructureDefinition/us-core-body-temperature"]},"status":"final","category":[{"coding":[{"system":"http://terminology.hl7.org/CodeSystem/observation-category","code":"vital-signs","display":"Vital Signs"}]}],"code":{"coding":[{"system":"http://loinc.org","code":"8310-5"}]},"subject":{"reference":"Patient/b1d3c9d2-a1fd-4ae7-8194-186f37f5c8c3"},"effectiveDateTime":"2022-08-07T00:00:00+00:00","valueQuantity":{"value":88.9,"unit":"kilogram","system":"http://unitsofmeasure.org","code":"kg"}}},{"fullUrl":"Observation/98329015-f2fb-4d2a-b19f-e40dd1ba3445","resource":{"resourceType":"Observation","id":"98329015-f2fb-4d2a-b19f-e40dd1ba3445","meta":{"profile":["http://hl7.org/fhir/us/core/StructureDefinition/us-core-heart-rate"]},"status":"final","category":[{"coding":[{"system":"http://terminology.hl7.org/CodeSystem/observation-category","code":"vital-signs","display":"Vital Signs"}]}],"code":{"coding":[{"system":"http://loinc.org","code":"8867-4"}]},"subject":{"reference":"Patient/b1d3c9d2-a1fd-4ae7-8194-186f37f5c8c3"},"effectiveDateTime":"2022-04-05T00:00:00+00:00","valueQuantity":{"value":96.8,"unit":"Degrees Fahrenheit","system":"http://unitsofmeasure.org","code":"[degF]"}}}]}