{"resourceType":"Bundle","id":"d7353f92-ae3e-4648-9b6f-b2f05a71940b","type":"transaction","entry":[{"fullUrl":"Patient/58153824-6199-4cc4-a7cd-926a39c39078","resource":{"resourceType":"Patient","id":"58153824-6199-4cc4-a7cd-926a39c39078","meta":{"profile":["http://hl7.org/fhir/us/core/StructureDefinition/us-core-patient"]},"extension":[{"extension":[{"url":"ombCategory","valueCoding":{"system":"http://terminology.hl7.org/CodeSystem/v3-NullFlavor","code":"UNK","display":"unknown"}},{"url":"text","valueString":"unknown"}],"url":"http://hl7.org/fhir/us/core/StructureDefinition/us-core-race"},{"extension":[{"url":"ombCategory","valueCoding":{"system":"urn:oid:2.16.840.1.113883.6.238","code":"2186-5","display":"Non Hispanic or Latino"}},{"url":"text","valueString":"Non Hispanic or Latino"}],"url":"http://hl7.org/fhir/us/core/StructureDefinition/us-core-ethnicity"}],"identifier":[{"type":{"coding":[{"system":"http://terminology.hl7.org/CodeSystem/v2-0203","code":"MR"}]},"system":"urn:fhirgen:mrn","value":"097-21-2331"}],"name":[{"use":"official","family":"Nelson","given":["Jason"]},{"use":"maiden","family":"Johnson"}],"telecom":[{"system":"phone","value":"939-351-2558","use":"home"},{"system":"email","value":"townsenddaniel@hotmail.com","use":"work"}],"gender":"male","birthDate":"2001-01-24","address":[{"use":"home","line":["14112 Clark Crescent"],"city":"North David","state":"MN","postalCode":"12071"},{"use":"old","line":["28841 Mason Well Apt. 768"],"city":"Harrystad","state":"WA","postalCode":"43499"}]},"request":{"method":"POST","url":"Patient"}},{"fullUrl":"Observation/97c8ff84-002c-4400-8079-d41362bc16c0","resource":{"resourceType":"Observation","id":"97c8ff84-002c-4400-8079-d41362bc16c0","meta":{"profile":["http://hl7.org/fhir/us/core/StructureDefinition/us-core-observation-lab"]},"status":"final","category":[{"coding":[{"system":"http://terminology.hl7.org/CodeSystem/observation-category","code":"laboratory","display":"Laboratory"}]}],"code":{"coding":[{"system":"http://loinc.org","code":"31146-4"}]},"subject":{"reference":"Patient/58153824-6199-4cc4-a7cd-926a39c39078"},"effectiveDateTime":"2022-07-06T00:00:00+00:00","valueRatio":{"numerator":{"value":1},"denominator":{"value":64}}},"request":{"method":"POST","url":"Observation"}},{"fullUrl":"Observation/58c910ab-51f1-43ec-9920-1373e4eefe6b","resource":{"resourceType":"Observation","id":"58c910ab-51f1-43ec-9920-1373e4eefe6b","meta":{"profile":["http://hl7.org/fhir/us/core/StructureDefinition/us-core-observation-lab"]},"status":"final","category":[{"coding":[{"system":"http://terminology.hl7.org/CodeSystem/observation-category","code":"laboratory","display":"Laboratory"}]}],"code":{"coding":[{"system":"http://loinc.org","code":"50690-7"}]},"subject":{"reference":"Patient/58153824-6199-4cc4-a7cd-926a39c39078"},"effectiveDateTime":"2022-09-24T00:00:00+00:00","valueRatio":{"numerator":{"value":1},"denominator":{"value":64}}},"request":{"method":"POST","url":"Observation"}},{"fullUrl":"Condition/65cb4e49-cf7d-4995-b397-72ad0e3c3685","resource":{"resourceType":"Condition","id":"65cb4e49-cf7d-4995-b397-72ad0e3c3685","meta":{"profile":["http://hl7.org/fhir/us/core/StructureDefinition/us-core-condition"]},"clinicalStatus":{"coding":[{"system":"http://terminology.hl7.org/CodeSystem/condition-clinical","code":"active","display":"Active"}]},"category":[{"coding":[{"system":"http://terminology.hl7.org/CodeSystem/condition-category","code":"problem-list-item"}]}],"code":{"coding":[{"system":"http://snomed.info/sct","code":"418290006"}]},"subject":{"reference":"Patient/58153824-6199-4cc4-a7cd-926a39c39078"},"onsetDateTime":"2022-05-14T00:00:00+00:00"},"request":{"method":"POST","url":"Condition"}},{"fullUrl":"Condition/af95f079-1cca-4af8-9611-60af4c42a1bc","resource":{"resourceType":"Condition","id":"af95f079-1cca-4af8-9611-60af4c42a1bc","meta":{"profile":["http://hl7.org/fhir/us/core/StructureDefinition/us-core-condition"]},"clinicalStatus":{"coding":[{"system":"http://terminology.hl7.org/CodeSystem/condition-clinical","code":"active","display":"Active"}]},"category":[{"coding":[{"system":"http://terminology.hl7.org/CodeSystem/condition-category","code":"problem-list-item"}]}],"code":{"coding":[{"system":"http://snomed.info/sct","code":"91554004"}]},"subject":{"reference":"Patient/58153824-6199-4cc4-a7cd-926a39c39078"},"onsetDateTime":"2022-08-08T00:00:00+00:00"},"request":{"method":"POST","url":"Condition"}},{"fullUrl":"Condition/e1e43c5c-32c4-4748-958d-83566f251b61","resource":{"resourceType":"Condition","id":"e1e43c5c-32c4-4748-958d-83566f251b61","meta":{"profile":["http://hl7.org/fhir/us/core/StructureDefinition/us-core-condition"]},"clinicalStatus":{"coding":[{"system":"http://terminology.hl7.org/CodeSystem/condition-clinical","code":"active","display":"Active"}]},"category":[{"coding":[{"system":"http://terminology.hl7.org/CodeSystem/condition-category","code":"problem-list-item"}]}],"code":{"coding":[{"system":"http://snomed.info/sct","code":"91554004"}]},"subject":{"reference":"Patient/58153824-6199-4cc4-a7cd-926a39c39078"},"onsetDateTime":"2022-05-16T00:00:00+00:00"},"request":{"method":"POST","url":"Condition"}},{"fullUrl":"Condition/682e848e-fce4-431d-a9d7-6b2aef80ef5a","resource":{"resourceType":"Condition","id":"682e848e-fce4-431d-a9d7-6b2aef80ef5a","meta":{"profile":["http://hl7.org/fhir/us/core/StructureDefinition/us-core-condition"]},"clinicalStatus":{"coding":[{"system":"http://terminology.hl7.org/CodeSystem/condition-clinical","code":"active","display":"Active"}]},"category":[{"coding":[{"system":"http://terminology.hl7.org/CodeSystem/condition-category","code":"problem-list-item"}]}],"code":{"coding":[{"system":"http://snomed.info/sct","code":"736686006"}]},"subject":{"reference":"Patient/58153824-6199-4cc4-a7cd-926a39c39078"},"onsetDateTime":"2022-02-02T00:00:00+00:00"},"request":{"method":"POST","url":"Condition"}},{"fullUrl":"Condition/ca425064-a0cf-4e59-a091-dbb5eb815b78","resource":{"resourceType":"Condition","id":"ca425064-a0cf-4e59-a091-dbb5eb815b78","meta":{"profile":["http://hl7.org/fhir/us/core/StructureDefinition/us-core-condition"]},"clinicalStatus":{"coding":[{"system":"http://terminology.hl7.org/CodeSystem/condition-clinical","code":"active","display":"Active"}]},"category":[{"coding":[{"system":"http://terminology.hl7.org/CodeSystem/condition-category","code":"problem-list-item"}]}],"code":{"coding":[{"system":"http://snomed.info/sct","code":"44882003"}]},"subject":{"reference":"Patient/58153824-6199-4cc4-a7cd-926a39c39078"},"onsetDateTime":"2022-07-26T00:00:00+00:00"},"request":{"method":"POST","url":"Condition"}},{"fullUrl":"Observation/116f005c-454e-48b7-a2a2-42810ed46269","resource":{"resourceType":"Observation","id":"116f005c-454e-48b7-a2a2-42810ed46269","meta":{"profile":["http://hl7.org/fhir/us/core/StructureDefinition/us-core-observation-lab"]},"status":"final","category":[{"coding":[{"system":"http://terminology.hl7.org/CodeSystem/observation-category","code":"laboratory","display":"Laboratory"}]}],"code":{"coding":[{"system":"http://loinc.org","code":"6690-2"}]},"subject":{"reference":"Patient/58153824-6199-4cc4-a7cd-926a39c39078"},"effectiveDateTime":"2022-01-20T00:00:00+00:00","valueQuantity":{"value":9}},"request":{"method":"POST","url":"Observation"}},{"fullUrl":"Observation/9e5f3051-b7f5-46f4-8835-9951df5010eb","resource":{"resourceType":"Observation","id":"9e5f3051-b7f5-46f4-8835-9951df5010eb","meta":{"profile":["http://hl7.org/fhir/us/core/StructureDefinition/us-core-observation-lab"]},"status":"final","category":[{"coding":[{"system":"http://terminology.hl7.org/CodeSystem/observation-category","code":"laboratory","display":"Laboratory"}]}],"code":{"coding":[{"system":"http://loinc.org","code":"26464-8"}]},"subject":{"reference":"Patient/58153824-6199-4cc4-a7cd-926a39c39078"},"effectiveDateTime":"2022-10-25T00:00:00+00:00","valueQuantity":{"value":5.7}},"request":{"method":"POST","url":"Observation"}},{"fullUrl":"Observation/015303e9-07e8-4b1e-b86b-19b1baac66a0","resource":{"resourceType":"Observation","id":"015303e9-07e8-4b1e-b86b-19b1baac66a0","meta":{"profile":["http://hl7.org/fhir/us/core/StructureDefinition/us-core-observation-lab"]},"status":"final","category":[{"coding":[{"system":"http://terminology.hl7.org/CodeSystem/observation-category","code":"laboratory","display":"Laboratory"}]}],"code":{"coding":[{"system":"http://loinc.org","code":"26464-8"}]},"subject":{"reference":"Patient/58153824-6199-4cc4-a7cd-926a39c39078"},"effectiveDateTime":"2022-05-26T00:00:00+00:00","valueQuantity":{"value":9.6}},"request":{"method":"POST","url":"Observation"}},{"fullUrl":"Observation/30317b0f-2df9-419c-a36f-92d4475e29da","resource":{"resourceType":"Observation","id":"30317b0f-2df9-419c-a36f-92d4475e29da","meta":{"profile":["http://hl7.org/fhir/us/core/StructureDefinition/us-core-bmi"]},"status":"final","category":[{"coding":[{"system":"http://terminology.hl7.org/CodeSystem/observation-category","code":"vital-signs","display":"Vital Signs"}]}],"code":{"coding":[{"system":"http://loinc.org","code":"39156-5"}]},"subject":{"reference":"Patient/58153824-6199-4cc4-a7cd-926a39c39078"},"effectiveDateTime":"2022-11-06T00:00:00+00:00","valueQuantity":{"value":22.26,"unit":"kg/m2","system":"http://unitsofmeasure.org","code":"kg/m2"}},"request":{"method":"POST","url":"Observation"}},{"fullUrl":"Observation/3c173e66-35c5-4da2-9a5a-d700467423e5","resource":{"resourceType":"Observation","id":"3c173e66-35c5-4da2-9a5a-d700467423e5","meta":{"profile":["http://hl7.org/fhir/us/core/StructureDefinition/us-core-head-circumference"]},"status":"final","category":[{"coding":[{"system":"http://terminology.hl7.org/CodeSystem/observation-category","code":"vital-signs","display":"Vital Signs"}]}],"code":{"coding":[{"system":"http://loinc.org","code":"9843-4"}]},"subject":{"reference":"Patient/58153824-6199-4cc4-a7cd-926a39c39078"},"effectiveDateTime":"2022-02-07T00:00:00+00:00","valueQuantity":{"value":8.9,"unit":"Inch","system":"http://unitsofmeasure.org","code":"[in_i]"}},"request":{"method":"POST","url":"Observation"}},{"fullUrl":"Observation/2aa509c9-501b-44a5-9a0e-363925cd6abf","resource":{"resourceType":"Observation","id":"2aa509c9-501b-44a5-9a0e-363925cd6abf","meta":{"profile":["http://hl7.org/fhir/us/core/StructureDefinition/us-core-head-circumference"]},"status":"final","category":[{"coding":[{"system":"http://terminology.hl7.org/CodeSystem/observation-category","code":"vital-signs","display":"Vital Signs"}]}],"code":{"coding":[{"system":"http://loinc.org","code":"9843-4"}]},"subject":{"reference":"Patient/58153824-6199-4cc4-a7cd-926a39c39078"},"effectiveDateTime":"2022-11-20T00:00:00+00:00","valueQuantity":{"value":2.3,"unit":"Inch","system":"http://unitsofmeasure.org","code":"[in_i]"}},"request":{"method":"POST","url":"Observation"}},{"fullUrl":"Observation/3a8cf8ad-5db9-454d-806d-0fb48ee74a04","resource":{"resourceType":"Observation","id":"3a8cf8ad-5db9-454d-806d-0fb48ee74a04","meta":{"profile":["http://hl7.org/fhir/us/core/StructureDefinition/us-core-body-height"]},"status":"final","category":[{"coding":[{"system":"http://terminology.hl7.org/CodeSystem/observation-category","code":"vital-signs","display":"Vital Signs"}]}],"code":{"coding":[{"system":"http://loinc.org","code":"8302-2"}]},"subject":{"reference":"Patient/58153824-6199-4cc4-a7cd-926a39c39078"},"effectiveDateTime":"2022-08-21T00:00:00+00:00","valueQuantity":{"value":62.5,"unit":"Inch","system":"http://unitsofmeasure.org","code":"[in_i]"}},"request":{"method":"POST","url":"Observation"}},{"fullUrl":"Observation/0e521f63-bdee-4f7d-ae1c-3ca697e259e8","resource":{"resourceType":"Observation","id":"0e521f63-bdee-4f7d-ae1c-3ca697e259e8","meta":{"profile":["http://hl7.org/fhir/us/core/StructureDefinition/us-core-body-weight"]},"status":"final","category":[{"coding":[{"system":"http://terminology.hl7.org/CodeSystem/observation-category","code":"vital-signs","display":"Vital Signs"}]}],"code":{"coding":[{"system":"http://loinc.org","code":"29463-7"}]},"subject":{"reference":"Patient/58153824-6199-4cc4-a7cd-926a39c39078"},"effectiveDateTime":"2022-02-07T00:00:00+00:00","valueQuantity":{"value":81.85,"unit":"kilogram","system":"http://unitsofmeasure.org","code":"kg"}},"request":{"method":"POST","url":"Observation"}},{"fullUrl":"Observation/8d970c13-0410-4d2f-9786-5b8ace95b087","resource":{"resourceType":"Observation","id":"8d970c13-0410-4d2f-9786-5b8ace95b087","meta":{"profile":["http://hl7.org/fhir/us/core/StructureDefinition/us-core-body-temperature"]},"status":"final","category":[{"coding":[{"system":"http://terminology.hl7.org/CodeSystem/observation-category","code":"vital-signs","display":"Vital Signs"}]}],"code":{"coding":[{"system":"http://loinc.org","code":"8310-5"}]},"subject":{"reference":"Patient/58153824-6199-4cc4-a7cd-926a39c39078"},"effectiveDateTime":"2022-11-25T00:00:00+00:00","valueQuantity":{"value":28.22,"unit":"Degrees Fahrenheit","system":"http://unitsofmeasure.org","code":"[degF]"}},"request":{"method":"POST","url":"Observation"}},{"fullUrl":"Observation/4819583b-6546-4f24-9d40-19df9155257d","resource":{"resourceType":"Observation","id":"4819583b-6546-4f24-9d40-19df9155257d","meta":{"profile":["http://hl7.org/fhir/us/core/StructureDefinition/us-core-heart-rate"]},"status":"final","category":[{"coding":[{"system":"http://terminology.hl7.org/CodeSystem/observation-category","code":"vital-signs","display":"Vital Signs"}]}],"code":{"coding":[{"system":"http://loinc.org","code":"8867-4"}]},"subject":{"reference":"Patient/58153824-6199-4cc4-a7cd-926a39c39078"},"effectiveDateTime":"2022-05-02T00:00:00+00:00","valueQuantity":{"value":100.1,"unit":"Per Minute","system":"http://unitsofmeasure.org","code":"/min"}},"request":{"method":"POST","url":"Observation"}},{"fullUrl":"Patient/e9758341-0dbc-4449-a8e1-2af106636d76","resource":{"resourceType":"Patient","id":"e9758341-0dbc-4449-a8e1-2af106636d76","meta":{"profile":["http://hl7.org/fhir/us/core/StructureDefinition/us-core-patient"]},"extension":[{"extension":[{"url":"ombCategory","valueCoding":{"system":"http://terminology.hl7.org/CodeSystem/v3-NullFlavor","code":"UNK","display":"unknown"}},{"url":"text","valueString":"unknown"}],"url":"http://hl7.org/fhir/us/core/StructureDefinition/us-core-race"},{"extension":[{"url":"ombCategory","valueCoding":{"system":"urn:oid:2.16.840.1.113883.6.238","code":"2186-5","display":"Non Hispanic or Latino"}},{"url":"text","valueString":"Non Hispanic or Latino"}],"url":"http://hl7.org/fhir/us/core/StructureDefinition/us-core-ethnicity"}],"identifier":[{"type":{"coding":[{"system":"http://terminology.hl7.org/CodeSystem/v2-0203","code":"MR"}]},"system":"urn:fhirgen:mrn","value":"035-92-1092"}],"name":[{"use":"official","family":"Martin","given":["Bradley"]},{"use":"maiden","family":"Cruz"}],"telecom":[{"system":"phone","value":"001-540-500-0541x257","use":"work"},{"system":"email","value":"blackwellmichael@yahoo.com","use":"mobile"}],"gender":"male","birthDate":"1979-01-21","address":[{"use":"home","line":["05504 Jennifer Plaza"],"city":"Payneburgh","state":"TN","postalCode":"56274"},{"use":"old","line":["60343 Yvonne Extension Suite 905"],"city":"Johntown","state":"MN","postalCode":"15659"}]},"request":{"method":"POST","url":"Patient"}},{"fullUrl":"Observation/cfe8dbe9-476a-49fc-a837-37e9816f5c88","resource":{"resourceType":"Observation","id":"cfe8dbe9-476a-49fc-a837-37e9816f5c88","meta":{"profile":["http://hl7.org/fhir/us/core/StructureDefinition/us-core-observation-lab"]},"status":"final","category":[{"coding":[{"system":"http://terminology.hl7.org/CodeSystem/observation-category","code":"laboratory","display":"Laboratory"}]}],"code":{"coding":[{"system":"http://loinc.org","code":"5394-2"}]},"subject":{"reference":"Patient/e9758341-0dbc-4449-a8e1-2af106636d76"},"effectiveDateTime":"2022-11-02T00:00:00+00:00","valueRatio":{"numerator":{"value":1},"denominator":{"value":32}}},"request":{"method":"POST","url":"Observation"}},{"fullUrl":"Observation/4a4d1ef9-d866-43c8-af9b-31edc02f3348","resource":{"resourceType":"Observation","id":"4a4d1ef9-d866-43c8-af9b-31edc02f3348","meta":{"profile":["http://hl7.org/fhir/us/core/StructureDefinition/us-core-observation-lab"]},"status":"final","category":[{"coding":[{"system":"http://terminology.hl7.org/CodeSystem/observation-category","code":"laboratory","display":"Laboratory"}]}],"code":{"coding":[{"system":"http://loinc.org","code":"5394-2"}]},"subject":{"reference":"Patient/e9758341-0dbc-4449-a8e1-2af106636d76"},"effectiveDateTime":"2022-11-15T00:00:00+00:00","valueRatio":{"numerator":{"value":1},"denominator":{"value":32}}},"request":{"method":"POST","url":"Observation"}},{"fullUrl":"Observation/fdecb5af-c1b7-49cb-871e-240e29e58a75","resource":{"resourceType":"Observation","id":"fdecb5af-c1b7-49cb-871e-240e29e58a75","meta":{"profile":["http://hl7.org/fhir/us/core/StructureDefinition/us-core-observation-lab"]},"status":"final","category":[{"coding":[{"system":"http://terminology.hl7.org/CodeSystem/observation-category","code":"laboratory","display":"Laboratory"}]}],"code":{"coding":[{"system":"http://loinc.org","code":"71793-4"}]},"subject":{"reference":"Patient/e9758341-0dbc-4449-a8e1-2af106636d76"},"effectiveDateTime":"2022-10-03T00:00:00+00:00","valueRatio":{"numerator":{"value":1},"denominator":{"value":4}}},"request":{"method":"POST","url":"Observation"}},{"fullUrl":"Condition/acaffe50-2827-49ef-ae27-c6dc06a9cc79","resource":{"resourceType":"Condition","id":"acaffe50-2827-49ef-ae27-c6dc06a9cc79","meta":{"profile":["http://hl7.org/fhir/us/core/StructureDefinition/us-core-condition"]},"clinicalStatus":{"coding":[{"system":"http://terminology.hl7.org/CodeSystem/condition-clinical","code":"active","display":"Active"}]},"category":[{"coding":[{"system":"http://terminology.hl7.org/CodeSystem/condition-category","code":"problem-list-item"}]}],"code":{"coding":[{"system":"http://snomed.info/sct","code":"736686006"}]},"subject":{"reference":"Patient/e9758341-0dbc-4449-a8e1-2af106636d76"},"onsetDateTime":"2022-12-28T00:00:00+00:00"},"request":{"method":"POST","url":"Condition"}},{"fullUrl":"Condition/cec6b3b5-f29e-44a4-ac9d-456d3d0dc0a6","resource":{"resourceType":"Condition","id":"cec6b3b5-f29e-44a4-ac9d-456d3d0dc0a6","meta":{"profile":["http://hl7.org/fhir/us/core/StructureDefinition/us-core-condition"]},"clinicalStatus":{"coding":[{"system":"http://terminology.hl7.org/CodeSystem/condition-clinical","code":"active","display":"Active"}]},"category":[{"coding":[{"system":"http://terminology.hl7.org/CodeSystem/condition-category","code":"problem-list-item"}]}],"code":{"coding":[{"system":"http://snomed.info/sct","code":"91554004"}]},"subject":{"reference":"Patient/e9758341-0dbc-4449-a8e1-2af106636d76"},"onsetDateTime":"2022-02-19T00:00:00+00:00"},"request":{"method":"POST","url":"Condition"}},{"fullUrl":"Condition/fddd4b7c-3396-4497-a6f9-7af9cff5cf20","resource":{"resourceType":"Condition","id":"fddd4b7c-3396-4497-a6f9-7af9cff5cf20","meta":{"profile":["http://hl7.org/fhir/us/core/StructureDefinition/us-core-condition"]},"clinicalStatus":{"coding":[{"system":"http://terminology.hl7.org/CodeSystem/condition-clinical","code":"active","display":"Active"}]},"category":[{"coding":[{"system":"http://terminology.hl7.org/CodeSystem/condition-category","code":"problem-list-item"}]}],"code":{"coding":[{"system":"http://snomed.info/sct","code":"709977002"}]},"subject":{"reference":"Patient/e9758341-0dbc-4449-a8e1-2af106636d76"},"onsetDateTime":"2022-06-26T00:00:00+00:00"},"request":{"method":"POST","url":"Condition"}},{"fullUrl":"Condition/e27e4f5f-b737-4638-86db-045b481b5a2d","resource":{"resourceType":"Condition","id":"e27e4f5f-b737-4638-86db-045b481b5a2d","meta":{"profile":["http://hl7.org/fhir/us/core/StructureDefinition/us-core-condition"]},"clinicalStatus":{"coding":[{"system":"http://terminology.hl7.org/CodeSystem/condition-clinical","code":"active","display":"Active"}]},"category":[{"coding":[{"system":"http://terminology.hl7.org/CodeSystem/condition-category","code":"problem-list-item"}]}],"code":{"coding":[{"system":"http://snomed.info/sct","code":"418290006"}]},"subject":{"reference":"Patient/e9758341-0dbc-4449-a8e1-2af106636d76"},"onsetDateTime":"2022-10-28T00:00:00+00:00"},"request":{"method":"POST","url":"Condition"}},{"fullUrl":"Condition/b2879efc-0dd9-4355-bd1f-61bc4feaa517","resource":{"resourceType":"Condition","id":"b2879efc-0dd9-4355-bd1f-61bc4feaa517","meta":{"profile":["http://hl7.org/fhir/us/core/StructureDefinition/us-core-condition"]},"clinicalStatus":{"coding":[{"system":"http://terminology.hl7.org/CodeSystem/condition-clinical","code":"active","display":"Active"}]},"category":[{"coding":[{"system":"http://terminology.hl7.org/CodeSystem/condition-category","code":"problem-list-item"}]}],"code":{"coding":[{"system":"http://snomed.info/sct","code":"736686006"}]},"subject":{"reference":"Patient/e9758341-0dbc-4449-a8e1-2af106636d76"},"onsetDateTime":"2022-03-12T00:00:00+00:00"},"request":{"method":"POST","url":"Condition"}},{"fullUrl":"Condition/5901cf22-e2af-4996-9530-5035f0358125","resource":{"resourceType":"Condition","id":"5901cf22-e2af-4996-9530-5035f0358125","meta":{"profile":["http://hl7.org/fhir/us/core/StructureDefinition/us-core-condition"]},"clinicalStatus":{"coding":[{"system":"http://terminology.hl7.org/CodeSystem/condition-clinical","code":"active","display":"Active"}]},"category":[{"coding":[{"system":"http://terminology.hl7.org/CodeSystem/condition-category","code":"problem-list-item"}]}],"code":{"coding":[{"system":"http://snomed.info/sct","code":"418290006"}]},"subject":{"reference":"Patient/e9758341-0dbc-4449-a8e1-2af106636d76"},"onsetDateTime":"2022-04-16T00:00:00+00:00"},"request":{"method":"POST","url":"Condition"}},{"fullUrl":"Condition/757a1e54-cfb2-420b-a6e2-0137e7633a6b","resource":{"resourceType":"Condition","id":"757a1e54-cfb2-420b-a6e2-0137e7633a6b","meta":{"profile":["http://hl7.org/fhir/us/core/StructureDefinition/us-core-condition"]},"clinicalStatus":{"coding":[{"system":"http://terminology.hl7.org/CodeSystem/condition-clinical","code":"active","display":"Active"}]},"category":[{"coding":[{"system":"http://terminology.hl7.org/CodeSystem/condition-category","code":"problem-list-item"}]}],"code":{"coding":[{"system":"http://snomed.info/sct","code":"418290006"}]},"subject":{"reference":"Patient/e9758341-0dbc-4449-a8e1-2af106636d76"},"onsetDateTime":"2022-11-08T00:00:00+00:00"},"request":{"method":"POST","url":"Condition"}},{"fullUrl":"Condition/77809e1d-cf06-4521-a082-e58b41e2d4ef","resource":{"resourceType":"Condition","id":"77809e1d-cf06-4521-a082-e58b41e2d4ef","meta":{"profile":["http://hl7.org/fhir/us/core/StructureDefinition/us-core-condition"]},"clinicalStatus":{"coding":[{"system":"http://terminology.hl7.org/CodeSystem/condition-clinical","code":"active","display":"Active"}]},"category":[{"coding":[{"system":"http://terminology.hl7.org/CodeSystem/condition-category","code":"problem-list-item"}]}],"code":{"coding":[{"system":"http://snomed.info/sct","code":"709977002"}]},"subject":{"reference":"Patient/e9758341-0dbc-4449-a8e1-2af106636d76"},"onsetDateTime":"2022-05-24T00:00:00+00:00"},"request":{"method":"POST","url":"Condition"}},{"fullUrl":"Observation/dc684cfe-9d1f-4c86-8823-17ffa1dcf1ea","resource":{"resourceType":"Observation","id":"dc684cfe-9d1f-4c86-8823-17ffa1dcf1ea","meta":{"profile":["http://hl7.org/fhir/us/core/StructureDefinition/us-core-observation-lab"]},"status":"final","category":[{"coding":[{"system":"http://terminology.hl7.org/CodeSystem/observation-category","code":"laboratory","display":"Laboratory"}]}],"code":{"coding":[{"system":"http://loinc.org","code":"804-5"}]},"subject":{"reference":"Patient/e9758341-0dbc-4449-a8e1-2af106636d76"},"effectiveDateTime":"2022-07-20T00:00:00+00:00","valueQuantity":{"value":10.9}},"request":{"method":"POST","url":"Observation"}},{"fullUrl":"Observation/d014b0d7-82f1-49ba-9ece-7a2bad7ebb7e","resource":{"resourceType":"Observation","id":"d014b0d7-82f1-49ba-9ece-7a2bad7ebb7e","meta":{"profile":["http://hl7.org/fhir/us/core/StructureDefinition/us-core-observation-lab"]},"status":"final","category":[{"coding":[{"system":"http://terminology.hl7.org/CodeSystem/observation-category","code":"laboratory","display":"Laboratory"}]}],"code":{"coding":[{"system":"http://loinc.org","code":"804-5"}]},"subject":{"reference":"Patient/e9758341-0dbc-4449-a8e1-2af106636d76"},"effectiveDateTime":"2022-07-16T00:00:00+00:00","valueQuantity":{"value":10.3}},"request":{"method":"POST","url":"Observation"}},{"fullUrl":"Observation/50287123-8b54-4801-a3ff-71839d5c6c8f","resource":{"resourceType":"Observation","id":"50287123-8b54-4801-a3ff-71839d5c6c8f","meta":{"profile":["http://hl7.org/fhir/us/core/StructureDefinition/us-core-bmi"]},"status":"final","category":[{"coding":[{"system":"http://terminology.hl7.org/CodeSystem/observation-category","code":"vital-signs","display":"Vital Signs"}]}],"code":{"coding":[{"system":"http://loinc.org","code":"39156-5"}]},"subject":{"reference":"Patient/e9758341-0dbc-4449-a8e1-2af106636d76"},"effectiveDateTime":"2022-10-12T00:00:00+00:00","valueQuantity":{"value":18.83,"unit":"kg/m2","system":"http://unitsofmeasure.org","code":"kg/m2"}},"request":{"method":"POST","url":"Observation"}},{"fullUrl":"Observation/cb82e00c-8b52-4cf8-992c-e237a00e2174","resource":{"resourceType":"Observation","id":"cb82e00c-8b52-4cf8-992c-e237a00e2174","meta":{"profile":["http://hl7.org/fhir/us/core/StructureDefinition/us-core-head-circumference"]},"status":"final","category":[{"coding":[{"system":"http://terminology.hl7.org/CodeSystem/observation-category","code":"vital-signs","display":"Vital Signs"}]}],"code":{"coding":[{"system":"http://loinc.org","code":"9843-4"}]},"subject":{"reference":"Patient/e9758341-0dbc-4449-a8e1-2af106636d76"},"effectiveDateTime":"2022-09-23T00:00:00+00:00","valueQuantity":{"value":8.6,"unit":"Inch","system":"http://unitsofmeasure.org","code":"[in_i]"}},"request":{"method":"POST","url":"Observation"}},{"fullUrl":"Observation/0e484d59-bc25-4fa7-8dc3-0a40b4a4323b","resource":{"resourceType":"Observation","id":"0e484d59-bc25-4fa7-8dc3-0a40b4a4323b","meta":{"profile":["http://hl7.org/fhir/us/core/StructureDefinition/us-core-head-circumference"]},"status":"final","category":[{"coding":[{"system":"http://terminology.hl7.org/CodeSystem/observation-category","code":"vital-signs","display":"Vital Signs"}]}],"code":{"coding":[{"system":"http://loinc.org","code":"9843-4"}]},"subject":{"reference":"Patient/e9758341-0dbc-4449-a8e1-2af106636d76"},"effectiveDateTime":"2022-12-22T00:00:00+00:00","valueQuantity":{"value":9.7,"unit":"Inch","system":"http://unitsofmeasure.org","code":"[in_i]"}},"request":{"method":"POST","url":"Observation"}},{"fullUrl":"Observation/532e556a-721b-4a54-8efa-6fc35557a961","resource":{"resourceType":"Observation","id":"532e556a-721b-4a54-8efa-6fc35557a961","meta":{"profile":["http://hl7.org/fhir/us/core/StructureDefinition/us-core-body-height"]},"status":"final","category":[{"coding":[{"system":"http://terminology.hl7.org/CodeSystem/observation-category","code":"vital-signs","display":"Vital Signs"}]}],"code":{"coding":[{"system":"http://loinc.org","code":"8302-2"}]},"subject":{"reference":"Patient/e9758341-0dbc-4449-a8e1-2af106636d76"},"effectiveDateTime":"2022-09-04T00:00:00+00:00","valueQuantity":{"value":76.7,"unit":"Inch","system":"http://unitsofmeasure.org","code":"[in_i]"}},"request":{"method":"POST","url":"Observation"}},{"fullUrl":"Observation/5e06924f-1283-4717-86d3-1cad7e48c0c2","resource":{"resourceType":"Observation","id":"5e06924f-1283-4717-86d3-1cad7e48c0c2","meta":{"profile":["http://hl7.org/fhir/us/core/StructureDefinition/us-core-body-weight"]},"status":"final","category":[{"coding":[{"system":"http://terminology.hl7.org/CodeSystem/observation-category","code":"vital-signs","display":"Vital Signs"}]}],"code":{"coding":[{"system":"http://loinc.org","code":"29463-7"}]},"subject":{"reference":"Patient/e9758341-0dbc-4449-a8e1-2af106636d76"},"effectiveDateTime":"2022-12-08T00:00:00+00:00","valueQuantity":{"value":61.89,"unit":"kilogram","system":"http://unitsofmeasure.org","code":"kg"}},"request":{"method":"POST","url":"Observation"}},{"fullUrl":"Observation/4fe8de30-d34f-4de1-9c90-9914d199b946","resource":{"resourceType":"Observation","id":"4fe8de30-d34f-4de1-9c90-9914d199b946","meta":{"profile":["http://hl7.org/fhir/us/core/StructureDefinition/us-core-body-temperature"]},"status":"final","category":[{"coding":[{"system":"http://terminology.hl7.org/CodeSystem/observation-category","code":"vital-signs","display":"Vital Signs"}]}],"code":{"coding":[{"system":"http://loinc.org","code":"8310-5"}]},"subject":{"reference":"Patient/e9758341-0dbc-4449-a8e1-2af106636d76"},"effectiveDateTime":"2022-03-19T00:00:00+00:00","valueQuantity":{"value":118.62,"unit":"Degrees Fahrenheit","system":"http://unitsofmeasure.org","code":"[degF]"}},"request":{"method":"POST","url":"Observation"}},{"fullUrl":"Observation/9cbacbfd-14d0-4e2d-87e4-c43c9c5d3e2f","resource":{"resourceType":"Observation","id":"9cbacbfd-14d0-4e2d-87e4-c43c9c5d3e2f","meta":{"profile":["http://hl7.org/fhir/us/core/StructureDefinition/us-core-body-temperature"]},"status":"final","category":[{"coding":[{"system":"http://terminology.hl7.org/CodeSystem/observation-category","code":"vital-signs","display":"Vital Signs"}]}],"code":{"coding":[{"system":"http://loinc.org","code":"8310-5"}]},"subject":{"reference":"Patient/e9758341-0dbc-4449-a8e1-2af106636d76"},"effectiveDateTime":"2022-01-26T00:00:00+00:00","valueQuantity":{"value":85.71,"unit":"Degrees Fahrenheit","system":"http://unitsofmeasure.org","code":"[degF]"}},"request":{"method":"POST","url":"Observation"}},{"fullUrl":"Observation/db7714e1-d5ab-402a-91d6-09852bfc4fd3","resource":{"resourceType":"Observation","id":"db7714e1-d5ab-402a-91d6-09852bfc4fd3","meta":{"profile":["http://hl7.org/fhir/us/core/StructureDefinition/us-core-heart-rate"]},"status":"final","category":[{"coding":[{"system":"http://terminology.hl7.org/CodeSystem/observation-category","code":"vital-signs","display":"Vital Signs"}]}],"code":{"coding":[{"system":"http://loinc.org","code":"8867-4"}]},"subject":{"reference":"Patient/e9758341-0dbc-4449-a8e1-2af106636d76"},"effectiveDateTime":"2022-10-10T00:00:00+00:00","valueQuantity":{"value":101.4,"unit":"Per Minute","system":"http://unitsofmeasure.org","code":"/min"}},"request":{"method":"POST","url":"Observation"}},{"fullUrl":"Patient/3db825cc-1cd4-4607-a96c-2b09c890ef3a","resource":{"resourceType":"Patient","id":"3db825cc-1cd4-4607-a96c-2b09c890ef3a","meta":{"profile":["http://hl7.org/fhir/us/core/StructureDefinition/us-core-patient"]},"extension":[{"extension":[{"url":"ombCategory","valueCoding":{"system":"urn:oid:2.16.840.1.113883.6.238","code":"2054-5","display":"Black or African American"}},{"url":"text","valueString":"Black or African American"}],"url":"http://hl7.org/fhir/us/core/StructureDefinition/us-core-race"},{"extension":[{"url":"ombCategory","valueCoding":{"system":"urn:oid:2.16.840.1.113883.6.238","code":"2186-5","display":"Non Hispanic or Latino"}},{"url":"text","valueString":"Non Hispanic or Latino"}],"url":"http://hl7.org/fhir/us/core/StructureDefinition/us-core-ethnicity"}],"identifier":[{"type":{"coding":[{"system":"http://terminology.hl7.org/CodeSystem/v2-0203","code":"MR"}]},"system":"urn:fhirgen:mrn","value":"411-11-3189"}],"name":[{"use":"official","family":"Osborn","given":["Cheryl"]},{"use":"maiden","family":"Watson"}],"telecom":[{"system":"phone","value":"216-930-7701","use":"mobile"},{"system":"email","value":"gibbsgina@hotmail.com","use":"mobile"}],"gender":"female","birthDate":"1945-05-31","address":[{"use":"home","line":["0171 Trujillo Well Suite 571"],"city":"Lake Valerie","state":"CO","postalCode":"63644"},{"use":"old","line":["224 Brandon Squares"],"city":"West Johnstad","state":"OH","postalCode":"82890"}]},"request":{"method":"POST","url":"Patient"}},{"fullUrl":"Observation/4cdbe520-bf1b-41d5-806b-6fe3b6f640ed","resource":{"resourceType":"Observation","id":"4cdbe520-bf1b-41d5-806b-6fe3b6f640ed","meta":{"profile":["http://hl7.org/fhir/us/core/StructureDefinition/us-core-observation-lab"]},"status":"final","category":[{"coding":[{"system":"http://terminology.hl7.org/CodeSystem/observation-category","code":"laboratory","display":"Laboratory"}]}],"code":{"coding":[{"system":"http://loinc.org","code":"31147-2"}]},"subject":{"reference":"Patient/3db825cc-1cd4-4607-a96c-2b09c890ef3a"},"effectiveDateTime":"2022-10-01T00:00:00+00:00","valueRatio":{"numerator":{"value":1},"denominator":{"value":32}}},"request":{"method":"POST","url":"Observation"}},{"fullUrl":"Observation/290dabd3-1fab-45e4-8f01-7bf8e6b5e73f","resource":{"resourceType":"Observation","id":"290dabd3-1fab-45e4-8f01-7bf8e6b5e73f","meta":{"profile":["http://hl7.org/fhir/us/core/StructureDefinition/us-core-observation-lab"]},"status":"final","category":[{"coding":[{"system":"http://terminology.hl7.org/CodeSystem/observation-category","code":"laboratory","display":"Laboratory"}]}],"code":{"coding":[{"system":"http://loinc.org","code":"31147-2"}]},"subject":{"reference":"Patient/3db825cc-1cd4-4607-a96c-2b09c890ef3a"},"effectiveDateTime":"2022-08-06T00:00:00+00:00","valueRatio":{"numerator":{"value":1},"denominator":{"value":64}}},"request":{"method":"POST","url":"Observation"}},{"fullUrl":"Condition/d6b6d67f-ce78-4d7b-a773-5a525b61ec9c","resource":{"resourceType":"Condition","id":"d6b6d67f-ce78-4d7b-a773-5a525b61ec9c","meta":{"profile":["http://hl7.org/fhir/us/core/StructureDefinition/us-core-condition"]},"clinicalStatus":{"coding":[{"system":"http://terminology.hl7.org/CodeSystem/condition-clinical","code":"active","display":"Active"}]},"category":[{"coding":[{"system":"http://terminology.hl7.org/CodeSystem/condition-category","code":"problem-list-item"}]}],"code":{"coding":[{"system":"http://snomed.info/sct","code":"709977002"}]},"subject":{"reference":"Patient/3db825cc-1cd4-4607-a96c-2b09c890ef3a"},"onsetDateTime":"2022-12-27T00:00:00+00:00"},"request":{"method":"POST","url":"Condition"}},{"fullUrl":"Condition/bb03f3f2-2897-4f96-8436-1163daccff34","resource":{"resourceType":"Condition","id":"bb03f3f2-2897-4f96-8436-1163daccff34","meta":{"profile":["http://hl7.org/fhir/us/core/StructureDefinition/us-core-condition"]},"clinicalStatus":{"coding":[{"system":"http://terminology.hl7.org/CodeSystem/condition-clinical","code":"active","display":"Active"}]},"category":[{"coding":[{"system":"http://terminology.hl7.org/CodeSystem/condition-category","code":"problem-list-item"}]}],"code":{"coding":[{"system":"http://snomed.info/sct","code":"44882003"}]},"subject":{"reference":"Patient/3db825cc-1cd4-4607-a96c-2b09c890ef3a"},"onsetDateTime":"2022-04-28T00:00:00+00:00"},"request":{"method":"POST","url":"Condition"}},{"fullUrl":"Condition/f843181b-44bd-4b34-a886-d5e1eda2cb2a","resource":{"resourceType":"Condition","id":"f843181b-44bd-4b34-a886-d5e1eda2cb2a","meta":{"profile":["http://hl7.org/fhir/us/core/StructureDefinition/us-core-condition"]},"clinicalStatus":{"coding":[{"system":"http://terminology.hl7.org/CodeSystem/condition-clinical","code":"active","display":"Active"}]},"category":[{"coding":[{"system":"http://terminology.hl7.org/CodeSystem/condition-category","code":"problem-list-item"}]}],"code":{"coding":[{"system":"http://snomed.info/sct","code":"91554004"}]},"subject":{"reference":"Patient/3db825cc-1cd4-4607-a96c-2b09c890ef3a"},"onsetDateTime":"2022-08-19T00:00:00+00:00"},"request":{"method":"POST","url":"Condition"}},{"fullUrl":"Observation/0a2eb979-435d-4ef0-b49c-f6dccace22a6","resource":{"resourceType":"Observation","id":"0a2eb979-435d-4ef0-b49c-f6dccace22a6","meta":{"profile":["http://hl7.org/fhir/us/core/StructureDefinition/us-core-observation-lab"]},"status":"final","category":[{"coding":[{"system":"http://terminology.hl7.org/CodeSystem/observation-category","code":"laboratory","display":"Laboratory"}]}],"code":{"coding":[{"system":"http://loinc.org","code":"804-5"}]},"subject":{"reference":"Patient/3db825cc-1cd4-4607-a96c-2b09c890ef3a"},"effectiveDateTime":"2022-09-11T00:00:00+00:00","valueQuantity":{"value":10.9}},"request":{"method":"POST","url":"Observation"}},{"fullUrl":"Observation/21cbc387-6aac-44c0-849b-2df43ef17187","resource":{"resourceType":"Observation","id":"21cbc387-6aac-44c0-849b-2df43ef17187","meta":{"profile":["http://hl7.org/fhir/us/core/StructureDefinition/us-core-observation-lab"]},"status":"final","category":[{"coding":[{"system":"http://terminology.hl7.org/CodeSystem/observation-category","code":"laboratory","display":"Laboratory"}]}],"code":{"coding":[{"system":"http://loinc.org","code":"49498-9"}]},"subject":{"reference":"Patient/3db825cc-1cd4-4607-a96c-2b09c890ef3a"},"effectiveDateTime":"2022-11-14T00:00:00+00:00","valueQuantity":{"value":9.6}},"request":{"method":"POST","url":"Observation"}},{"fullUrl":"Observation/aa6f21d7-c408-4d2c-92d1-cb710961f4f8","resource":{"resourceType":"Observation","id":"aa6f21d7-c408-4d2c-92d1-cb710961f4f8","meta":{"profile":["http://hl7.org/fhir/us/core/StructureDefinition/us-core-bmi"]},"status":"final","category":[{"coding":[{"system":"http://terminology.hl7.org/CodeSystem/observation-category","code":"vital-signs","display":"Vital Signs"}]}],"code":{"coding":[{"system":"http://loinc.org","code":"39156-5"}]},"subject":{"reference":"Patient/3db825cc-1cd4-4607-a96c-2b09c890ef3a"},"effectiveDateTime":"2022-01-08T00:00:00+00:00","valueQuantity":{"value":18.92,"unit":"kg/m2","system":"http://unitsofmeasure.org","code":"kg/m2"}},"request":{"method":"POST","url":"Observation"}},{"fullUrl":"Observation/e4e0f40a-c0d6-48b9-add6-dc91d78f18d8","resource":{"resourceType":"Observation","id":"e4e0f40a-c0d6-48b9-add6-dc91d78f18d8","meta":{"profile":["http://hl7.org/fhir/us/core/StructureDefinition/us-core-head-circumference"]},"status":"final","category":[{"coding":[{"system":"http://terminology.hl7.org/CodeSystem/observation-category","code":"vital-signs","display":"Vital Signs"}]}],"code":{"coding":[{"system":"http://loinc.org","code":"9843-4"}]},"subject":{"reference":"Patient/3db825cc-1cd4-4607-a96c-2b09c890ef3a"},"effectiveDateTime":"2022-09-22T00:00:00+00:00","valueQuantity":{"value":5.1,"unit":"Inch","system":"http://unitsofmeasure.org","code":"[in_i]"}},"request":{"method":"POST","url":"Observation"}},{"fullUrl":"Observation/c8b683b0-5d7c-46dd-831a-53637b504d14","resource":{"resourceType":"Observation","id":"c8b683b0-5d7c-46dd-831a-53637b504d14","meta":{"profile":["http://hl7.org/fhir/us/core/StructureDefinition/us-core-head-circumference"]},"status":"final","category":[{"coding":[{"system":"http://terminology.hl7.org/CodeSystem/observation-category","code":"vital-signs","display":"Vital Signs"}]}],"code":{"coding":[{"system":"http://loinc.org","code":"9843-4"}]},"subject":{"reference":"Patient/3db825cc-1cd4-4607-a96c-2b09c890ef3a"},"effectiveDateTime":"2022-09-14T00:00:00+00:00","valueQuantity":{"value":8.7,"unit":"Inch","system":"http://unitsofmeasure.org","code":"[in_i]"}},"request":{"method":"POST","url":"Observation"}},{"fullUrl":"Observation/aab2c3db-2230-492e-a925-f1dd4f410eea","resource":{"resourceType":"Observation","id":"aab2c3db-2230-492e-a925-f1dd4f410eea","meta":{"profile":["http://hl7.org/fhir/us/core/StructureDefinition/us-core-body-height"]},"status":"final","category":[{"coding":[{"system":"http://terminology.hl7.org/CodeSystem/observation-category","code":"vital-signs","display":"Vital Signs"}]}],"code":{"coding":[{"system":"http://loinc.org","code":"8302-2"}]},"subject":{"reference":"Patient/3db825cc-1cd4-4607-a96c-2b09c890ef3a"},"effectiveDateTime":"2022-02-07T00:00:00+00:00","valueQuantity":{"value":60.4,"unit":"Inch","system":"http://unitsofmeasure.org","code":"[in_i]"}},"request":{"method":"POST","url":"Observation"}},{"fullUrl":"Observation/75589662-36f7-4442-80b6-6a98353f274d","resource":{"resourceType":"Observation","id":"75589662-36f7-4442-80b6-6a98353f274d","meta":{"profile":["http://hl7.org/fhir/us/core/StructureDefinition/us-core-body-weight"]},"status":"final","category":[{"coding":[{"system":"http://terminology.hl7.org/CodeSystem/observation-category","code":"vital-signs","display":"Vital Signs"}]}],"code":{"coding":[{"system":"http://loinc.org","code":"29463-7"}]},"subject":{"reference":"Patient/3db825cc-1cd4-4607-a96c-2b09c890ef3a"},"effectiveDateTime":"2022-07-15T00:00:00+00:00","valueQuantity":{"value":97.1,"unit":"kilogram","system":"http://unitsofmeasure.org","code":"kg"}},"request":{"method":"POST","url":"Observation"}},{"fullUrl":"Observation/5f59e2ca-3cd3-46d6-a37b-63b2b0e5e91c","resource":{"resourceType":"Observation","id":"5f59e2ca-3cd3-46d6-a37b-63b2b0e5e91c","meta":{"profile":["http://hl7.org/fhir/us/core/StructureDefinition/us-core-body-temperature"]},"status":"final","category":[{"coding":[{"system":"http://terminology.hl7.org/CodeSystem/observation-category","code":"vital-signs","display":"Vital Signs"}]}],"code":{"coding":[{"system":"http://loinc.org","code":"8310-5"}]},"subject":{"reference":"Patient/3db825cc-1cd4-4607-a96c-2b09c890ef3a"},"effectiveDateTime":"2022-08-01T00:00:00+00:00","valueQuantity":{"value":64.06,"unit":"Degrees Fahrenheit","system":"http://unitsofmeasure.org","code":"[degF]"}},"request":{"method":"POST","url":"Observation"}},{"fullUrl":"Observation/50c915b0-60b0-497e-bf37-5fe9e00f2831","resource":{"resourceType":"Observation","id":"50c915b0-60b0-497e-bf37-5fe9e00f2831","meta":{"profile":["http://hl7.org/fhir/us/core/StructureDefinition/us-core-body-temperature"]},"status":"final","category":[{"coding":[{"system":"http://terminology.hl7.org/CodeSystem/observation-category","code":"vital-signs","display":"Vital Signs"}]}],"code":{"coding":[{"system":"http://loinc.org","code":"8310-5"}]},"subject":{"reference":"Patient/3db825cc-1cd4-4607-a96c-2b09c890ef3a"},"effectiveDateTime":"2022-05-31T00:00:00+00:00","valueQuantity":{"value":114.52,"unit":"Degrees Fahrenheit","system":"http://unitsofmeasure.org","code":"[degF]"}},"request":{"method":"POST","url":"Observation"}},{"fullUrl":"Observation/04f6173b-e840-486d-bcae-addf711815b0","resource":{"resourceType":"Observation","id":"04f6173b-e840-486d-bcae-addf711815b0","meta":{"profile":["http://hl7.org/fhir/us/core/StructureDefinition/us-core-heart-rate"]},"status":"final","category":[{"coding":[{"system":"http://terminology.hl7.org/CodeSystem/observation-category","code":"vital-signs","display":"Vital Signs"}]}],"code":{"coding":[{"system":"http://loinc.org","code":"8867-4"}]},"subject":{"reference":"Patient/3db825cc-1cd4-4607-a96c-2b09c890ef3a"},"effectiveDateTime":"2022-05-26T00:00:00+00:00","valueQuantity":{"value":101.6,"unit":"Per Minute","system":"http://unitsofmeasure.org","code":"/min"}},"request":{"method":"POST","url":"Observation"}},{"fullUrl":"Observation/26cd513b-a301-4cc0-ab69-01eb1d6e417b","resource":{"resourceType":"Observation","id":"26cd513b-a301-4cc0-ab69-01eb1d6e417b","meta":{"profile":["http://hl7.org/fhir/us/core/StructureDefinition/us-core-heart-rate"]},"status":"final","category":[{"coding":[{"system":"http://terminology.hl7.org/CodeSystem/observation-category","code":"vital-signs","display":"Vital Signs"}]}],"code":{"coding":[{"system":"http://loinc.org","code":"8867-4"}]},"subject":{"reference":"Patient/3db825cc-1cd4-4607-a96c-2b09c890ef3a"},"effectiveDateTime":"2022-08-10T00:00:00+00:00","valueQuantity":{"value":95.4,"unit":"Per Minute","system":"http://unitsofmeasure.org","code":"/min"}},"request":{"method":"POST","url":"Observation"}},{"fullUrl":"Patient/c53e644d-eb75-488d-9d86-b2ccf31d20d3","resource":{"resourceType":"Patient","id":"c53e644d-eb75-488d-9d86-b2ccf31d20d3","meta":{"profile":["http://hl7.org/fhir/us/core/StructureDefinition/us-core-patient"]},"extension":[{"extension":[{"url":"ombCategory","valueCoding":{"system":"http://terminology.hl7.org/CodeSystem/v3-NullFlavor","code":"ASKU","display":"asked but unknown"}},{"url":"text","valueString":"asked but unknown"}],"url":"http://hl7.org/fhir/us/core/StructureDefinition/us-core-race"},{"extension":[{"url":"ombCategory","valueCoding":{"system":"urn:oid:2.16.840.1.113883.6.238","code":"2135-2","display":"Hispanic or Latino"}},{"url":"text","valueString":"Hispanic or Latino"}],"url":"http://hl7.org/fhir/us/core/StructureDefinition/us-core-ethnicity"}],"identifier":[{"type":{"coding":[{"system":"http://terminology.hl7.org/CodeSystem/v2-0203","code":"MR"}]},"system":"urn:fhirgen:mrn","value":"661-58-2916"}],"name":[{"use":"official","family":"Hammond","given":["Jodi"]},{"use":"maiden","family":"Cardenas"}],"telecom":[{"system":"phone","value":"914-333-9485x5275","use":"mobile"},{"system":"email","value":"fitzgeraldnicole@hotmail.com","use":"work"}],"gender":"female","birthDate":"1959-12-15","address":[{"use":"home","line":["6129 Carolyn Stravenue"],"city":"Scottland","state":"DC","postalCode":"57602"},{"use":"old","line":["433 Brooks Point Apt. 447"],"city":"Latoyastad","state":"ND","postalCode":"39337"}]},"request":{"method":"POST","url":"Patient"}},{"fullUrl":"Observation/904cd11a-0267-4ddf-a64d-29eef3261cba","resource":{"resourceType":"Observation","id":"904cd11a-0267-4ddf-a64d-29eef3261cba","meta":{"profile":["http://hl7.org/fhir/us/core/StructureDefinition/us-core-observation-lab"]},"status":"final","category":[{"coding":[{"system":"http://terminology.hl7.org/CodeSystem/observation-category","code":"laboratory","display":"Laboratory"}]}],"code":{"coding":[{"system":"http://loinc.org","code":"87925-4"}]},"subject":{"reference":"Patient/c53e644d-eb75-488d-9d86-b2ccf31d20d3"},"effectiveDateTime":"2022-07-21T00:00:00+00:00","valueRatio":{"numerator":{"value":1},"denominator":{"value":32}}},"request":{"method":"POST","url":"Observation"}},{"fullUrl":"Observation/40538f80-72b6-4195-8478-9b6f21a35273","resource":{"resourceType":"Observation","id":"40538f80-72b6-4195-8478-9b6f21a35273","meta":{"profile":["http://hl7.org/fhir/us/core/StructureDefinition/us-core-observation-lab"]},"status":"final","category":[{"coding":[{"system":"http://terminology.hl7.org/CodeSystem/observation-category","code":"laboratory","display":"Laboratory"}]}],"code":{"coding":[{"system":"http://loinc.org","code":"87925-4"}]},"subject":{"reference":"Patient/c53e644d-eb75-488d-9d86-b2ccf31d20d3"},"effectiveDateTime":"2022-05-25T00:00:00+00:00","valueRatio":{"numerator":{"value":1},"denominator":{"value":32}}},"request":{"method":"POST","url":"Observation"}},{"fullUrl":"Condition/b175978e-1e57-4f30-96d9-c31f01fdb689","resource":{"resourceType":"Condition","id":"b175978e-1e57-4f30-96d9-c31f01fdb689","meta":{"profile":["http://hl7.org/fhir/us/core/StructureDefinition/us-core-condition"]},"clinicalStatus":{"coding":[{"system":"http://terminology.hl7.org/CodeSystem/condition-clinical","code":"active","display":"Active"}]},"category":[{"coding":[{"system":"http://terminology.hl7.org/CodeSystem/condition-category","code":"problem-list-item"}]}],"code":{"coding":[{"system":"http://snomed.info/sct","code":"91554004"}]},"subject":{"reference":"Patient/c53e644d-eb75-488d-9d86-b2ccf31d20d3"},"onsetDateTime":"2022-01-03T00:00:00+00:00"},"request":{"method":"POST","url":"Condition"}},{"fullUrl":"Condition/5dfdbf34-6db1-4b69-9bb5-2af9c5ff151a","resource":{"resourceType":"Condition","id":"5dfdbf34-6db1-4b69-9bb5-2af9c5ff151a","meta":{"profile":["http://hl7.org/fhir/us/core/StructureDefinition/us-core-condition"]},"clinicalStatus":{"coding":[{"system":"http://terminology.hl7.org/CodeSystem/condition-clinical","code":"active","display":"Active"}]},"category":[{"coding":[{"system":"http://terminology.hl7.org/CodeSystem/condition-category","code":"problem-list-item"}]}],"code":{"coding":[{"system":"http://snomed.info/sct","code":"709977002"}]},"subject":{"reference":"Patient/c53e644d-eb75-488d-9d86-b2ccf31d20d3"},"onsetDateTime":"2022-10-03T00:00:00+00:00"},"request":{"method":"POST","url":"Condition"}},{"fullUrl":"Condition/b56e7bfc-f5a4-4fa5-bb66-a71fe8bac9b7","resource":{"resourceType":"Condition","id":"b56e7bfc-f5a4-4fa5-bb66-a71fe8bac9b7","meta":{"profile":["http://hl7.org/fhir/us/core/StructureDefinition/us-core-condition"]},"clinicalStatus":{"coding":[{"system":"http://terminology.hl7.org/CodeSystem/condition-clinical","code":"active","display":"Active"}]},"category":[{"coding":[{"system":"http://terminology.hl7.org/CodeSystem/condition-category","code":"problem-list-item"}]}],"code":{"coding":[{"system":"http://snomed.info/sct","code":"91554004"}]},"subject":{"reference":"Patient/c53e644d-eb75-488d-9d86-b2ccf31d20d3"},"onsetDateTime":"2022-06-18T00:00:00+00:00"},"request":{"method":"POST","url":"Condition"}},{"fullUrl":"Condition/557c7906-6a0c-4949-91e2-5d8fdf47fb0b","resource":{"resourceType":"Condition","id":"557c7906-6a0c-4949-91e2-5d8fdf47fb0b","meta":{"profile":["http://hl7.org/fhir/us/core/StructureDefinition/us-core-condition"]},"clinicalStatus":{"coding":[{"system":"http://terminology.hl7.org/CodeSystem/condition-clinical","code":"active","display":"Active"}]},"category":[{"coding":[{"system":"http://terminology.hl7.org/CodeSystem/condition-category","code":"problem-list-item"}]}],"code":{"coding":[{"system":"http://snomed.info/sct","code":"91554004"}]},"subject":{"reference":"Patient/c53e644d-eb75-488d-9d86-b2ccf31d20d3"},"onsetDateTime":"2022-05-20T00:00:00+00:00"},"request":{"method":"POST","url":"Condition"}},{"fullUrl":"Observation/75d68216-d05f-4903-b9a0-884522c7e426","resource":{"resourceType":"Observation","id":"75d68216-d05f-4903-b9a0-884522c7e426","meta":{"profile":["http://hl7.org/fhir/us/core/StructureDefinition/us-core-observation-lab"]},"status":"final","category":[{"coding":[{"system":"http://terminology.hl7.org/CodeSystem/observation-category","code":"laboratory","display":"Laboratory"}]}],"code":{"coding":[{"system":"http://loinc.org","code":"26464-8"}]},"subject":{"reference":"Patient/c53e644d-eb75-488d-9d86-b2ccf31d20d3"},"effectiveDateTime":"2022-07-21T00:00:00+00:00","valueQuantity":{"value":6.2}},"request":{"method":"POST","url":"Observation"}},{"fullUrl":"Observation/ea8c2eef-3b4f-4ef6-a941-41a78104c0be","resource":{"resourceType":"Observation","id":"ea8c2eef-3b4f-4ef6-a941-41a78104c0be","meta":{"profile":["http://hl7.org/fhir/us/core/StructureDefinition/us-core-observation-lab"]},"status":"final","category":[{"coding":[{"system":"http://terminology.hl7.org/CodeSystem/observation-category","code":"laboratory","display":"Laboratory"}]}],"code":{"coding":[{"system":"http://loinc.org","code":"6690-2"}]},"subject":{"reference":"Patient/c53e644d-eb75-488d-9d86-b2ccf31d20d3"},"effectiveDateTime":"2022-04-16T00:00:00+00:00","valueQuantity":{"value":9.9}},"request":{"method":"POST","url":"Observation"}},{"fullUrl":"Observation/7ddb9237-f38b-4688-8ba6-9cd694961e81","resource":{"resourceType":"Observation","id":"7ddb9237-f38b-4688-8ba6-9cd694961e81","meta":{"profile":["http://hl7.org/fhir/us/core/StructureDefinition/us-core-observation-lab"]},"status":"final","category":[{"coding":[{"system":"http://terminology.hl7.org/CodeSystem/observation-category","code":"laboratory","display":"Laboratory"}]}],"code":{"coding":[{"system":"http://loinc.org","code":"49498-9"}]},"subject":{"reference":"Patient/c53e644d-eb75-488d-9d86-b2ccf31d20d3"},"effectiveDateTime":"2022-11-17T00:00:00+00:00","valueQuantity":{"value":8.4}},"request":{"method":"POST","url":"Observation"}},{"fullUrl":"Observation/a3a2dbd7-68bb-4f62-bf9f-e4aa9d192186","resource":{"resourceType":"Observation","id":"a3a2dbd7-68bb-4f62-bf9f-e4aa9d192186","meta":{"profile":["http://hl7.org/fhir/us/core/StructureDefinition/us-core-bmi"]},"status":"final","category":[{"coding":[{"system":"http://terminology.hl7.org/CodeSystem/observation-category","code":"vital-signs","display":"Vital Signs"}]}],"code":{"coding":[{"system":"http://loinc.org","code":"39156-5"}]},"subject":{"reference":"Patient/c53e644d-eb75-488d-9d86-b2ccf31d20d3"},"effectiveDateTime":"2022-08-19T00:00:00+00:00","valueQuantity":{"value":26.22,"unit":"kg/m2","system":"http://unitsofmeasure.org","code":"kg/m2"}},"request":{"method":"POST","url":"Observation"}},{"fullUrl":"Observation/09181f5c-c420-4c47-a519-4991c54bb97d","resource":{"resourceType":"Observation","id":"09181f5c-c420-4c47-a519-4991c54bb97d","meta":{"profile":["http://hl7.org/fhir/us/core/StructureDefinition/us-core-head-circumference"]},"status":"final","category":[{"coding":[{"system":"http://terminology.hl7.org/CodeSystem/observation-category","code":"vital-signs","display":"Vital Signs"}]}],"code":{"coding":[{"system":"http://loinc.org","code":"9843-4"}]},"subject":{"reference":"Patient/c53e644d-eb75-488d-9d86-b2ccf31d20d3"},"effectiveDateTime":"2022-02-16T00:00:00+00:00","valueQuantity":{"value":4.1,"unit":"Inch","system":"http://unitsofmeasure.org","code":"[in_i]"}},"request":{"method":"POST","url":"Observation"}},{"fullUrl":"Observation/c7b10831-7432-4987-8a3d-8a6b5dfc4f54","resource":{"resourceType":"Observation","id":"c7b10831-7432-4987-8a3d-8a6b5dfc4f54","meta":{"profile":["http://hl7.org/fhir/us/core/StructureDefinition/us-core-head-circumference"]},"status":"final","category":[{"coding":[{"system":"http://terminology.hl7.org/CodeSystem/observation-category","code":"vital-signs","display":"Vital Signs"}]}],"code":{"coding":[{"system":"http://loinc.org","code":"9843-4"}]},"subject":{"reference":"Patient/c53e644d-eb75-488d-9d86-b2ccf31d20d3"},"effectiveDateTime":"2022-09-10T00:00:00+00:00","valueQuantity":{"value":1.4,"unit":"Inch","system":"http://unitsofmeasure.org","code":"[in_i]"}},"request":{"method":"POST","url":"Observation"}},{"fullUrl":"Observation/8c411153-1280-4714-bf9f-f758b9010cff","resource":{"resourceType":"Observation","id":"8c411153-1280-4714-bf9f-f758b9010cff","meta":{"profile":["http://hl7.org/fhir/us/core/StructureDefinition/us-core-body-height"]},"status":"final","category":[{"coding":[{"system":"http://terminology.hl7.org/CodeSystem/observation-category","code":"vital-signs","display":"Vital Signs"}]}],"code":{"coding":[{"system":"http://loinc.org","code":"8302-2"}]},"subject":{"reference":"Patient/c53e644d-eb75-488d-9d86-b2ccf31d20d3"},"effectiveDateTime":"2022-10-05T00:00:00+00:00","valueQuantity":{"value":68.8,"unit":"Inch","system":"http://unitsofmeasure.org","code":"[in_i]"}},"request":{"method":"POST","url":"Observation"}},{"fullUrl":"Observation/6bf2b8e4-2007-49e9-ab32-d956b29e1bf4","resource":{"resourceType":"Observation","id":"6bf2b8e4-2007-49e9-ab32-d956b29e1bf4","meta":{"profile":["http://hl7.org/fhir/us/core/StructureDefinition/us-core-body-height"]},"status":"final","category":[{"coding":[{"system":"http://terminology.hl7.org/CodeSystem/observation-category","code":"vital-signs","display":"Vital Signs"}]}],"code":{"coding":[{"system":"http://loinc.org","code":"8302-2"}]},"subject":{"reference":"Patient/c53e644d-eb75-488d-9d86-b2ccf31d20d3"},"effectiveDateTime":"2022-10-23T00:00:00+00:00","valueQuantity":{"value":79.6,"unit":"Inch","system":"http://unitsofmeasure.org","code":"[in_i]"}},"request":{"method":"POST","url":"Observation"}},{"fullUrl":"Observation/0fd09054-03dc-4d96-81e5-2bb3d8c4ce2d","resource":{"resourceType":"Observation","id":"0fd09054-03dc-4d96-81e5-2bb3d8c4ce2d","meta":{"profile":["http://hl7.org/fhir/us/core/StructureDefinition/us-core-body-weight"]},"status":"final","category":[{"coding":[{"system":"http://terminology.hl7.org/CodeSystem/observation-category","code":"vital-signs","display":"Vital Signs"}]}],"code":{"coding":[{"system":"http://loinc.org","code":"29463-7"}]},"subject":{"reference":"Patient/c53e644d-eb75-488d-9d86-b2ccf31d20d3"},"effectiveDateTime":"2022-01-10T00:00:00+00:00","valueQuantity":{"value":113.04,"unit":"kilogram","system":"http://unitsofmeasure.org","code":"kg"}},"request":{"method":"POST","url":"Observation"}},{"fullUrl":"Observation/a2d2b59f-101a-4c53-844d-5528cdc3480b","resource":{"resourceType":"Observation","id":"a2d2b59f-101a-4c53-844d-5528cdc3480b","meta":{"profile":["http://hl7.org/fhir/us/core/StructureDefinition/us-core-body-weight"]},"status":"final","category":[{"coding":[{"system":"http://terminology.hl7.org/CodeSystem/observation-category","code":"vital-signs","display":"Vital Signs"}]}],"code":{"coding":[{"system":"http://loinc.org","code":"29463-7"}]},"subject":{"reference":"Patient/c53e644d-eb75-488d-9d86-b2ccf31d20d3"},"effectiveDateTime":"2022-06-04T00:00:00+00:00","valueQuantity":{"value":64.04,"unit":"kilogram","system":"http://unitsofmeasure.org","code":"kg"}},"request":{"method":"POST","url":"Observation"}},{"fullUrl":"Observation/1a13ba0c-0863-40a0-a946-82326a948963","resource":{"resourceType":"Observation","id":"1a13ba0c-0863-40a0-a946-82326a948963","meta":{"profile":["http://hl7.org/fhir/us/core/StructureDefinition/us-core-body-temperature"]},"status":"final","category":[{"coding":[{"system":"http://terminology.hl7.org/CodeSystem/observation-category","code":"vital-signs","display":"Vital Signs"}]}],"code":{"coding":[{"system":"http://loinc.org","code":"8310-5"}]},"subject":{"reference":"Patient/c53e644d-eb75-488d-9d86-b2ccf31d20d3"},"effectiveDateTime":"2022-12-19T00:00:00+00:00","valueQuantity":{"value":33.95,"unit":"Degrees Fahrenheit","system":"http://unitsofmeasure.org","code":"[degF]"}},"request":{"method":"POST","url":"Observation"}},{"fullUrl":"Observation/d1eb1fc2-4b7b-40fa-9833-06831bee3966","resource":{"resourceType":"Observation","id":"d1eb1fc2-4b7b-40fa-9833-06831bee3966","meta":{"profile":["http://hl7.org/fhir/us/core/StructureDefinition/us-core-heart-rate"]},"status":"final","category":[{"coding":[{"system":"http://terminology.hl7.org/CodeSystem/observation-category","code":"vital-signs","display":"Vital Signs"}]}],"code":{"coding":[{"system":"http://loinc.org","code":"8867-4"}]},"subject":{"reference":"Patient/c53e644d-eb75-488d-9d86-b2ccf31d20d3"},"effectiveDateTime":"2022-04-27T00:00:00+00:00","valueQuantity":{"value":98.8,"unit":"Per Minute","system":"http://unitsofmeasure.org","code":"/min"}},"request":{"method":"POST","url":"Observation"}},{"fullUrl":"Patient/4c3d909a-813a-4c7d-86fc-8744cabafb1a","resource":{"resourceType":"Patient","id":"4c3d909a-813a-4c7d-86fc-8744cabafb1a","meta":{"profile":["http://hl7.org/fhir/us/core/StructureDefinition/us-core-patient"]},"extension":[{"extension":[{"url":"ombCategory","valueCoding":{"system":"http://terminology.hl7.org/CodeSystem/v3-NullFlavor","code":"UNK","display":"unknown"}},{"url":"text","valueString":"unknown"}],"url":"http://hl7.org/fhir/us/core/StructureDefinition/us-core-race"},{"extension":[{"url":"ombCategory","valueCoding":{"system":"urn:oid:2.16.840.1.113883.6.238","code":"2135-2","display":"Hispanic or Latino"}},{"url":"text","valueString":"Hispanic or Latino"}],"url":"http://hl7.org/fhir/us/core/StructureDefinition/us-core-ethnicity"}],"identifier":[{"type":{"coding":[{"system":"http://terminology.hl7.org/CodeSystem/v2-0203","code":"MR"}]},"system":"urn:fhirgen:mrn","value":"521-57-2625"}],"name":[{"use":"official","family":"Wilson","given":["Brittney"]},{"use":"maiden","family":"Allen"}],"telecom":[{"system":"phone","value":"128-205-1651x4967","use":"home"},{"system":"email","value":"williamwilliams@yahoo.com","use":"mobile"}],"gender":"other","birthDate":"1954-01-18","address":[{"use":"home","line":["170 Kidd Mission"],"city":"East Jenniferburgh","state":"VA","postalCode":"56302"},{"use":"old","line":["78326 Lee Courts"],"city":"West Kimberlybury","state":"MS","postalCode":"68193"}]},"request":{"method":"POST","url":"Patient"}},{"fullUrl":"Observation/3af6bf45-43dc-49ef-9fab-27bc5645bdb2","resource":{"resourceType":"Observation","id":"3af6bf45-43dc-49ef-9fab-27bc5645bdb2","meta":{"profile":["http://hl7.org/fhir/us/core/StructureDefinition/us-core-observation-lab"]},"status":"final","category":[{"coding":[{"system":"http://terminology.hl7.org/CodeSystem/observation-category","code":"laboratory","display":"Laboratory"}]}],"code":{"coding":[{"system":"http://loinc.org","code":"71793-4"}]},"subject":{"reference":"Patient/4c3d909a-813a-4c7d-86fc-8744cabafb1a"},"effectiveDateTime":"2022-08-11T00:00:00+00:00","valueRatio":{"numerator":{"value":1},"denominator":{"value":4}}},"request":{"method":"POST","url":"Observation"}},{"fullUrl":"Observation/e7485343-567a-41eb-a272-fc1f5939e3d1","resource":{"resourceType":"Observation","id":"e7485343-567a-41eb-a272-fc1f5939e3d1","meta":{"profile":["http://hl7.org/fhir/us/core/StructureDefinition/us-core-observation-lab"]},"status":"final","category":[{"coding":[{"system":"http://terminology.hl7.org/CodeSystem/observation-category","code":"laboratory","display":"Laboratory"}]}],"code":{"coding":[{"system":"http://loinc.org","code":"71793-4"}]},"subject":{"reference":"Patient/4c3d909a-813a-4c7d-86fc-8744cabafb1a"},"effectiveDateTime":"2022-10-29T00:00:00+00:00","valueRatio":{"numerator":{"value":1},"denominator":{"value":4}}},"request":{"method":"POST","url":"Observation"}},{"fullUrl":"Observation/96b53e1d-453c-4f3a-a09c-dafccd6a39e0","resource":{"resourceType":"Observation","id":"96b53e1d-453c-4f3a-a09c-dafccd6a39e0","meta":{"profile":["http://hl7.org/fhir/us/core/StructureDefinition/us-core-observation-lab"]},"status":"final","category":[{"coding":[{"system":"http://terminology.hl7.org/CodeSystem/observation-category","code":"laboratory","display":"Laboratory"}]}],"code":{"coding":[{"system":"http://loinc.org","code":"31147-2"}]},"subject":{"reference":"Patient/4c3d909a-813a-4c7d-86fc-8744cabafb1a"},"effectiveDateTime":"2022-08-10T00:00:00+00:00","valueRatio":{"numerator":{"value":1},"denominator":{"value":64}}},"request":{"method":"POST","url":"Observation"}},{"fullUrl":"Condition/2c6a427c-e6e6-422e-9cb8-c74c8ab18f71","resource":{"resourceType":"Condition","id":"2c6a427c-e6e6-422e-9cb8-c74c8ab18f71","meta":{"profile":["http://hl7.org/fhir/us/core/StructureDefinition/us-core-condition"]},"clinicalStatus":{"coding":[{"system":"http://terminology.hl7.org/CodeSystem/condition-clinical","code":"active","display":"Active"}]},"category":[{"coding":[{"system":"http://terminology.hl7.org/CodeSystem/condition-category","code":"problem-list-item"}]}],"code":{"coding":[{"system":"http://snomed.info/sct","code":"91554004"}]},"subject":{"reference":"Patient/4c3d909a-813a-4c7d-86fc-8744cabafb1a"},"onsetDateTime":"2022-11-18T00:00:00+00:00"},"request":{"method":"POST","url":"Condition"}},{"fullUrl":"Condition/5bf0df3a-59b1-492a-b23a-ededfc5b20b9","resource":{"resourceType":"Condition","id":"5bf0df3a-59b1-492a-b23a-ededfc5b20b9","meta":{"profile":["http://hl7.org/fhir/us/core/StructureDefinition/us-core-condition"]},"clinicalStatus":{"coding":[{"system":"http://terminology.hl7.org/CodeSystem/condition-clinical","code":"active","display":"Active"}]},"category":[{"coding":[{"system":"http://terminology.hl7.org/CodeSystem/condition-category","code":"problem-list-item"}]}],"code":{"coding":[{"system":"http://snomed.info/sct","code":"736686006"}]},"subject":{"reference":"Patient/4c3d909a-813a-4c7d-86fc-8744cabafb1a"},"onsetDateTime":"2022-05-21T00:00:00+00:00"},"request":{"method":"POST","url":"Condition"}},{"fullUrl":"Condition/5f2f6e5d-c018-4d60-8dd9-5ffa71c33b68","resource":{"resourceType":"Condition","id":"5f2f6e5d-c018-4d60-8dd9-5ffa71c33b68","meta":{"profile":["http://hl7.org/fhir/us/core/StructureDefinition/us-core-condition"]},"clinicalStatus":{"coding":[{"system":"http://terminology.hl7.org/CodeSystem/condition-clinical","code":"active","display":"Active"}]},"category":[{"coding":[{"system":"http://terminology.hl7.org/CodeSystem/condition-category","code":"problem-list-item"}]}],"code":{"coding":[{"system":"http://snomed.info/sct","code":"736686006"}]},"subject":{"reference":"Patient/4c3d909a-813a-4c7d-86fc-8744cabafb1a"},"onsetDateTime":"2022-06-23T00:00:00+00:00"},"request":{"method":"POST","url":"Condition"}},{"fullUrl":"Condition/64b36648-7eb2-4ebe-887f-5b18a742064c","resource":{"resourceType":"Condition","id":"64b36648-7eb2-4ebe-887f-5b18a742064c","meta":{"profile":["http://hl7.org/fhir/us/core/StructureDefinition/us-core-condition"]},"clinicalStatus":{"coding":[{"system":"http://terminology.hl7.org/CodeSystem/condition-clinical","code":"active","display":"Active"}]},"category":[{"coding":[{"system":"http://terminology.hl7.org/CodeSystem/condition-category","code":"problem-list-item"}]}],"code":{"coding":[{"system":"http://snomed.info/sct","code":"736686006"}]},"subject":{"reference":"Patient/4c3d909a-813a-4c7d-86fc-8744cabafb1a"},"onsetDateTime":"2022-04-13T00:00:00+00:00"},"request":{"method":"POST","url":"Condition"}},{"fullUrl":"Condition/119e5852-8bc9-49b4-8111-4c4c35eba6cb","resource":{"resourceType":"Condition","id":"119e5852-8bc9-49b4-8111-4c4c35eba6cb","meta":{"profile":["http://hl7.org/fhir/us/core/StructureDefinition/us-core-condition"]},"clinicalStatus":{"coding":[{"system":"http://terminology.hl7.org/CodeSystem/condition-clinical","code":"active","display":"Active"}]},"category":[{"coding":[{"system":"http://terminology.hl7.org/CodeSystem/condition-category","code":"problem-list-item"}]}],"code":{"coding":[{"system":"http://snomed.info/sct","code":"418290006"}]},"subject":{"reference":"Patient/4c3d909a-813a-4c7d-86fc-8744cabafb1a"},"onsetDateTime":"2022-04-15T00:00:00+00:00"},"request":{"method":"POST","url":"Condition"}},{"fullUrl":"Condition/7e85ec3a-415e-4710-935a-0c403c343b9e","resource":{"resourceType":"Condition","id":"7e85ec3a-415e-4710-935a-0c403c343b9e","meta":{"profile":["http://hl7.org/fhir/us/core/StructureDefinition/us-core-condition"]},"clinicalStatus":{"coding":[{"system":"http://terminology.hl7.org/CodeSystem/condition-clinical","code":"active","display":"Active"}]},"category":[{"coding":[{"system":"http://terminology.hl7.org/CodeSystem/condition-category","code":"problem-list-item"}]}],"code":{"coding":[{"system":"http://snomed.info/sct","code":"736686006"}]},"subject":{"reference":"Patient/4c3d909a-813a-4c7d-86fc-8744cabafb1a"},"onsetDateTime":"2022-01-16T00:00:00+00:00"},"request":{"method":"POST","url":"Condition"}},{"fullUrl":"Observation/004f2891-a813-4e6b-bd53-953439398f0f","resource":{"resourceType":"Observation","id":"004f2891-a813-4e6b-bd53-953439398f0f","meta":{"profile":["http://hl7.org/fhir/us/core/StructureDefinition/us-core-observation-lab"]},"status":"final","category":[{"coding":[{"system":"http://terminology.hl7.org/CodeSystem/observation-category","code":"laboratory","display":"Laboratory"}]}],"code":{"coding":[{"system":"http://loinc.org","code":"49498-9"}]},"subject":{"reference":"Patient/4c3d909a-813a-4c7d-86fc-8744cabafb1a"},"effectiveDateTime":"2022-04-15T00:00:00+00:00","valueQuantity":{"value":4.4}},"request":{"method":"POST","url":"Observation"}},{"fullUrl":"Observation/1b3db1b3-07b1-4058-833e-5fcf2d216b1e","resource":{"resourceType":"Observation","id":"1b3db1b3-07b1-4058-833e-5fcf2d216b1e","meta":{"profile":["http://hl7.org/fhir/us/core/StructureDefinition/us-core-observation-lab"]},"status":"final","category":[{"coding":[{"system":"http://terminology.hl7.org/CodeSystem/observation-category","code":"laboratory","display":"Laboratory"}]}],"code":{"coding":[{"system":"http://loinc.org","code":"6690-2"}]},"subject":{"reference":"Patient/4c3d909a-813a-4c7d-86fc-8744cabafb1a"},"effectiveDateTime":"2022-07-09T00:00:00+00:00","valueQuantity":{"value":5.6}},"request":{"method":"POST","url":"Observation"}},{"fullUrl":"Observation/7034e139-6ec2-42da-b534-85880f1f98e6","resource":{"resourceType":"Observation","id":"7034e139-6ec2-42da-b534-85880f1f98e6","meta":{"profile":["http://hl7.org/fhir/us/core/StructureDefinition/us-core-bmi"]},"status":"final","category":[{"coding":[{"system":"http://terminology.hl7.org/CodeSystem/observation-category","code":"vital-signs","display":"Vital Signs"}]}],"code":{"coding":[{"system":"http://loinc.org","code":"39156-5"}]},"subject":{"reference":"Patient/4c3d909a-813a-4c7d-86fc-8744cabafb1a"},"effectiveDateTime":"2022-02-14T00:00:00+00:00","valueQuantity":{"value":28.64,"unit":"kg/m2","system":"http://unitsofmeasure.org","code":"kg/m2"}},"request":{"method":"POST","url":"Observation"}},{"fullUrl":"Observation/f115ad0e-b9d8-4bc8-be19-a5d05058fc11","resource":{"resourceType":"Observation","id":"f115ad0e-b9d8-4bc8-be19-a5d05058fc11","meta":{"profile":["http://hl7.org/fhir/us/core/StructureDefinition/us-core-bmi"]},"status":"final","category":[{"coding":[{"system":"http://terminology.hl7.org/CodeSystem/observation-category","code":"vital-signs","display":"Vital Signs"}]}],"code":{"coding":[{"system":"http://loinc.org","code":"39156-5"}]},"subject":{"reference":"Patient/4c3d909a-813a-4c7d-86fc-8744cabafb1a"},"effectiveDateTime":"2022-01-30T00:00:00+00:00","valueQuantity":{"value":10.06,"unit":"kg/m2","system":"http://unitsofmeasure.org","code":"kg/m2"}},"request":{"method":"POST","url":"Observation"}},{"fullUrl":"Observation/8fc9ed9e-c540-4313-a100-f5394f6c5a8e","resource":{"resourceType":"Observation","id":"8fc9ed9e-c540-4313-a100-f5394f6c5a8e","meta":{"profile":["http://hl7.org/fhir/us/core/StructureDefinition/us-core-head-circumference"]},"status":"final","category":[{"coding":[{"system":"http://terminology.hl7.org/CodeSystem/observation-category","code":"vital-signs","display":"Vital Signs"}]}],"code":{"coding":[{"system":"http://loinc.org","code":"9843-4"}]},"subject":{"reference":"Patient/4c3d909a-813a-4c7d-86fc-8744cabafb1a"},"effectiveDateTime":"2022-12-16T00:00:00+00:00","valueQuantity":{"value":6.9,"unit":"Inch","system":"http://unitsofmeasure.org","code":"[in_i]"}},"request":{"method":"POST","url":"Observation"}},{"fullUrl":"Observation/fc0b0959-3521-4326-9ed6-3e5a4b815e3b","resource":{"resourceType":"Observation","id":"fc0b0959-3521-4326-9ed6-3e5a4b815e3b","meta":{"profile":["http://hl7.org/fhir/us/core/StructureDefinition/us-core-head-circumference"]},"status":"final","category":[{"coding":[{"system":"http://terminology.hl7.org/CodeSystem/observation-category","code":"vital-signs","display":"Vital Signs"}]}],"code":{"coding":[{"system":"http://loinc.org","code":"9843-4"}]},"subject":{"reference":"Patient/4c3d909a-813a-4c7d-86fc-8744cabafb1a"},"effectiveDateTime":"2022-12-08T00:00:00+00:00","valueQuantity":{"value":3.3,"unit":"Inch","system":"http://unitsofmeasure.org","code":"[in_i]"}},"request":{"method":"POST","url":"Observation"}},{"fullUrl":"Observation/f692d4b1-bf03-4d02-9558-db2d8927ef5d","resource":{"resourceType":"Observation","id":"f692d4b1-bf03-4d02-9558-db2d8927ef5d","meta":{"profile":["http://hl7.org/fhir/us/core/StructureDefinition/us-core-body-height"]},"status":"final","category":[{"coding":[{"system":"http://terminology.hl7.org/CodeSystem/observation-category","code":"vital-signs","display":"Vital Signs"}]}],"code":{"coding":[{"system":"http://loinc.org","code":"8302-2"}]},"subject":{"reference":"Patient/4c3d909a-813a-4c7d-86fc-8744cabafb1a"},"effectiveDateTime":"2022-02-24T00:00:00+00:00","valueQuantity":{"value":61.3,"unit":"Inch","system":"http://unitsofmeasure.org","code":"[in_i]"}},"request":{"method":"POST","url":"Observation"}},{"fullUrl":"Observation/4f82dd03-7b2a-41ae-b130-239d6349d4b5","resource":{"resourceType":"Observation","id":"4f82dd03-7b2a-41ae-b130-239d6349d4b5","meta":{"profile":["http://hl7.org/fhir/us/core/StructureDefinition/us-core-body-weight"]},"status":"final","category":[{"coding":[{"system":"http://terminology.hl7.org/CodeSystem/observation-category","code":"vital-signs","display":"Vital Signs"}]}],"code":{"coding":[{"system":"http://loinc.org","code":"29463-7"}]},"subject":{"reference":"Patient/4c3d909a-813a-4c7d-86fc-8744cabafb1a"},"effectiveDateTime":"2022-05-31T00:00:00+00:00","valueQuantity":{"value":105.39,"unit":"kilogram","system":"http://unitsofmeasure.org","code":"kg"}},"request":{"method":"POST","url":"Observation"}},{"fullUrl":"Observation/ad2aefff-6b85-4518-9531-70eac028682d","resource":{"resourceType":"Observation","id":"ad2aefff-6b85-4518-9531-70eac028682d","meta":{"profile":["http://hl7.org/fhir/us/core/StructureDefinition/us-core-body-temperature"]},"status":"final","category":[{"coding":[{"system":"http://terminology.hl7.org/CodeSystem/observation-category","code":"vital-signs","display":"Vital Signs"}]}],"code":{"coding":[{"system":"http://loinc.org","code":"8310-5"}]},"subject":{"reference":"Patient/4c3d909a-813a-4c7d-86fc-8744cabafb1a"},"effectiveDateTime":"2022-01-02T00:00:00+00:00","valueQuantity":{"value":40.48,"unit":"Degrees Fahrenheit","system":"http://unitsofmeasure.org","code":"[degF]"}},"request":{"method":"POST","url":"Observation"}},{"fullUrl":"Observation/3320df69-c03a-4618-8b2b-d7915526996a","resource":{"resourceType":"Observation","id":"3320df69-c03a-4618-8b2b-d7915526996a","meta":{"profile":["http://hl7.org/fhir/us/core/StructureDefinition/us-core-body-temperature"]},"status":"final","category":[{"coding":[{"system":"http://terminology.hl7.org/CodeSystem/observation-category","code":"vital-signs","display":"Vital Signs"}]}],"code":{"coding":[{"system":"http://loinc.org","code":"8310-5"}]},"subject":{"reference":"Patient/4c3d909a-813a-4c7d-86fc-8744cabafb1a"},"effectiveDateTime":"2022-03-12T00:00:00+00:00","valueQuantity":{"value":93.43,"unit":"Degrees Fahrenheit","system":"http://unitsofmeasure.org","code":"[degF]"}},"request":{"method":"POST","url":"Observation"}},{"fullUrl":"Observation/caa0bffe-ac4d-41ae-9c6a-9e676e611e19","resource":{"resourceType":"Observation","id":"caa0bffe-ac4d-41ae-9c6a-9e676e611e19","meta":{"profile":["http://hl7.org/fhir/us/core/StructureDefinition/us-core-heart-rate"]},"status":"final","category":[{"coding":[{"system":"http://terminology.hl7.org/CodeSystem/observation-category","code":"vital-signs","display":"Vital Signs"}]}],"code":{"coding":[{"system":"http://loinc.org","code":"8867-4"}]},"subject":{"reference":"Patient/4c3d909a-813a-4c7d-86fc-8744cabafb1a"},"effectiveDateTime":"2022-03-11T00:00:00+00:00","valueQuantity":{"value":96,"unit":"Per Minute","system":"http://unitsofmeasure.org","code":"/min"}},"request":{"method":"POST","url":"Observation"}},{"fullUrl":"Observation/ec974fd2-e5e1-40ee-85d1-c07f91a84597","resource":{"resourceType":"Observation","id":"ec974fd2-e5e1-40ee-85d1-c07f91a84597","meta":{"profile":["http://hl7.org/fhir/us/core/StructureDefinition/us-core-heart-rate"]},"status":"final","category":[{"coding":[{"system":"http://terminology.hl7.org/CodeSystem/observation-category","code":"vital-signs","display":"Vital Signs"}]}],"code":{"coding":[{"system":"http://loinc.org","code":"8867-4"}]},"subject":{"reference":"Patient/4c3d909a-813a-4c7d-86fc-8744cabafb1a"},"effectiveDateTime":"2022-02-09T00:00:00+00:00","valueQuantity":{"value":101.2,"unit":"Per Minute","system":"http://unitsofmeasure.org","code":"/min"}},"request":{"method":"POST","url":"Observation"}}]}