{"resourceType":"Bundle","id":"1a33503d-e982-42e2-9c28-1368940cca05","type":"collection","entry":[{"fullUrl":"Patient/3a334efc-6433-473f-8def-42bdadaa18af","resource":{"resourceType":"Patient","id":"3a334efc-6433-473f-8def-42bdadaa18af","meta":{"profile":["http://hl7.org/fhir/us/core/StructureDefinition/us-core-patient"]},"identifier":[{"type":{"coding":[{"system":"http://terminology.hl7.org/CodeSystem/v2-0203","code":"MR"}]},"system":"urn:fhirgen:mrn","value":"570-26-1296"}],"name":[{"family":"Lee","given":["Ryan"]}],"gender":"male","birthDate":"2001-03-21","address":[{"line":["477 Joseph Forges Apt. 412"],"city":"New Darrenstad","state":"Texas"}]}},{"fullUrl":"Observation/ba437fab-47c7-46ed-ba81-ce202fdabd6a","resource":{"resourceType":"Observation","id":"ba437fab-47c7-46ed-ba81-ce202fdabd6a","meta":{"profile":["http://hl7.org/fhir/us/core/StructureDefinition/us-core-observation-lab"]},"status":"final","category":[{"coding":[{"system":"http://terminology.hl7.org/CodeSystem/observation-category","code":"laboratory","display":"Laboratory"}]}],"code":{"coding":[{"system":"http://loinc.org","code":"71793-4"}]},"subject":{"reference":"Patient/3a334efc-6433-473f-8def-42bdadaa18af"},"effectiveDateTime":"2022-10-02T00:00:00+00:00","valueRatio":{"numerator":{"value":1.0},"denominator":{"value":64.0}}}},{"fullUrl":"Observation/68f7a188-9638-44c9-a510-c16280254a07","resource":{"resourceType":"Observation","id":"68f7a188-9638-44c9-a510-c16280254a07","meta":{"profile":["http://hl7.org/fhir/us/core/StructureDefinition/us-core-observation-lab"]},"status":"final","category":[{"coding":[{"system":"http://terminology.hl7.org/CodeSystem/observation-category","code":"laboratory","display":"Laboratory"}]}],"code":{"coding":[{"system":"http://loinc.org","code":"26009-1"}]},"subject":{"reference":"Patient/3a334efc-6433-473f-8def-42bdadaa18af"},"effectiveDateTime":"2022-10-06T00:00:00+00:00","valueRatio":{"numerator":{"value":1.0},"denominator":{"value":64.0}}}},{"fullUrl":"Observation/745c9f67-60bc-495a-8857-1447c8bf12d9","resource":{"resourceType":"Observation","id":"745c9f67-60bc-495a-8857-1447c8bf12d9","meta":{"profile":["http://hl7.org/fhir/us/core/StructureDefinition/us-core-observation-lab"]},"status":"final","category":[{"coding":[{"system":"http://terminology.hl7.org/CodeSystem/observation-category","code":"laboratory","display":"Laboratory"}]}],"code":{"coding":[{"system":"http://loinc.org","code":"47476-7"}]},"subject":{"reference":"Patient/3a334efc-6433-473f-8def-42bdadaa18af"},"effectiveDateTime":"2022-09-05T00:00:00+00:00","valueRatio":{"numerator":{"value":1.0},"denominator":{"value":64.0}}}},{"fullUrl":"Condition/5953ce5c-d251-4f98-b14e-3d152d432799","resource":{"resourceType":"Condition","id":"5953ce5c-d251-4f98-b14e-3d152d432799","meta":{"profile":["http://hl7.org/fhir/us/core/StructureDefinition/us-core-condition"]},"clinicalStatus":{"coding":[{"system":"http://terminology.hl7.org/CodeSystem/condition-clinical","code":"active","display":"Active"}]},"category":[{"coding":[{"system":"http://terminology.hl7.org/CodeSystem/condition-ver-status","code":"confirmed"}]}],"code":{"coding":[{"system":"http://snomed.info/sct","code":"418290006"}]},"subject":{"reference":"Patient/3a334efc-6433-473f-8def-42bdadaa18af"},"onsetDateTime":"2022-03-08T00:00:00+00:00"}},{"fullUrl":"Condition/7e6ef746-76b9-4823-ba55-1b248b23b873","resource":{"resourceType":"Condition","id":"7e6ef746-76b9-4823-ba55-1b248b23b873","meta":{"profile":["http://hl7.org/fhir/us/core/StructureDefinition/us-core-condition"]},"clinicalStatus":{"coding":[{"system":"http://terminology.hl7.org/CodeSystem/condition-clinical","code":"active","display":"Active"}]},"category":[{"coding":[{"system":"http://terminology.hl7.org/CodeSystem/condition-ver-status","code":"confirmed"}]}],"code":{"coding":[{"system":"http://snomed.info/sct","code":"736686006"}]},"subject":{"reference":"Patient/3a334efc-6433-473f-8def-42bdadaa18af"},"onsetDateTime":"2022-06-30T00:00:00+00:00"}},{"fullUrl":"Condition/6fc9caac-2b62-4b69-a23f-c28b8a239627","resource":{"resourceType":"Condition","id":"6fc9caac-2b62-4b69-a23f-c28b8a239627","meta":{"profile":["http://hl7.org/fhir/us/core/StructureDefinition/us-core-condition"]},"clinicalStatus":{"coding":[{"system":"http://terminology.hl7.org/CodeSystem/condition-clinical","code":"active","display":"Active"}]},"category":[{"coding":[{"system":"http://terminology.hl7.org/CodeSystem/condition-ver-status","code":"confirmed"}]}],"code":{"coding":[{"system":"http://snomed.info/sct","code":"736686006"}]},"subject":{"reference":"Patient/3a334efc-6433-473f-8def-42bdadaa18af"},"onsetDateTime":"2022-12-23T00:00:00+00:00"}},{"fullUrl":"Observation/1da871ff-9977-4506-b56f-4fe95f145a34","resource":{"resourceType":"Observation","id":"1da871ff-9977-4506-b56f-4fe95f145a34","meta":{"profile":["http://hl7.org/fhir/us/core/StructureDefinition/us-core-observation-lab"]},"status":"final","category":[{"coding":[{"system":"http://terminology.hl7.org/CodeSystem/observation-category","code":"laboratory","display":"Laboratory"}]}],"code":{"coding":[{"system":"http://loinc.org","code":"6690-2"}]},"subject":{"reference":"Patient/3a334efc-6433-473f-8def-42bdadaa18af"},"effectiveDateTime":"2022-06-15T00:00:00+00:00","valueQuantity":{"value":6.2}}},{"fullUrl":"Observation/5cbafb87-b987-4d33-a603-dd3a17a52f0f","resource":{"resourceType":"Observation","id":"5cbafb87-b987-4d33-a603-dd3a17a52f0f","meta":{"profile":["http://hl7.org/fhir/us/core/StructureDefinition/us-core-observation-lab"]},"status":"final","category":[{"coding":[{"system":"http://terminology.hl7.org/CodeSystem/observation-category","code":"laboratory","display":"Laboratory"}]}],"code":{"coding":[{"system":"http://loinc.org","code":"26464-8"}]},"subject":{"reference":"Patient/3a334efc-6433-473f-8def-42bdadaa18af"},"effectiveDateTime":"2022-11-24T00:00:00+00:00","valueQuantity":{"value":4.3}}},{"fullUrl":"Observation/79f5a285-070d-4694-af53-ea9a4ff7a05f","resource":{"resourceType":"Observation","id":"79f5a285-070d-4694-af53-ea9a4ff7a05f","meta":{"profile":["http://hl7.org/fhir/us/core/StructureDefinition/us-core-bmi"]},"status":"final","category":[{"coding":[{"system":"http://terminology.hl7.org/CodeSystem/observation-category","code":"vital-signs","display":"Vital Signs"}]}],"code":{"coding":[{"system":"http://loinc.org","code":"39156-5"}]},"subject":{"reference":"Patient/3a334efc-6433-473f-8def-42bdadaa18af"},"effectiveDateTime":"2022-11-01T00:00:00+00:00","valueQuantity":{"value":14.99,"unit":"kg/m2","system":"http://unitsofmeasure.org","code":"kg/m2"}}},{"fullUrl":"Observation/70529964-a709-4e25-85e5-1b2d0d7ae977","resource":{"resourceType":"Observation","id":"70529964-a709-4e25-85e5-1b2d0d7ae977","meta":{"profile":["http://hl7.org/fhir/us/core/StructureDefinition/us-core-head-circumference"]},"status":"final","category":[{"coding":[{"system":"http://terminology.hl7.org/CodeSystem/observation-category","code":"vital-signs","display":"Vital Signs"}]}],"code":{"coding":[{"system":"http://loinc.org","code":"9843-4"}]},"subject":{"reference":"Patient/3a334efc-6433-473f-8def-42bdadaa18af"},"effectiveDateTime":"2022-08-01T00:00:00+00:00","valueQuantity":{"value":8.5,"unit":"Inch","system":"http://unitsofmeasure.org","code":"[in_i]"}}},{"fullUrl":"Observation/9bbcc3b3-9063-48d5-9052-bc171446a5a1","resource":{"resourceType":"Observation","id":"9bbcc3b3-9063-48d5-9052-bc171446a5a1","meta":{"profile":["http://hl7.org/fhir/us/core/StructureDefinition/us-core-body-height"]},"status":"final","category":[{"coding":[{"system":"http://terminology.hl7.org/CodeSystem/observation-category","code":"vital-signs","display":"Vital Signs"}]}],"code":{"coding":[{"system":"http://loinc.org","code":"8302-2"}]},"subject":{"reference":"Patient/3a334efc-6433-473f-8def-42bdadaa18af"},"effectiveDateTime":"2022-02-06T00:00:00+00:00","valueQuantity":{"value":62.0,"unit":"Inch","system":"http://unitsofmeasure.org","code":"[in_i]"}}},{"fullUrl":"Observation/b2ed35bc-1f9b-4bba-a4e3-22de4cf7b5eb","resource":{"resourceType":"Observation","id":"b2ed35bc-1f9b-4bba-a4e3-22de4cf7b5eb","meta":{"profile":["http://hl7.org/fhir/us/core/StructureDefinition/us-core-body-height"]},"status":"final","category":[{"coding":[{"system":"http://terminology.hl7.org/CodeSystem/observation-category","code":"vital-signs","display":"Vital Signs"}]}],"code":{"coding":[{"system":"http://loinc.org","code":"8302-2"}]},"subject":{"reference":"Patient/3a334efc-6433-473f-8def-42bdadaa18af"},"effectiveDateTime":"2022-12-31T00:00:00+00:00","valueQuantity":{"value":80.2,"unit":"Inch","system":"http://unitsofmeasure.org","code":"[in_i]"}}},{"fullUrl":"Observation/e7144ea4-69a3-4578-9468-0f4df12e2864","resource":{"resourceType":"Observation","id":"e7144ea4-69a3-4578-9468-0f4df12e2864","meta":{"profile":["http://hl7.org/fhir/us/core/StructureDefinition/us-core-body-weight"]},"status":"final","category":[{"coding":[{"system":"http://terminology.hl7.org/CodeSystem/observation-category","code":"vital-signs","display":"Vital Signs"}]}],"code":{"coding":[{"system":"http://loinc.org","code":"29463-7"}]},"subject":{"reference":"Patient/3a334efc-6433-473f-8def-42bdadaa18af"},"effectiveDateTime":"2022-07-31T00:00:00+00:00","valueQuantity":{"value":56.79,"unit":"kilogram","system":"http://unitsofmeasure.org","code":"kg"}}},{"fullUrl":"Observation/2259aaff-101d-463e-8780-39b8624069de","resource":{"resourceType":"Observation","id":"2259aaff-101d-463e-8780-39b8624069de","meta":{"profile":["http://hl7.org/fhir/us/core/StructureDefinition/us-core-body-temperature"]},"status":"final","category":[{"coding":[{"system":"http://terminology.hl7.org/CodeSystem/observation-category","code":"vital-signs","display":"Vital Signs"}]}],"code":{"coding":[{"system":"http://loinc.org","code":"8310-5"}]},"subject":{"reference":"Patient/3a334efc-6433-473f-8def-42bdadaa18af"},"effectiveDateTime":"2022-11-09T00:00:00+00:00","valueQuantity":{"value":126.3,"unit":"kilogram","system":"http://unitsofmeasure.org","code":"kg"}}},{"fullUrl":"Observation/559bd44b-c702-4fb7-a95f-62c83c0ed160","resource":{"resourceType":"Observation","id":"559bd44b-c702-4fb7-a95f-62c83c0ed160","meta":{"profile":["http://hl7.org/fhir/us/core/StructureDefinition/us-core-heart-rate"]},"status":"final","category":[{"coding":[{"system":"http://terminology.hl7.org/CodeSystem/observation-category","code":"vital-signs","display":"Vital Signs"}]}],"code":{"coding":[{"system":"http://loinc.org","code":"8867-4"}]},"subject":{"reference":"Patient/3a334efc-6433-473f-8def-42bdadaa18af"},"effectiveDateTime":"2022-10-12T00:00:00+00:00","valueQuantity":{"value":99.3,"unit":"Degrees Fahrenheit","system":"http://unitsofmeasure.org","code":"[degF]"}}},{"fullUrl":"Observation/5e73f18a-dd7f-450b-8612-675bdb2e353c","resource":{"resourceType":"Observation","id":"5e73f18a-dd7f-450b-8612-675bdb2e353c","meta":{"profile":["http://hl7.org/fhir/us/core/StructureDefinition/us-core-heart-rate"]},"status":"final","category":[{"coding":[{"system":"http://terminology.hl7.org/CodeSystem/observation-category","code":"vital-signs","display":"Vital Signs"}]}],"code":{"coding":[{"system":"http://loinc.org","code":"8867-4"}]},"subject":{"reference":"Patient/3a334efc-6433-473f-8def-42bdadaa18af"},"effectiveDateTime":"2022-01-16T00:00:00+00:00","valueQuantity":{"value":98.4,"unit":"Degrees Fahrenheit","system":"http://unitsofmeasure.org","code":"[degF]"}}},{"fullUrl":"Patient/a8c93a3e-c511-4be7-8267-ad7e0f98f287","resource":{"resourceType":"Patient","id":"a8c93a3e-c511-4be7-8267-ad7e0f98f287","meta":{"profile":["http://hl7.org/fhir/us/core/StructureDefinition/us-core-patient"]},"identifier":[{"type":{"coding":[{"system":"http://terminology.hl7.org/CodeSystem/v2-0203","code":"MR"}]},"system":"urn:fhirgen:mrn","value":"150-31-0513"}],"name":[{"family":"Ross","given":["Larry"]}],"gender":"male","birthDate":"1966-03-23","address":[{"line":["8759 Schroeder Pass Suite 485"],"city":"Keychester","state":"Nebraska"}]}},{"fullUrl":"Observation/35db7bd7-6d14-418a-863b-648064dbf034","resource":{"resourceType":"Observation","id":"35db7bd7-6d14-418a-863b-648064dbf034","meta":{"profile":["http://hl7.org/fhir/us/core/StructureDefinition/us-core-observation-lab"]},"status":"final","category":[{"coding":[{"system":"http://terminology.hl7.org/CodeSystem/observation-category","code":"laboratory","display":"Laboratory"}]}],"code":{"coding":[{"system":"http://loinc.org","code":"34382-2"}]},"subject":{"reference":"Patient/a8c93a3e-c511-4be7-8267-ad7e0f98f287"},"effectiveDateTime":"2022-10-06T00:00:00+00:00","valueRatio":{"numerator":{"value":1.0},"denominator":{"value":4.0}}}},{"fullUrl":"Observation/0b679682-0acf-45b8-a5eb-0cde1e345304","resource":{"resourceType":"Observation","id":"0b679682-0acf-45b8-a5eb-0cde1e345304","meta":{"profile":["http://hl7.org/fhir/us/core/StructureDefinition/us-core-observation-lab"]},"status":"final","category":[{"coding":[{"system":"http://terminology.hl7.org/CodeSystem/observation-category","code":"laboratory","display":"Laboratory"}]}],"code":{"coding":[{"system":"http://loinc.org","code":"5394-2"}]},"subject":{"reference":"Patient/a8c93a3e-c511-4be7-8267-ad7e0f98f287"},"effectiveDateTime":"2022-07-11T00:00:00+00:00","valueRatio":{"numerator":{"value":1.0},"denominator":{"value":64.0}}}},{"fullUrl":"Observation/8ef807d0-b913-4b8b-9722-d418e3d68050","resource":{"resourceType":"Observation","id":"8ef807d0-b913-4b8b-9722-d418e3d68050","meta":{"profile":["http://hl7.org/fhir/us/core/StructureDefinition/us-core-observation-lab"]},"status":"final","category":[{"coding":[{"system":"http://terminology.hl7.org/CodeSystem/observation-category","code":"laboratory","display":"Laboratory"}]}],"code":{"coding":[{"system":"http://loinc.org","code":"87925-4"}]},"subject":{"reference":"Patient/a8c93a3e-c511-4be7-8267-ad7e0f98f287"},"effectiveDateTime":"2022-05-10T00:00:00+00:00","valueRatio":{"numerator":{"value":1.0},"denominator":{"value":32.0}}}},{"fullUrl":"Condition/147bf5eb-5a8f-4a7c-bb5c-2a6195200a85","resource":{"resourceType":"Condition","id":"147bf5eb-5a8f-4a7c-bb5c-2a6195200a85","meta":{"profile":["http://hl7.org/fhir/us/core/StructureDefinition/us-core-condition"]},"clinicalStatus":{"coding":[{"system":"http://terminology.hl7.org/CodeSystem/condition-clinical","code":"active","display":"Active"}]},"category":[{"coding":[{"system":"http://terminology.hl7.org/CodeSystem/condition-ver-status","code":"confirmed"}]}],"code":{"coding":[{"system":"http://snomed.info/sct","code":"91554004"}]},"subject":{"reference":"Patient/a8c93a3e-c511-4be7-8267-ad7e0f98f287"},"onsetDateTime":"2022-02-18T00:00:00+00:00"}},{"fullUrl":"Condition/f5d22e9b-6a32-4213-9581-df78521c5318","resource":{"resourceType":"Condition","id":"f5d22e9b-6a32-4213-9581-df78521c5318","meta":{"profile":["http://hl7.org/fhir/us/core/StructureDefinition/us-core-condition"]},"clinicalStatus":{"coding":[{"system":"http://terminology.hl7.org/CodeSystem/condition-clinical","code":"active","display":"Active"}]},"category":[{"coding":[{"system":"http://terminology.hl7.org/CodeSystem/condition-ver-status","code":"confirmed"}]}],"code":{"coding":[{"system":"http://snomed.info/sct","code":"91554004"}]},"subject":{"reference":"Patient/a8c93a3e-c511-4be7-8267-ad7e0f98f287"},"onsetDateTime":"2022-01-21T00:00:00+00:00"}},{"fullUrl":"Condition/f4d303f5-3a54-42fc-af12-24f895995d0c","resource":{"resourceType":"Condition","id":"f4d303f5-3a54-42fc-af12-24f895995d0c","meta":{"profile":["http://hl7.org/fhir/us/core/StructureDefinition/us-core-condition"]},"clinicalStatus":{"coding":[{"system":"http://terminology.hl7.org/CodeSystem/condition-clinical","code":"active","display":"Active"}]},"category":[{"coding":[{"system":"http://terminology.hl7.org/CodeSystem/condition-ver-status","code":"confirmed"}]}],"code":{"coding":[{"system":"http://snomed.info/sct","code":"44882003"}]},"subject":{"reference":"Patient/a8c93a3e-c511-4be7-8267-ad7e0f98f287"},"onsetDateTime":"2022-07-11T00:00:00+00:00"}},{"fullUrl":"Condition/93efe4bf-36bc-4f6d-8eb7-8eeda16b8076","resource":{"resourceType":"Condition","id":"93efe4bf-36bc-4f6d-8eb7-8eeda16b8076","meta":{"profile":["http://hl7.org/fhir/us/core/StructureDefinition/us-core-condition"]},"clinicalStatus":{"coding":[{"system":"http://terminology.hl7.org/CodeSystem/condition-clinical","code":"active","display":"Active"}]},"category":[{"coding":[{"system":"http://terminology.hl7.org/CodeSystem/condition-ver-status","code":"confirmed"}]}],"code":{"coding":[{"system":"http://snomed.info/sct","code":"709977002"}]},"subject":{"reference":"Patient/a8c93a3e-c511-4be7-8267-ad7e0f98f287"},"onsetDateTime":"2022-04-30T00:00:00+00:00"}},{"fullUrl":"Condition/73b9d9f2-eef4-46e6-8eb7-e6fbf493bf49","resource":{"resourceType":"Condition","id":"73b9d9f2-eef4-46e6-8eb7-e6fbf493bf49","meta":{"profile":["http://hl7.org/fhir/us/core/StructureDefinition/us-core-condition"]},"clinicalStatus":{"coding":[{"system":"http://terminology.hl7.org/CodeSystem/condition-clinical","code":"active","display":"Active"}]},"category":[{"coding":[{"system":"http://terminology.hl7.org/CodeSystem/condition-ver-status","code":"confirmed"}]}],"code":{"coding":[{"system":"http://snomed.info/sct","code":"91554004"}]},"subject":{"reference":"Patient/a8c93a3e-c511-4be7-8267-ad7e0f98f287"},"onsetDateTime":"2022-07-13T00:00:00+00:00"}},{"fullUrl":"Condition/1c6e4fb5-36ce-47b0-86e7-291f9be15533","resource":{"resourceType":"Condition","id":"1c6e4fb5-36ce-47b0-86e7-291f9be15533","meta":{"profile":["http://hl7.org/fhir/us/core/StructureDefinition/us-core-condition"]},"clinicalStatus":{"coding":[{"system":"http://terminology.hl7.org/CodeSystem/condition-clinical","code":"active","display":"Active"}]},"category":[{"coding":[{"system":"http://terminology.hl7.org/CodeSystem/condition-ver-status","code":"confirmed"}]}],"code":{"coding":[{"system":"http://snomed.info/sct","code":"736686006"}]},"subject":{"reference":"Patient/a8c93a3e-c511-4be7-8267-ad7e0f98f287"},"onsetDateTime":"2022-08-03T00:00:00+00:00"}},{"fullUrl":"Condition/22512ed8-2b9f-4320-bda4-9d5b1509ddbd","resource":{"resourceType":"Condition","id":"22512ed8-2b9f-4320-bda4-9d5b1509ddbd","meta":{"profile":["http://hl7.org/fhir/us/core/StructureDefinition/us-core-condition"]},"clinicalStatus":{"coding":[{"system":"http://terminology.hl7.org/CodeSystem/condition-clinical","code":"active","display":"Active"}]},"category":[{"coding":[{"system":"http://terminology.hl7.org/CodeSystem/condition-ver-status","code":"confirmed"}]}],"code":{"coding":[{"system":"http://snomed.info/sct","code":"418290006"}]},"subject":{"reference":"Patient/a8c93a3e-c511-4be7-8267-ad7e0f98f287"},"onsetDateTime":"2022-10-08T00:00:00+00:00"}},{"fullUrl":"Observation/dffa92cc-3f41-4e5b-914c-933c360c7d66","resource":{"resourceType":"Observation","id":"dffa92cc-3f41-4e5b-914c-933c360c7d66","meta":{"profile":["http://hl7.org/fhir/us/core/StructureDefinition/us-core-observation-lab"]},"status":"final","category":[{"coding":[{"system":"http://terminology.hl7.org/CodeSystem/observation-category","code":"laboratory","display":"Laboratory"}]}],"code":{"coding":[{"system":"http://loinc.org","code":"6690-2"}]},"subject":{"reference":"Patient/a8c93a3e-c511-4be7-8267-ad7e0f98f287"},"effectiveDateTime":"2022-03-30T00:00:00+00:00","valueQuantity":{"value":8.3}}},{"fullUrl":"Observation/43490407-ef9a-44ed-81dd-775facb7c49c","resource":{"resourceType":"Observation","id":"43490407-ef9a-44ed-81dd-775facb7c49c","meta":{"profile":["http://hl7.org/fhir/us/core/StructureDefinition/us-core-observation-lab"]},"status":"final","category":[{"coding":[{"system":"http://terminology.hl7.org/CodeSystem/observation-category","code":"laboratory","display":"Laboratory"}]}],"code":{"coding":[{"system":"http://loinc.org","code":"804-5"}]},"subject":{"reference":"Patient/a8c93a3e-c511-4be7-8267-ad7e0f98f287"},"effectiveDateTime":"2022-08-18T00:00:00+00:00","valueQuantity":{"value":9.8}}},{"fullUrl":"Observation/2cca0789-5fdc-4986-9560-f2bb53174364","resource":{"resourceType":"Observation","id":"2cca0789-5fdc-4986-9560-f2bb53174364","meta":{"profile":["http://hl7.org/fhir/us/core/StructureDefinition/us-core-observation-lab"]},"status":"final","category":[{"coding":[{"system":"http://terminology.hl7.org/CodeSystem/observation-category","code":"laboratory","display":"Laboratory"}]}],"code":{"coding":[{"system":"http://loinc.org","code":"26464-8"}]},"subject":{"reference":"Patient/a8c93a3e-c511-4be7-8267-ad7e0f98f287"},"effectiveDateTime":"2022-11-16T00:00:00+00:00","valueQuantity":{"value":8.1}}},{"fullUrl":"Observation/3e1ef350-fd50-4aab-b889-67f311a2e100","resource":{"resourceType":"Observation","id":"3e1ef350-fd50-4aab-b889-67f311a2e100","meta":{"profile":["http://hl7.org/fhir/us/core/StructureDefinition/us-core-bmi"]},"status":"final","category":[{"coding":[{"system":"http://terminology.hl7.org/CodeSystem/observation-category","code":"vital-signs","display":"Vital Signs"}]}],"code":{"coding":[{"system":"http://loinc.org","code":"39156-5"}]},"subject":{"reference":"Patient/a8c93a3e-c511-4be7-8267-ad7e0f98f287"},"effectiveDateTime":"2022-04-30T00:00:00+00:00","valueQuantity":{"value":17.39,"unit":"kg/m2","system":"http://unitsofmeasure.org","code":"kg/m2"}}},{"fullUrl":"Observation/78dbd333-4a4c-41e2-be98-fc24822fcf09","resource":{"resourceType":"Observation","id":"78dbd333-4a4c-41e2-be98-fc24822fcf09","meta":{"profile":["http://hl7.org/fhir/us/core/StructureDefinition/us-core-bmi"]},"status":"final","category":[{"coding":[{"system":"http://terminology.hl7.org/CodeSystem/observation-category","code":"vital-signs","display":"Vital Signs"}]}],"code":{"coding":[{"system":"http://loinc.org","code":"39156-5"}]},"subject":{"reference":"Patient/a8c93a3e-c511-4be7-8267-ad7e0f98f287"},"effectiveDateTime":"2022-02-25T00:00:00+00:00","valueQuantity":{"value":21.99,"unit":"kg/m2","system":"http://unitsofmeasure.org","code":"kg/m2"}}},{"fullUrl":"Observation/c99a4bd6-20c8-4c1e-8270-8daa4ef83152","resource":{"resourceType":"Observation","id":"c99a4bd6-20c8-4c1e-8270-8daa4ef83152","meta":{"profile":["http://hl7.org/fhir/us/core/StructureDefinition/us-core-head-circumference"]},"status":"final","category":[{"coding":[{"system":"http://terminology.hl7.org/CodeSystem/observation-category","code":"vital-signs","display":"Vital Signs"}]}],"code":{"coding":[{"system":"http://loinc.org","code":"9843-4"}]},"subject":{"reference":"Patient/a8c93a3e-c511-4be7-8267-ad7e0f98f287"},"effectiveDateTime":"2022-09-03T00:00:00+00:00","valueQuantity":{"value":3.3,"unit":"Inch","system":"http://unitsofmeasure.org","code":"[in_i]"}}},{"fullUrl":"Observation/f0747173-e2f9-4903-85e6-0c7cc0206e61","resource":{"resourceType":"Observation","id":"f0747173-e2f9-4903-85e6-0c7cc0206e61","meta":{"profile":["http://hl7.org/fhir/us/core/StructureDefinition/us-core-head-circumference"]},"status":"final","category":[{"coding":[{"system":"http://terminology.hl7.org/CodeSystem/observation-category","code":"vital-signs","display":"Vital Signs"}]}],"code":{"coding":[{"system":"http://loinc.org","code":"9843-4"}]},"subject":{"reference":"Patient/a8c93a3e-c511-4be7-8267-ad7e0f98f287"},"effectiveDateTime":"2022-11-28T00:00:00+00:00","valueQuantity":{"value":6.3,"unit":"Inch","system":"http://unitsofmeasure.org","code":"[in_i]"}}},{"fullUrl":"Observation/ae495bdd-6b9b-4f7c-a17c-d80bbac9ef3e","resource":{"resourceType":"Observation","id":"ae495bdd-6b9b-4f7c-a17c-d80bbac9ef3e","meta":{"profile":["http://hl7.org/fhir/us/core/StructureDefinition/us-core-body-height"]},"status":"final","category":[{"coding":[{"system":"http://terminology.hl7.org/CodeSystem/observation-category","code":"vital-signs","display":"Vital Signs"}]}],"code":{"coding":[{"system":"http://loinc.org","code":"8302-2"}]},"subject":{"reference":"Patient/a8c93a3e-c511-4be7-8267-ad7e0f98f287"},"effectiveDateTime":"2022-06-19T00:00:00+00:00","valueQuantity":{"value":70.2,"unit":"Inch","system":"http://unitsofmeasure.org","code":"[in_i]"}}},{"fullUrl":"Observation/d4c5a4d2-e057-4c48-a92f-48b662991be7","resource":{"resourceType":"Observation","id":"d4c5a4d2-e057-4c48-a92f-48b662991be7","meta":{"profile":["http://hl7.org/fhir/us/core/StructureDefinition/us-core-body-height"]},"status":"final","category":[{"coding":[{"system":"http://terminology.hl7.org/CodeSystem/observation-category","code":"vital-signs","display":"Vital Signs"}]}],"code":{"coding":[{"system":"http://loinc.org","code":"8302-2"}]},"subject":{"reference":"Patient/a8c93a3e-c511-4be7-8267-ad7e0f98f287"},"effectiveDateTime":"2022-08-16T00:00:00+00:00","valueQuantity":{"value":77.3,"unit":"Inch","system":"http://unitsofmeasure.org","code":"[in_i]"}}},{"fullUrl":"Observation/5589092b-cf9c-464f-b56a-04e0aa36099c","resource":{"resourceType":"Observation","id":"5589092b-cf9c-464f-b56a-04e0aa36099c","meta":{"profile":["http://hl7.org/fhir/us/core/StructureDefinition/us-core-body-weight"]},"status":"final","category":[{"coding":[{"system":"http://terminology.hl7.org/CodeSystem/observation-category","code":"vital-signs","display":"Vital Signs"}]}],"code":{"coding":[{"system":"http://loinc.org","code":"29463-7"}]},"subject":{"reference":"Patient/a8c93a3e-c511-4be7-8267-ad7e0f98f287"},"effectiveDateTime":"2022-03-11T00:00:00+00:00","valueQuantity":{"value":72.5,"unit":"kilogram","system":"http://unitsofmeasure.org","code":"kg"}}},{"fullUrl":"Observation/104f639f-a1d1-4779-b724-3bc4886f282e","resource":{"resourceType":"Observation","id":"104f639f-a1d1-4779-b724-3bc4886f282e","meta":{"profile":["http://hl7.org/fhir/us/core/StructureDefinition/us-core-body-weight"]},"status":"final","category":[{"coding":[{"system":"http://terminology.hl7.org/CodeSystem/observation-category","code":"vital-signs","display":"Vital Signs"}]}],"code":{"coding":[{"system":"http://loinc.org","code":"29463-7"}]},"subject":{"reference":"Patient/a8c93a3e-c511-4be7-8267-ad7e0f98f287"},"effectiveDateTime":"2022-06-19T00:00:00+00:00","valueQuantity":{"value":68.92,"unit":"kilogram","system":"http://unitsofmeasure.org","code":"kg"}}},{"fullUrl":"Observation/46100049-5f9f-424a-98b6-e0467c8f8c8b","resource":{"resourceType":"Observation","id":"46100049-5f9f-424a-98b6-e0467c8f8c8b","meta":{"profile":["http://hl7.org/fhir/us/core/StructureDefinition/us-core-body-temperature"]},"status":"final","category":[{"coding":[{"system":"http://terminology.hl7.org/CodeSystem/observation-category","code":"vital-signs","display":"Vital Signs"}]}],"code":{"coding":[{"system":"http://loinc.org","code":"8310-5"}]},"subject":{"reference":"Patient/a8c93a3e-c511-4be7-8267-ad7e0f98f287"},"effectiveDateTime":"2022-04-26T00:00:00+00:00","valueQuantity":{"value":117.48,"unit":"kilogram","system":"http://unitsofmeasure.org","code":"kg"}}},{"fullUrl":"Observation/802e68c0-3770-4437-8d90-2b97c751072e","resource":{"resourceType":"Observation","id":"802e68c0-3770-4437-8d90-2b97c751072e","meta":{"profile":["http://hl7.org/fhir/us/core/StructureDefinition/us-core-heart-rate"]},"status":"final","category":[{"coding":[{"system":"http://terminology.hl7.org/CodeSystem/observation-category","code":"vital-signs","display":"Vital Signs"}]}],"code":{"coding":[{"system":"http://loinc.org","code":"8867-4"}]},"subject":{"reference":"Patient/a8c93a3e-c511-4be7-8267-ad7e0f98f287"},"effectiveDateTime":"2022-05-05T00:00:00+00:00","valueQuantity":{"value":100.5,"unit":"Degrees Fahrenheit","system":"http://unitsofmeasure.org","code":"[degF]"}}},{"fullUrl":"Patient/51fd86c2-97ae-42fe-8356-47708698f0aa","resource":{"resourceType":"Patient","id":"51fd86c2-97ae-42fe-8356-47708698f0aa","meta":{"profile":["http://hl7.org/fhir/us/core/StructureDefinition/us-core-patient"]},"identifier":[{"type":{"coding":[{"system":"http://terminology.hl7.org/CodeSystem/v2-0203","code":"MR"}]},"system":"urn:fhirgen:mrn","value":"744-15-4308"}],"name":[{"family":"Reeves","given":["Erin"]}],"gender":"female","birthDate":"1991-08-03","address":[{"line":["234 Phelps Forge"],"city":"South Luis","state":"New Jersey"}]}},{"fullUrl":"Observation/d09330e1-fd59-4583-bcc5-9ceeac3849b0","resource":{"resourceType":"Observation","id":"d09330e1-fd59-4583-bcc5-9ceeac3849b0","meta":{"profile":["http://hl7.org/fhir/us/core/StructureDefinition/us-core-observation-lab"]},"status":"final","category":[{"coding":[{"system":"http://terminology.hl7.org/CodeSystem/observation-category","code":"laboratory","display":"Laboratory"}]}],"code":{"coding":[{"system":"http://loinc.org","code":"71793-4"}]},"subject":{"reference":"Patient/51fd86c2-97ae-42fe-8356-47708698f0aa"},"effectiveDateTime":"2022-12-02T00:00:00+00:00","valueRatio":{"numerator":{"value":1.0},"denominator":{"value":32.0}}}},{"fullUrl":"Observation/579269ef-776a-4309-b90d-3330ca07328b","resource":{"resourceType":"Observation","id":"579269ef-776a-4309-b90d-3330ca07328b","meta":{"profile":["http://hl7.org/fhir/us/core/StructureDefinition/us-core-observation-lab"]},"status":"final","category":[{"coding":[{"system":"http://terminology.hl7.org/CodeSystem/observation-category","code":"laboratory","display":"Laboratory"}]}],"code":{"coding":[{"system":"http://loinc.org","code":"31146-4"}]},"subject":{"reference":"Patient/51fd86c2-97ae-42fe-8356-47708698f0aa"},"effectiveDateTime":"2022-08-19T00:00:00+00:00","valueRatio":{"numerator":{"value":1.0},"denominator":{"value":32.0}}}},{"fullUrl":"Condition/0d25d3bb-d2f6-4863-8623-5edfccb60c23","resource":{"resourceType":"Condition","id":"0d25d3bb-d2f6-4863-8623-5edfccb60c23","meta":{"profile":["http://hl7.org/fhir/us/core/StructureDefinition/us-core-condition"]},"clinicalStatus":{"coding":[{"system":"http://terminology.hl7.org/CodeSystem/condition-clinical","code":"active","display":"Active"}]},"category":[{"coding":[{"system":"http://terminology.hl7.org/CodeSystem/condition-ver-status","code":"confirmed"}]}],"code":{"coding":[{"system":"http://snomed.info/sct","code":"709977002"}]},"subject":{"reference":"Patient/51fd86c2-97ae-42fe-8356-47708698f0aa"},"onsetDateTime":"2022-04-09T00:00:00+00:00"}},{"fullUrl":"Condition/47c9be1a-0551-4c56-b0fb-0e0c44ce69e0","resource":{"resourceType":"Condition","id":"47c9be1a-0551-4c56-b0fb-0e0c44ce69e0","meta":{"profile":["http://hl7.org/fhir/us/core/StructureDefinition/us-core-condition"]},"clinicalStatus":{"coding":[{"system":"http://terminology.hl7.org/CodeSystem/condition-clinical","code":"active","display":"Active"}]},"category":[{"coding":[{"system":"http://terminology.hl7.org/CodeSystem/condition-ver-status","code":"confirmed"}]}],"code":{"coding":[{"system":"http://snomed.info/sct","code":"91554004"}]},"subject":{"reference":"Patient/51fd86c2-97ae-42fe-8356-47708698f0aa"},"onsetDateTime":"2022-09-19T00:00:00+00:00"}},{"fullUrl":"Condition/f0845a3a-783e-4bc3-8e2e-9f7a754d2a0f","resource":{"resourceType":"Condition","id":"f0845a3a-783e-4bc3-8e2e-9f7a754d2a0f","meta":{"profile":["http://hl7.org/fhir/us/core/StructureDefinition/us-core-condition"]},"clinicalStatus":{"coding":[{"system":"http://terminology.hl7.org/CodeSystem/condition-clinical","code":"active","display":"Active"}]},"category":[{"coding":[{"system":"http://terminology.hl7.org/CodeSystem/condition-ver-status","code":"confirmed"}]}],"code":{"coding":[{"system":"http://snomed.info/sct","code":"44882003"}]},"subject":{"reference":"Patient/51fd86c2-97ae-42fe-8356-47708698f0aa"},"onsetDateTime":"2022-12-19T00:00:00+00:00"}},{"fullUrl":"Condition/a3fb9736-dd47-4326-b38e-fbb3b52a27ff","resource":{"resourceType":"Condition","id":"a3fb9736-dd47-4326-b38e-fbb3b52a27ff","meta":{"profile":["http://hl7.org/fhir/us/core/StructureDefinition/us-core-condition"]},"clinicalStatus":{"coding":[{"system":"http://terminology.hl7.org/CodeSystem/condition-clinical","code":"active","display":"Active"}]},"category":[{"coding":[{"system":"http://terminology.hl7.org/CodeSystem/condition-ver-status","code":"confirmed"}]}],"code":{"coding":[{"system":"http://snomed.info/sct","code":"91554004"}]},"subject":{"reference":"Patient/51fd86c2-97ae-42fe-8356-47708698f0aa"},"onsetDateTime":"2022-07-23T00:00:00+00:00"}},{"fullUrl":"Condition/d4c90e5e-cd6a-46bd-8442-8e668e5ae642","resource":{"resourceType":"Condition","id":"d4c90e5e-cd6a-46bd-8442-8e668e5ae642","meta":{"profile":["http://hl7.org/fhir/us/core/StructureDefinition/us-core-condition"]},"clinicalStatus":{"coding":[{"system":"http://terminology.hl7.org/CodeSystem/condition-clinical","code":"active","display":"Active"}]},"category":[{"coding":[{"system":"http://terminology.hl7.org/CodeSystem/condition-ver-status","code":"confirmed"}]}],"code":{"coding":[{"system":"http://snomed.info/sct","code":"44882003"}]},"subject":{"reference":"Patient/51fd86c2-97ae-42fe-8356-47708698f0aa"},"onsetDateTime":"2022-10-01T00:00:00+00:00"}},{"fullUrl":"Condition/42e01a6d-3728-431d-bc9e-4f643eb46c03","resource":{"resourceType":"Condition","id":"42e01a6d-3728-431d-bc9e-4f643eb46c03","meta":{"profile":["http://hl7.org/fhir/us/core/StructureDefinition/us-core-condition"]},"clinicalStatus":{"coding":[{"system":"http://terminology.hl7.org/CodeSystem/condition-clinical","code":"active","display":"Active"}]},"category":[{"coding":[{"system":"http://terminology.hl7.org/CodeSystem/condition-ver-status","code":"confirmed"}]}],"code":{"coding":[{"system":"http://snomed.info/sct","code":"418290006"}]},"subject":{"reference":"Patient/51fd86c2-97ae-42fe-8356-47708698f0aa"},"onsetDateTime":"2022-08-04T00:00:00+00:00"}},{"fullUrl":"Condition/09b9b491-d643-4928-9580-f790f6d76bdc","resource":{"resourceType":"Condition","id":"09b9b491-d643-4928-9580-f790f6d76bdc","meta":{"profile":["http://hl7.org/fhir/us/core/StructureDefinition/us-core-condition"]},"clinicalStatus":{"coding":[{"system":"http://terminology.hl7.org/CodeSystem/condition-clinical","code":"active","display":"Active"}]},"category":[{"coding":[{"system":"http://terminology.hl7.org/CodeSystem/condition-ver-status","code":"confirmed"}]}],"code":{"coding":[{"system":"http://snomed.info/sct","code":"709977002"}]},"subject":{"reference":"Patient/51fd86c2-97ae-42fe-8356-47708698f0aa"},"onsetDateTime":"2022-12-13T00:00:00+00:00"}},{"fullUrl":"Condition/79b03209-8138-4e55-9d34-cbeb36700662","resource":{"resourceType":"Condition","id":"79b03209-8138-4e55-9d34-cbeb36700662","meta":{"profile":["http://hl7.org/fhir/us/core/StructureDefinition/us-core-condition"]},"clinicalStatus":{"coding":[{"system":"http://terminology.hl7.org/CodeSystem/condition-clinical","code":"active","display":"Active"}]},"category":[{"coding":[{"system":"http://terminology.hl7.org/CodeSystem/condition-ver-status","code":"confirmed"}]}],"code":{"coding":[{"system":"http://snomed.info/sct","code":"91554004"}]},"subject":{"reference":"Patient/51fd86c2-97ae-42fe-8356-47708698f0aa"},"onsetDateTime":"2022-04-30T00:00:00+00:00"}},{"fullUrl":"Observation/84ce594c-79fb-4d38-b8a7-e55f8d5edf5b","resource":{"resourceType":"Observation","id":"84ce594c-79fb-4d38-b8a7-e55f8d5edf5b","meta":{"profile":["http://hl7.org/fhir/us/core/StructureDefinition/us-core-observation-lab"]},"status":"final","category":[{"coding":[{"system":"http://terminology.hl7.org/CodeSystem/observation-category","code":"laboratory","display":"Laboratory"}]}],"code":{"coding":[{"system":"http://loinc.org","code":"6690-2"}]},"subject":{"reference":"Patient/51fd86c2-97ae-42fe-8356-47708698f0aa"},"effectiveDateTime":"2022-08-24T00:00:00+00:00","valueQuantity":{"value":5.5}}},{"fullUrl":"Observation/47515677-e89b-469e-b612-151b0a737626","resource":{"resourceType":"Observation","id":"47515677-e89b-469e-b612-151b0a737626","meta":{"profile":["http://hl7.org/fhir/us/core/StructureDefinition/us-core-observation-lab"]},"status":"final","category":[{"coding":[{"system":"http://terminology.hl7.org/CodeSystem/observation-category","code":"laboratory","display":"Laboratory"}]}],"code":{"coding":[{"system":"http://loinc.org","code":"26464-8"}]},"subject":{"reference":"Patient/51fd86c2-97ae-42fe-8356-47708698f0aa"},"effectiveDateTime":"2022-02-28T00:00:00+00:00","valueQuantity":{"value":6.1}}},{"fullUrl":"Observation/e18859d0-a6e2-4a45-bedf-be7d065f0a66","resource":{"resourceType":"Observation","id":"e18859d0-a6e2-4a45-bedf-be7d065f0a66","meta":{"profile":["http://hl7.org/fhir/us/core/StructureDefinition/us-core-observation-lab"]},"status":"final","category":[{"coding":[{"system":"http://terminology.hl7.org/CodeSystem/observation-category","code":"laboratory","display":"Laboratory"}]}],"code":{"coding":[{"system":"http://loinc.org","code":"804-5"}]},"subject":{"reference":"Patient/51fd86c2-97ae-42fe-8356-47708698f0aa"},"effectiveDateTime":"2022-08-12T00:00:00+00:00","valueQuantity":{"value":6.6}}},{"fullUrl":"Observation/35e72821-c6f7-4ab3-b241-53cde098d80c","resource":{"resourceType":"Observation","id":"35e72821-c6f7-4ab3-b241-53cde098d80c","meta":{"profile":["http://hl7.org/fhir/us/core/StructureDefinition/us-core-bmi"]},"status":"final","category":[{"coding":[{"system":"http://terminology.hl7.org/CodeSystem/observation-category","code":"vital-signs","display":"Vital Signs"}]}],"code":{"coding":[{"system":"http://loinc.org","code":"39156-5"}]},"subject":{"reference":"Patient/51fd86c2-97ae-42fe-8356-47708698f0aa"},"effectiveDateTime":"2022-03-29T00:00:00+00:00","valueQuantity":{"value":16.37,"unit":"kg/m2","system":"http://unitsofmeasure.org","code":"kg/m2"}}},{"fullUrl":"Observation/088aba63-a845-4249-8603-14f80ea540b0","resource":{"resourceType":"Observation","id":"088aba63-a845-4249-8603-14f80ea540b0","meta":{"profile":["http://hl7.org/fhir/us/core/StructureDefinition/us-core-head-circumference"]},"status":"final","category":[{"coding":[{"system":"http://terminology.hl7.org/CodeSystem/observation-category","code":"vital-signs","display":"Vital Signs"}]}],"code":{"coding":[{"system":"http://loinc.org","code":"9843-4"}]},"subject":{"reference":"Patient/51fd86c2-97ae-42fe-8356-47708698f0aa"},"effectiveDateTime":"2022-11-17T00:00:00+00:00","valueQuantity":{"value":4.7,"unit":"Inch","system":"http://unitsofmeasure.org","code":"[in_i]"}}},{"fullUrl":"Observation/923cf631-fcc3-428c-816c-2cbe1d892e97","resource":{"resourceType":"Observation","id":"923cf631-fcc3-428c-816c-2cbe1d892e97","meta":{"profile":["http://hl7.org/fhir/us/core/StructureDefinition/us-core-body-height"]},"status":"final","category":[{"coding":[{"system":"http://terminology.hl7.org/CodeSystem/observation-category","code":"vital-signs","display":"Vital Signs"}]}],"code":{"coding":[{"system":"http://loinc.org","code":"8302-2"}]},"subject":{"reference":"Patient/51fd86c2-97ae-42fe-8356-47708698f0aa"},"effectiveDateTime":"2022-05-24T00:00:00+00:00","valueQuantity":{"value":72.5,"unit":"Inch","system":"http://unitsofmeasure.org","code":"[in_i]"}}},{"fullUrl":"Observation/f904d237-522c-4795-82d3-bcc4d6dc77f5","resource":{"resourceType":"Observation","id":"f904d237-522c-4795-82d3-bcc4d6dc77f5","meta":{"profile":["http://hl7.org/fhir/us/core/StructureDefinition/us-core-body-weight"]},"status":"final","category":[{"coding":[{"system":"http://terminology.hl7.org/CodeSystem/observation-category","code":"vital-signs","display":"Vital Signs"}]}],"code":{"coding":[{"system":"http://loinc.org","code":"29463-7"}]},"subject":{"reference":"Patient/51fd86c2-97ae-42fe-8356-47708698f0aa"},"effectiveDateTime":"2022-04-14T00:00:00+00:00","valueQuantity":{"value":81.78,"unit":"kilogram","system":"http://unitsofmeasure.org","code":"kg"}}},{"fullUrl":"Observation/6b335fcd-57e6-4430-9019-2120fd5b71cc","resource":{"resourceType":"Observation","id":"6b335fcd-57e6-4430-9019-2120fd5b71cc","meta":{"profile":["http://hl7.org/fhir/us/core/StructureDefinition/us-core-body-weight"]},"status":"final","category":[{"coding":[{"system":"http://terminology.hl7.org/CodeSystem/observation-category","code":"vital-signs","display":"Vital Signs"}]}],"code":{"coding":[{"system":"http://loinc.org","code":"29463-7"}]},"subject":{"reference":"Patient/51fd86c2-97ae-42fe-8356-47708698f0aa"},"effectiveDateTime":"2022-05-22T00:00:00+00:00","valueQuantity":{"value":102.81,"unit":"kilogram","system":"http://unitsofmeasure.org","code":"kg"}}},{"fullUrl":"Observation/07db2db5-b0bc-434c-9fe5-b80264ab9b63","resource":{"resourceType":"Observation","id":"07db2db5-b0bc-434c-9fe5-b80264ab9b63","meta":{"profile":["http://hl7.org/fhir/us/core/StructureDefinition/us-core-body-temperature"]},"status":"final","category":[{"coding":[{"system":"http://terminology.hl7.org/CodeSystem/observation-category","code":"vital-signs","display":"Vital Signs"}]}],"code":{"coding":[{"system":"http://loinc.org","code":"8310-5"}]},"subject":{"reference":"Patient/51fd86c2-97ae-42fe-8356-47708698f0aa"},"effectiveDateTime":"2022-10-09T00:00:00+00:00","valueQuantity":{"value":117.64,"unit":"kilogram","system":"http://unitsofmeasure.org","code":"kg"}}},{"fullUrl":"Observation/ce17ed6c-9e17-4630-8d3a-62d67d52d840","resource":{"resourceType":"Observation","id":"ce17ed6c-9e17-4630-8d3a-62d67d52d840","meta":{"profile":["http://hl7.org/fhir/us/core/StructureDefinition/us-core-heart-rate"]},"status":"final","category":[{"coding":[{"system":"http://terminology.hl7.org/CodeSystem/observation-category","code":"vital-signs","display":"Vital Signs"}]}],"code":{"coding":[{"system":"http://loinc.org","code":"8867-4"}]},"subject":{"reference":"Patient/51fd86c2-97ae-42fe-8356-47708698f0aa"},"effectiveDateTime":"2022-07-02T00:00:00+00:00","valueQuantity":{"value":96.7,"unit":"Degrees Fahrenheit","system":"http://unitsofmeasure.org","code":"[degF]"}}},{"fullUrl":"Patient/97a9f157-c584-41e4-a222-9ef8924c3679","resource":{"resourceType":"Patient","id":"97a9f157-c584-41e4-a222-9ef8924c3679","meta":{"profile":["http://hl7.org/fhir/us/core/StructureDefinition/us-core-patient"]},"identifier":[{"type":{"coding":[{"system":"http://terminology.hl7.org/CodeSystem/v2-0203","code":"MR"}]},"system":"urn:fhirgen:mrn","value":"592-50-5325"}],"name":[{"family":"Hill","given":["Alexandra"]}],"gender":"female","birthDate":"1946-05-22","address":[{"line":["99579 Jeffrey Island Suite 193"],"city":"East Theresa","state":"Alabama"}]}},{"fullUrl":"Observation/3821aab2-e27e-4abe-9768-98d695a12895","resource":{"resourceType":"Observation","id":"3821aab2-e27e-4abe-9768-98d695a12895","meta":{"profile":["http://hl7.org/fhir/us/core/StructureDefinition/us-core-observation-lab"]},"status":"final","category":[{"coding":[{"system":"http://terminology.hl7.org/CodeSystem/observation-category","code":"laboratory","display":"Laboratory"}]}],"code":{"coding":[{"system":"http://loinc.org","code":"46203-6"}]},"subject":{"reference":"Patient/97a9f157-c584-41e4-a222-9ef8924c3679"},"effectiveDateTime":"2022-10-11T00:00:00+00:00","valueRatio":{"numerator":{"value":1.0},"denominator":{"value":64.0}}}},{"fullUrl":"Observation/e9363880-1999-409c-a41f-59ba459dc197","resource":{"resourceType":"Observation","id":"e9363880-1999-409c-a41f-59ba459dc197","meta":{"profile":["http://hl7.org/fhir/us/core/StructureDefinition/us-core-observation-lab"]},"status":"final","category":[{"coding":[{"system":"http://terminology.hl7.org/CodeSystem/observation-category","code":"laboratory","display":"Laboratory"}]}],"code":{"coding":[{"system":"http://loinc.org","code":"50690-7"}]},"subject":{"reference":"Patient/97a9f157-c584-41e4-a222-9ef8924c3679"},"effectiveDateTime":"2022-05-27T00:00:00+00:00","valueRatio":{"numerator":{"value":1.0},"denominator":{"value":64.0}}}},{"fullUrl":"Condition/61dd5f43-6939-4320-87ab-242100dc9533","resource":{"resourceType":"Condition","id":"61dd5f43-6939-4320-87ab-242100dc9533","meta":{"profile":["http://hl7.org/fhir/us/core/StructureDefinition/us-core-condition"]},"clinicalStatus":{"coding":[{"system":"http://terminology.hl7.org/CodeSystem/condition-clinical","code":"active","display":"Active"}]},"category":[{"coding":[{"system":"http://terminology.hl7.org/CodeSystem/condition-ver-status","code":"confirmed"}]}],"code":{"coding":[{"system":"http://snomed.info/sct","code":"709977002"}]},"subject":{"reference":"Patient/97a9f157-c584-41e4-a222-9ef8924c3679"},"onsetDateTime":"2022-02-11T00:00:00+00:00"}},{"fullUrl":"Condition/bb0834ab-2458-473d-9bbe-4cbd3d8dc7ce","resource":{"resourceType":"Condition","id":"bb0834ab-2458-473d-9bbe-4cbd3d8dc7ce","meta":{"profile":["http://hl7.org/fhir/us/core/StructureDefinition/us-core-condition"]},"clinicalStatus":{"coding":[{"system":"http://terminology.hl7.org/CodeSystem/condition-clinical","code":"active","display":"Active"}]},"category":[{"coding":[{"system":"http://terminology.hl7.org/CodeSystem/condition-ver-status","code":"confirmed"}]}],"code":{"coding":[{"system":"http://snomed.info/sct","code":"736686006"}]},"subject":{"reference":"Patient/97a9f157-c584-41e4-a222-9ef8924c3679"},"onsetDateTime":"2022-07-26T00:00:00+00:00"}},{"fullUrl":"Condition/59b0ca32-930e-45f1-bc2c-b75a5fd64c2f","resource":{"resourceType":"Condition","id":"59b0ca32-930e-45f1-bc2c-b75a5fd64c2f","meta":{"profile":["http://hl7.org/fhir/us/core/StructureDefinition/us-core-condition"]},"clinicalStatus":{"coding":[{"system":"http://terminology.hl7.org/CodeSystem/condition-clinical","code":"active","display":"Active"}]},"category":[{"coding":[{"system":"http://terminology.hl7.org/CodeSystem/condition-ver-status","code":"confirmed"}]}],"code":{"coding":[{"system":"http://snomed.info/sct","code":"709977002"}]},"subject":{"reference":"Patient/97a9f157-c584-41e4-a222-9ef8924c3679"},"onsetDateTime":"2022-09-10T00:00:00+00:00"}},{"fullUrl":"Condition/ca67fb1f-07b8-4b4d-9e7b-c50386e3dfc3","resource":{"resourceType":"Condition","id":"ca67fb1f-07b8-4b4d-9e7b-c50386e3dfc3","meta":{"profile":["http://hl7.org/fhir/us/core/StructureDefinition/us-core-condition"]},"clinicalStatus":{"coding":[{"system":"http://terminology.hl7.org/CodeSystem/condition-clinical","code":"active","display":"Active"}]},"category":[{"coding":[{"system":"http://terminology.hl7.org/CodeSystem/condition-ver-status","code":"confirmed"}]}],"code":{"coding":[{"system":"http://snomed.info/sct","code":"91554004"}]},"subject":{"reference":"Patient/97a9f157-c584-41e4-a222-9ef8924c3679"},"onsetDateTime":"2022-10-07T00:00:00+00:00"}},{"fullUrl":"Condition/747d9518-9c54-46b1-b87d-cc23e43c1c51","resource":{"resourceType":"Condition","id":"747d9518-9c54-46b1-b87d-cc23e43c1c51","meta":{"profile":["http://hl7.org/fhir/us/core/StructureDefinition/us-core-condition"]},"clinicalStatus":{"coding":[{"system":"http://terminology.hl7.org/CodeSystem/condition-clinical","code":"active","display":"Active"}]},"category":[{"coding":[{"system":"http://terminology.hl7.org/CodeSystem/condition-ver-status","code":"confirmed"}]}],"code":{"coding":[{"system":"http://snomed.info/sct","code":"44882003"}]},"subject":{"reference":"Patient/97a9f157-c584-41e4-a222-9ef8924c3679"},"onsetDateTime":"2022-08-18T00:00:00+00:00"}},{"fullUrl":"Condition/47248f5d-8f52-41e4-9b3b-e70d16405dfd","resource":{"resourceType":"Condition","id":"47248f5d-8f52-41e4-9b3b-e70d16405dfd","meta":{"profile":["http://hl7.org/fhir/us/core/StructureDefinition/us-core-condition"]},"clinicalStatus":{"coding":[{"system":"http://terminology.hl7.org/CodeSystem/condition-clinical","code":"active","display":"Active"}]},"category":[{"coding":[{"system":"http://terminology.hl7.org/CodeSystem/condition-ver-status","code":"confirmed"}]}],"code":{"coding":[{"system":"http://snomed.info/sct","code":"736686006"}]},"subject":{"reference":"Patient/97a9f157-c584-41e4-a222-9ef8924c3679"},"onsetDateTime":"2022-12-25T00:00:00+00:00"}},{"fullUrl":"Observation/425309fb-1f34-4d96-aa47-88ba39782dd6","resource":{"resourceType":"Observation","id":"425309fb-1f34-4d96-aa47-88ba39782dd6","meta":{"profile":["http://hl7.org/fhir/us/core/StructureDefinition/us-core-observation-lab"]},"status":"final","category":[{"coding":[{"system":"http://terminology.hl7.org/CodeSystem/observation-category","code":"laboratory","display":"Laboratory"}]}],"code":{"coding":[{"system":"http://loinc.org","code":"49498-9"}]},"subject":{"reference":"Patient/97a9f157-c584-41e4-a222-9ef8924c3679"},"effectiveDateTime":"2022-01-10T00:00:00+00:00","valueQuantity":{"value":6.4}}},{"fullUrl":"Observation/c3583377-4c98-4ab2-b864-5903f3a06356","resource":{"resourceType":"Observation","id":"c3583377-4c98-4ab2-b864-5903f3a06356","meta":{"profile":["http://hl7.org/fhir/us/core/StructureDefinition/us-core-observation-lab"]},"status":"final","category":[{"coding":[{"system":"http://terminology.hl7.org/CodeSystem/observation-category","code":"laboratory","display":"Laboratory"}]}],"code":{"coding":[{"system":"http://loinc.org","code":"49498-9"}]},"subject":{"reference":"Patient/97a9f157-c584-41e4-a222-9ef8924c3679"},"effectiveDateTime":"2022-08-08T00:00:00+00:00","valueQuantity":{"value":6.6}}},{"fullUrl":"Observation/3be463c8-c512-4679-bacd-c863a40d37e0","resource":{"resourceType":"Observation","id":"3be463c8-c512-4679-bacd-c863a40d37e0","meta":{"profile":["http://hl7.org/fhir/us/core/StructureDefinition/us-core-bmi"]},"status":"final","category":[{"coding":[{"system":"http://terminology.hl7.org/CodeSystem/observation-category","code":"vital-signs","display":"Vital Signs"}]}],"code":{"coding":[{"system":"http://loinc.org","code":"39156-5"}]},"subject":{"reference":"Patient/97a9f157-c584-41e4-a222-9ef8924c3679"},"effectiveDateTime":"2022-12-30T00:00:00+00:00","valueQuantity":{"value":29.66,"unit":"kg/m2","system":"http://unitsofmeasure.org","code":"kg/m2"}}},{"fullUrl":"Observation/76ebc2ad-63c1-4c0c-96bc-6c6fbffae542","resource":{"resourceType":"Observation","id":"76ebc2ad-63c1-4c0c-96bc-6c6fbffae542","meta":{"profile":["http://hl7.org/fhir/us/core/StructureDefinition/us-core-bmi"]},"status":"final","category":[{"coding":[{"system":"http://terminology.hl7.org/CodeSystem/observation-category","code":"vital-signs","display":"Vital Signs"}]}],"code":{"coding":[{"system":"http://loinc.org","code":"39156-5"}]},"subject":{"reference":"Patient/97a9f157-c584-41e4-a222-9ef8924c3679"},"effectiveDateTime":"2022-07-28T00:00:00+00:00","valueQuantity":{"value":25.46,"unit":"kg/m2","system":"http://unitsofmeasure.org","code":"kg/m2"}}},{"fullUrl":"Observation/8af4c26e-d2d7-4a99-b6f4-b8920109b361","resource":{"resourceType":"Observation","id":"8af4c26e-d2d7-4a99-b6f4-b8920109b361","meta":{"profile":["http://hl7.org/fhir/us/core/StructureDefinition/us-core-head-circumference"]},"status":"final","category":[{"coding":[{"system":"http://terminology.hl7.org/CodeSystem/observation-category","code":"vital-signs","display":"Vital Signs"}]}],"code":{"coding":[{"system":"http://loinc.org","code":"9843-4"}]},"subject":{"reference":"Patient/97a9f157-c584-41e4-a222-9ef8924c3679"},"effectiveDateTime":"2022-04-22T00:00:00+00:00","valueQuantity":{"value":8.3,"unit":"Inch","system":"http://unitsofmeasure.org","code":"[in_i]"}}},{"fullUrl":"Observation/f204c18a-0456-4f21-bf0f-9c5c2796ebd7","resource":{"resourceType":"Observation","id":"f204c18a-0456-4f21-bf0f-9c5c2796ebd7","meta":{"profile":["http://hl7.org/fhir/us/core/StructureDefinition/us-core-head-circumference"]},"status":"final","category":[{"coding":[{"system":"http://terminology.hl7.org/CodeSystem/observation-category","code":"vital-signs","display":"Vital Signs"}]}],"code":{"coding":[{"system":"http://loinc.org","code":"9843-4"}]},"subject":{"reference":"Patient/97a9f157-c584-41e4-a222-9ef8924c3679"},"effectiveDateTime":"2022-07-02T00:00:00+00:00","valueQuantity":{"value":7.2,"unit":"Inch","system":"http://unitsofmeasure.org","code":"[in_i]"}}},{"fullUrl":"Observation/2312b4d4-2690-4049-a7b9-5f1907b78a30","resource":{"resourceType":"Observation","id":"2312b4d4-2690-4049-a7b9-5f1907b78a30","meta":{"profile":["http://hl7.org/fhir/us/core/StructureDefinition/us-core-body-height"]},"status":"final","category":[{"coding":[{"system":"http://terminology.hl7.org/CodeSystem/observation-category","code":"vital-signs","display":"Vital Signs"}]}],"code":{"coding":[{"system":"http://loinc.org","code":"8302-2"}]},"subject":{"reference":"Patient/97a9f157-c584-41e4-a222-9ef8924c3679"},"effectiveDateTime":"2022-08-28T00:00:00+00:00","valueQuantity":{"value":82.0,"unit":"Inch","system":"http://unitsofmeasure.org","code":"[in_i]"}}},{"fullUrl":"Observation/14387170-0232-4179-859a-bc1559cda4af","resource":{"resourceType":"Observation","id":"14387170-0232-4179-859a-bc1559cda4af","meta":{"profile":["http://hl7.org/fhir/us/core/StructureDefinition/us-core-body-height"]},"status":"final","category":[{"coding":[{"system":"http://terminology.hl7.org/CodeSystem/observation-category","code":"vital-signs","display":"Vital Signs"}]}],"code":{"coding":[{"system":"http://loinc.org","code":"8302-2"}]},"subject":{"reference":"Patient/97a9f157-c584-41e4-a222-9ef8924c3679"},"effectiveDateTime":"2022-12-07T00:00:00+00:00","valueQuantity":{"value":66.9,"unit":"Inch","system":"http://unitsofmeasure.org","code":"[in_i]"}}},{"fullUrl":"Observation/394f336e-e8fd-4b40-a7f8-d0cee46db0c8","resource":{"resourceType":"Observation","id":"394f336e-e8fd-4b40-a7f8-d0cee46db0c8","meta":{"profile":["http://hl7.org/fhir/us/core/StructureDefinition/us-core-body-weight"]},"status":"final","category":[{"coding":[{"system":"http://terminology.hl7.org/CodeSystem/observation-category","code":"vital-signs","display":"Vital Signs"}]}],"code":{"coding":[{"system":"http://loinc.org","code":"29463-7"}]},"subject":{"reference":"Patient/97a9f157-c584-41e4-a222-9ef8924c3679"},"effectiveDateTime":"2022-12-17T00:00:00+00:00","valueQuantity":{"value":118.19,"unit":"kilogram","system":"http://unitsofmeasure.org","code":"kg"}}},{"fullUrl":"Observation/9bd8a249-8687-43c9-87df-8e12a06b0169","resource":{"resourceType":"Observation","id":"9bd8a249-8687-43c9-87df-8e12a06b0169","meta":{"profile":["http://hl7.org/fhir/us/core/StructureDefinition/us-core-body-temperature"]},"status":"final","category":[{"coding":[{"system":"http://terminology.hl7.org/CodeSystem/observation-category","code":"vital-signs","display":"Vital Signs"}]}],"code":{"coding":[{"system":"http://loinc.org","code":"8310-5"}]},"subject":{"reference":"Patient/97a9f157-c584-41e4-a222-9ef8924c3679"},"effectiveDateTime":"2022-08-31T00:00:00+00:00","valueQuantity":{"value":76.73,"unit":"kilogram","system":"http://unitsofmeasure.org","code":"kg"}}},{"fullUrl":"Observation/0fdc38f7-60e1-40ff-81ff-57dd4123a4f0","resource":{"resourceType":"Observation","id":"0fdc38f7-60e1-40ff-81ff-57dd4123a4f0","meta":{"profile":["http://hl7.org/fhir/us/core/StructureDefinition/us-core-body-temperature"]},"status":"final","category":[{"coding":[{"system":"http://terminology.hl7.org/CodeSystem/observation-category","code":"vital-signs","display":"Vital Signs"}]}],"code":{"coding":[{"system":"http://loinc.org","code":"8310-5"}]},"subject":{"reference":"Patient/97a9f157-c584-41e4-a222-9ef8924c3679"},"effectiveDateTime":"2022-09-07T00:00:00+00:00","valueQuantity":{"value":129.77,"unit":"kilogram","system":"http://unitsofmeasure.org","code":"kg"}}},{"fullUrl":"Observation/e02d66f4-3cc9-4015-a530-bfea7da55470","resource":{"resourceType":"Observation","id":"e02d66f4-3cc9-4015-a530-bfea7da55470","meta":{"profile":["http://hl7.org/fhir/us/core/StructureDefinition/us-core-heart-rate"]},"status":"final","category":[{"coding":[{"system":"http://terminology.hl7.org/CodeSystem/observation-category","code":"vital-signs","display":"Vital Signs"}]}],"code":{"coding":[{"system":"http://loinc.org","code":"8867-4"}]},"subject":{"reference":"Patient/97a9f157-c584-41e4-a222-9ef8924c3679"},"effectiveDateTime":"2022-10-08T00:00:00+00:00","valueQuantity":{"value":98.9,"unit":"Degrees Fahrenheit","system":"http://unitsofmeasure.org","code":"[degF]"}}},{"fullUrl":"Patient/5603c1cc-b8f2-4295-b6ec-250d6d78e1c4","resource":{"resourceType":"Patient","id":"5603c1cc-b8f2-4295-b6ec-250d6d78e1c4","meta":{"profile":["http://hl7.org/fhir/us/core/StructureDefinition/us-core-patient"]},"identifier":[{"type":{"coding":[{"system":"http://terminology.hl7.org/CodeSystem/v2-0203","code":"MR"}]},"system":"urn:fhirgen:mrn","value":"763-27-2318"}],"name":[{"family":"Horton","given":["Ashley"]}],"gender":"other","birthDate":"1972-02-19","address":[{"line":["405 Alyssa Parkway"],"city":"Lisastad","state":"New Jersey"}]}},{"fullUrl":"Observation/0bbcda31-cefc-4ff1-a735-6f5e3d1e1b52","resource":{"resourceType":"Observation","id":"0bbcda31-cefc-4ff1-a735-6f5e3d1e1b52","meta":{"profile":["http://hl7.org/fhir/us/core/StructureDefinition/us-core-observation-lab"]},"status":"final","category":[{"coding":[{"system":"http://terminology.hl7.org/CodeSystem/observation-category","code":"laboratory","display":"Laboratory"}]}],"code":{"coding":[{"system":"http://loinc.org","code":"5394-2"}]},"subject":{"reference":"Patient/5603c1cc-b8f2-4295-b6ec-250d6d78e1c4"},"effectiveDateTime":"2022-11-16T00:00:00+00:00","valueRatio":{"numerator":{"value":1.0},"denominator":{"value":32.0}}}},{"fullUrl":"Observation/5b665e7a-ce96-423b-a06a-4e5b5133eb34","resource":{"resourceType":"Observation","id":"5b665e7a-ce96-423b-a06a-4e5b5133eb34","meta":{"profile":["http://hl7.org/fhir/us/core/StructureDefinition/us-core-observation-lab"]},"status":"final","category":[{"coding":[{"system":"http://terminology.hl7.org/CodeSystem/observation-category","code":"laboratory","display":"Laboratory"}]}],"code":{"coding":[{"system":"http://loinc.org","code":"50690-7"}]},"subject":{"reference":"Patient/5603c1cc-b8f2-4295-b6ec-250d6d78e1c4"},"effectiveDateTime":"2022-08-09T00:00:00+00:00","valueRatio":{"numerator":{"value":1.0},"denominator":{"value":64.0}}}},{"fullUrl":"Condition/dcef944c-14f2-4a47-ac60-3add886e39be","resource":{"resourceType":"Condition","id":"dcef944c-14f2-4a47-ac60-3add886e39be","meta":{"profile":["http://hl7.org/fhir/us/core/StructureDefinition/us-core-condition"]},"clinicalStatus":{"coding":[{"system":"http://terminology.hl7.org/CodeSystem/condition-clinical","code":"active","display":"Active"}]},"category":[{"coding":[{"system":"http://terminology.hl7.org/CodeSystem/condition-ver-status","code":"confirmed"}]}],"code":{"coding":[{"system":"http://snomed.info/sct","code":"44882003"}]},"subject":{"reference":"Patient/5603c1cc-b8f2-4295-b6ec-250d6d78e1c4"},"onsetDateTime":"2022-06-03T00:00:00+00:00"}},{"fullUrl":"Condition/b83ef401-1342-4ad0-b719-921322104ec1","resource":{"resourceType":"Condition","id":"b83ef401-1342-4ad0-b719-921322104ec1","meta":{"profile":["http://hl7.org/fhir/us/core/StructureDefinition/us-core-condition"]},"clinicalStatus":{"coding":[{"system":"http://terminology.hl7.org/CodeSystem/condition-clinical","code":"active","display":"Active"}]},"category":[{"coding":[{"system":"http://terminology.hl7.org/CodeSystem/condition-ver-status","code":"confirmed"}]}],"code":{"coding":[{"system":"http://snomed.info/sct","code":"418290006"}]},"subject":{"reference":"Patient/5603c1cc-b8f2-4295-b6ec-250d6d78e1c4"},"onsetDateTime":"2022-08-02T00:00:00+00:00"}},{"fullUrl":"Condition/8a79cf9c-b650-4358-b947-85174aa331e1","resource":{"resourceType":"Condition","id":"8a79cf9c-b650-4358-b947-85174aa331e1","meta":{"profile":["http://hl7.org/fhir/us/core/StructureDefinition/us-core-condition"]},"clinicalStatus":{"coding":[{"system":"http://terminology.hl7.org/CodeSystem/condition-clinical","code":"active","display":"Active"}]},"category":[{"coding":[{"system":"http://terminology.hl7.org/CodeSystem/condition-ver-status","code":"confirmed"}]}],"code":{"coding":[{"system":"http://snomed.info/sct","code":"91554004"}]},"subject":{"reference":"Patient/5603c1cc-b8f2-4295-b6ec-250d6d78e1c4"},"onsetDateTime":"2022-10-24T00:00:00+00:00"}},{"fullUrl":"Condition/6f9d923d-20d0-4cf6-8988-46fc6b6eabad","resource":{"resourceType":"Condition","id":"6f9d923d-20d0-4cf6-8988-46fc6b6eabad","meta":{"profile":["http://hl7.org/fhir/us/core/StructureDefinition/us-core-condition"]},"clinicalStatus":{"coding":[{"system":"http://terminology.hl7.org/CodeSystem/condition-clinical","code":"active","display":"Active"}]},"category":[{"coding":[{"system":"http://terminology.hl7.org/CodeSystem/condition-ver-status","code":"confirmed"}]}],"code":{"coding":[{"system":"http://snomed.info/sct","code":"709977002"}]},"subject":{"reference":"Patient/5603c1cc-b8f2-4295-b6ec-250d6d78e1c4"},"onsetDateTime":"2022-10-05T00:00:00+00:00"}},{"fullUrl":"Condition/fd71a577-56bb-49ee-ab5e-ebffde0afbe6","resource":{"resourceType":"Condition","id":"fd71a577-56bb-49ee-ab5e-ebffde0afbe6","meta":{"profile":["http://hl7.org/fhir/us/core/StructureDefinition/us-core-condition"]},"clinicalStatus":{"coding":[{"system":"http://terminology.hl7.org/CodeSystem/condition-clinical","code":"active","display":"Active"}]},"category":[{"coding":[{"system":"http://terminology.hl7.org/CodeSystem/condition-ver-status","code":"confirmed"}]}],"code":{"coding":[{"system":"http://snomed.info/sct","code":"418290006"}]},"subject":{"reference":"Patient/5603c1cc-b8f2-4295-b6ec-250d6d78e1c4"},"onsetDateTime":"2022-09-11T00:00:00+00:00"}},{"fullUrl":"Condition/80134a8a-e23e-48f2-976b-df9faeeb806f","resource":{"resourceType":"Condition","id":"80134a8a-e23e-48f2-976b-df9faeeb806f","meta":{"profile":["http://hl7.org/fhir/us/core/StructureDefinition/us-core-condition"]},"clinicalStatus":{"coding":[{"system":"http://terminology.hl7.org/CodeSystem/condition-clinical","code":"active","display":"Active"}]},"category":[{"coding":[{"system":"http://terminology.hl7.org/CodeSystem/condition-ver-status","code":"confirmed"}]}],"code":{"coding":[{"system":"http://snomed.info/sct","code":"736686006"}]},"subject":{"reference":"Patient/5603c1cc-b8f2-4295-b6ec-250d6d78e1c4"},"onsetDateTime":"2022-10-29T00:00:00+00:00"}},{"fullUrl":"Condition/c91c45c5-9ff3-4fb3-997b-807b847087bf","resource":{"resourceType":"Condition","id":"c91c45c5-9ff3-4fb3-997b-807b847087bf","meta":{"profile":["http://hl7.org/fhir/us/core/StructureDefinition/us-core-condition"]},"clinicalStatus":{"coding":[{"system":"http://terminology.hl7.org/CodeSystem/condition-clinical","code":"active","display":"Active"}]},"category":[{"coding":[{"system":"http://terminology.hl7.org/CodeSystem/condition-ver-status","code":"confirmed"}]}],"code":{"coding":[{"system":"http://snomed.info/sct","code":"736686006"}]},"subject":{"reference":"Patient/5603c1cc-b8f2-4295-b6ec-250d6d78e1c4"},"onsetDateTime":"2022-11-18T00:00:00+00:00"}},{"fullUrl":"Condition/13c02f2a-669d-4def-8b38-fc76713c1a10","resource":{"resourceType":"Condition","id":"13c02f2a-669d-4def-8b38-fc76713c1a10","meta":{"profile":["http://hl7.org/fhir/us/core/StructureDefinition/us-core-condition"]},"clinicalStatus":{"coding":[{"system":"http://terminology.hl7.org/CodeSystem/condition-clinical","code":"active","display":"Active"}]},"category":[{"coding":[{"system":"http://terminology.hl7.org/CodeSystem/condition-ver-status","code":"confirmed"}]}],"code":{"coding":[{"system":"http://snomed.info/sct","code":"418290006"}]},"subject":{"reference":"Patient/5603c1cc-b8f2-4295-b6ec-250d6d78e1c4"},"onsetDateTime":"2022-11-05T00:00:00+00:00"}},{"fullUrl":"Observation/40bd3eca-6fab-43a2-b07f-a5bdba9b0658","resource":{"resourceType":"Observation","id":"40bd3eca-6fab-43a2-b07f-a5bdba9b0658","meta":{"profile":["http://hl7.org/fhir/us/core/StructureDefinition/us-core-observation-lab"]},"status":"final","category":[{"coding":[{"system":"http://terminology.hl7.org/CodeSystem/observation-category","code":"laboratory","display":"Laboratory"}]}],"code":{"coding":[{"system":"http://www.ama-assn.org/go/cpt","code":"85048"}]},"subject":{"reference":"Patient/5603c1cc-b8f2-4295-b6ec-250d6d78e1c4"},"effectiveDateTime":"2022-07-21T00:00:00+00:00","valueQuantity":{"value":7.7}}},{"fullUrl":"Observation/e134eaab-fe82-4f7b-9050-e7080bf5483b","resource":{"resourceType":"Observation","id":"e134eaab-fe82-4f7b-9050-e7080bf5483b","meta":{"profile":["http://hl7.org/fhir/us/core/StructureDefinition/us-core-observation-lab"]},"status":"final","category":[{"coding":[{"system":"http://terminology.hl7.org/CodeSystem/observation-category","code":"laboratory","display":"Laboratory"}]}],"code":{"coding":[{"system":"http://www.ama-assn.org/go/cpt","code":"85048"}]},"subject":{"reference":"Patient/5603c1cc-b8f2-4295-b6ec-250d6d78e1c4"},"effectiveDateTime":"2022-08-19T00:00:00+00:00","valueQuantity":{"value":4.5}}},{"fullUrl":"Observation/9b1dff13-879f-4222-9a23-49d10d6c6593","resource":{"resourceType":"Observation","id":"9b1dff13-879f-4222-9a23-49d10d6c6593","meta":{"profile":["http://hl7.org/fhir/us/core/StructureDefinition/us-core-bmi"]},"status":"final","category":[{"coding":[{"system":"http://terminology.hl7.org/CodeSystem/observation-category","code":"vital-signs","display":"Vital Signs"}]}],"code":{"coding":[{"system":"http://loinc.org","code":"39156-5"}]},"subject":{"reference":"Patient/5603c1cc-b8f2-4295-b6ec-250d6d78e1c4"},"effectiveDateTime":"2022-06-13T00:00:00+00:00","valueQuantity":{"value":26.68,"unit":"kg/m2","system":"http://unitsofmeasure.org","code":"kg/m2"}}},{"fullUrl":"Observation/1aded07a-7712-42a1-b4b4-ad7e8b8b7fec","resource":{"resourceType":"Observation","id":"1aded07a-7712-42a1-b4b4-ad7e8b8b7fec","meta":{"profile":["http://hl7.org/fhir/us/core/StructureDefinition/us-core-bmi"]},"status":"final","category":[{"coding":[{"system":"http://terminology.hl7.org/CodeSystem/observation-category","code":"vital-signs","display":"Vital Signs"}]}],"code":{"coding":[{"system":"http://loinc.org","code":"39156-5"}]},"subject":{"reference":"Patient/5603c1cc-b8f2-4295-b6ec-250d6d78e1c4"},"effectiveDateTime":"2022-12-14T00:00:00+00:00","valueQuantity":{"value":11.18,"unit":"kg/m2","system":"http://unitsofmeasure.org","code":"kg/m2"}}},{"fullUrl":"Observation/3a0318f0-e36c-425c-98d9-5ec541873939","resource":{"resourceType":"Observation","id":"3a0318f0-e36c-425c-98d9-5ec541873939","meta":{"profile":["http://hl7.org/fhir/us/core/StructureDefinition/us-core-head-circumference"]},"status":"final","category":[{"coding":[{"system":"http://terminology.hl7.org/CodeSystem/observation-category","code":"vital-signs","display":"Vital Signs"}]}],"code":{"coding":[{"system":"http://loinc.org","code":"9843-4"}]},"subject":{"reference":"Patient/5603c1cc-b8f2-4295-b6ec-250d6d78e1c4"},"effectiveDateTime":"2022-03-09T00:00:00+00:00","valueQuantity":{"value":6.3,"unit":"Inch","system":"http://unitsofmeasure.org","code":"[in_i]"}}},{"fullUrl":"Observation/23108cf2-37d7-45ee-9d3c-6bc47e06d79f","resource":{"resourceType":"Observation","id":"23108cf2-37d7-45ee-9d3c-6bc47e06d79f","meta":{"profile":["http://hl7.org/fhir/us/core/StructureDefinition/us-core-body-height"]},"status":"final","category":[{"coding":[{"system":"http://terminology.hl7.org/CodeSystem/observation-category","code":"vital-signs","display":"Vital Signs"}]}],"code":{"coding":[{"system":"http://loinc.org","code":"8302-2"}]},"subject":{"reference":"Patient/5603c1cc-b8f2-4295-b6ec-250d6d78e1c4"},"effectiveDateTime":"2022-03-12T00:00:00+00:00","valueQuantity":{"value":83.1,"unit":"Inch","system":"http://unitsofmeasure.org","code":"[in_i]"}}},{"fullUrl":"Observation/ecb9a1fd-50ce-4243-9b60-074fc9715ab2","resource":{"resourceType":"Observation","id":"ecb9a1fd-50ce-4243-9b60-074fc9715ab2","meta":{"profile":["http://hl7.org/fhir/us/core/StructureDefinition/us-core-body-height"]},"status":"final","category":[{"coding":[{"system":"http://terminology.hl7.org/CodeSystem/observation-category","code":"vital-signs","display":"Vital Signs"}]}],"code":{"coding":[{"system":"http://loinc.org","code":"8302-2"}]},"subject":{"reference":"Patient/5603c1cc-b8f2-4295-b6ec-250d6d78e1c4"},"effectiveDateTime":"2022-04-23T00:00:00+00:00","valueQuantity":{"value":63.0,"unit":"Inch","system":"http://unitsofmeasure.org","code":"[in_i]"}}},{"fullUrl":"Observation/bfba9007-c28b-4369-8dec-fcfcffbfc0d3","resource":{"resourceType":"Observation","id":"bfba9007-c28b-4369-8dec-fcfcffbfc0d3","meta":{"profile":["http://hl7.org/fhir/us/core/StructureDefinition/us-core-body-weight"]},"status":"final","category":[{"coding":[{"system":"http://terminology.hl7.org/CodeSystem/observation-category","code":"vital-signs","display":"Vital Signs"}]}],"code":{"coding":[{"system":"http://loinc.org","code":"29463-7"}]},"subject":{"reference":"Patient/5603c1cc-b8f2-4295-b6ec-250d6d78e1c4"},"effectiveDateTime":"2022-03-22T00:00:00+00:00","valueQuantity":{"value":69.63,"unit":"kilogram","system":"http://unitsofmeasure.org","code":"kg"}}},{"fullUrl":"Observation/908fa447-81bd-4627-b8e7-89799dc080a0","resource":{"resourceType":"Observation","id":"908fa447-81bd-4627-b8e7-89799dc080a0","meta":{"profile":["http://hl7.org/fhir/us/core/StructureDefinition/us-core-body-weight"]},"status":"final","category":[{"coding":[{"system":"http://terminology.hl7.org/CodeSystem/observation-category","code":"vital-signs","display":"Vital Signs"}]}],"code":{"coding":[{"system":"http://loinc.org","code":"29463-7"}]},"subject":{"reference":"Patient/5603c1cc-b8f2-4295-b6ec-250d6d78e1c4"},"effectiveDateTime":"2022-12-16T00:00:00+00:00","valueQuantity":{"value":144.26,"unit":"kilogram","system":"http://unitsofmeasure.org","code":"kg"}}},{"fullUrl":"Observation/85e2e16f-4605-4e1e-a3d4-f29868c92104","resource":{"resourceType":"Observation","id":"85e2e16f-4605-4e1e-a3d4-f29868c92104","meta":{"profile":["http://hl7.org/fhir/us/core/StructureDefinition/us-core-body-temperature"]},"status":"final","category":[{"coding":[{"system":"http://terminology.hl7.org/CodeSystem/observation-category","code":"vital-signs","display":"Vital Signs"}]}],"code":{"coding":[{"system":"http://loinc.org","code":"8310-5"}]},"subject":{"reference":"Patient/5603c1cc-b8f2-4295-b6ec-250d6d78e1c4"},"effectiveDateTime":"2022-10-23T00:00:00+00:00","valueQuantity":{"value":147.27,"unit":"kilogram","system":"http://unitsofmeasure.org","code":"kg"}}},{"fullUrl":"Observation/3a0ad05a-6c4e-4d1f-8833-aa359cb384dd","resource":{"resourceType":"Observation","id":"3a0ad05a-6c4e-4d1f-8833-aa359cb384dd","meta":{"profile":["http://hl7.org/fhir/us/core/StructureDefinition/us-core-body-temperature"]},"status":"final","category":[{"coding":[{"system":"http://terminology.hl7.org/CodeSystem/observation-category","code":"vital-signs","display":"Vital Signs"}]}],"code":{"coding":[{"system":"http://loinc.org","code":"8310-5"}]},"subject":{"reference":"Patient/5603c1cc-b8f2-4295-b6ec-250d6d78e1c4"},"effectiveDateTime":"2022-06-09T00:00:00+00:00","valueQuantity":{"value":90.47,"unit":"kilogram","system":"http://unitsofmeasure.org","code":"kg"}}},{"fullUrl":"Observation/74e9c00d-c90b-4f58-9a6b-fb96f1e9746f","resource":{"resourceType":"Observation","id":"74e9c00d-c90b-4f58-9a6b-fb96f1e9746f","meta":{"profile":["http://hl7.org/fhir/us/core/StructureDefinition/us-core-heart-rate"]},"status":"final","category":[{"coding":[{"system":"http://terminology.hl7.org/CodeSystem/observation-category","code":"vital-signs","display":"Vital Signs"}]}],"code":{"coding":[{"system":"http://loinc.org","code":"8867-4"}]},"subject":{"reference":"Patient/5603c1cc-b8f2-4295-b6ec-250d6d78e1c4"},"effectiveDateTime":"2022-01-09T00:00:00+00:00","valueQuantity":{"value":97.0,"unit":"Degrees Fahrenheit","system":"http://unitsofmeasure.org","code":"[degF]"}}},{"fullUrl":"Observation/8b9d0922-fe23-40d7-8f5b-abc8a74c1622","resource":{"resourceType":"Observation","id":"8b9d0922-fe23-40d7-8f5b-abc8a74c1622","meta":{"profile":["http://hl7.org/fhir/us/core/StructureDefinition/us-core-heart-rate"]},"status":"final","category":[{"coding":[{"system":"http://terminology.hl7.org/CodeSystem/observation-category","code":"vital-signs","display":"Vital Signs"}]}],"code":{"coding":[{"system":"http://loinc.org","code":"8867-4"}]},"subject":{"reference":"Patient/5603c1cc-b8f2-4295-b6ec-250d6d78e1c4"},"effectiveDateTime":"2022-01-20T00:00:00+00:00","valueQuantity":{"value":99.9,"unit":"Degrees Fahrenheit","system":"http://unitsofmeasure.org","code":"[degF]"}}}]}