{"resourceType":"Bundle","id":"aca43e79-fb72-4957-a3ab-b6065939c1a9","type":"transaction","entry":[{"fullUrl":"Patient/c0d1f620-56eb-4445-a7e2-1311d68ff920","resource":{"resourceType":"Patient","id":"c0d1f620-56eb-4445-a7e2-1311d68ff920","identifier":[{"type":{"coding":[{"system":"http://terminology.hl7.org/CodeSystem/v2-0203","code":"MR"}]},"system":"urn:fhirgen:mrn","value":"055-29-6326"}],"name":[{"family":"Fitzgerald","given":["Shawn"]}],"gender":"male","birthDate":"2002-03-18","address":[{"line":["321 Rachel Brooks"],"city":"Patrickhaven","state":"Pennsylvania"}]},"request":{"method":"POST","url":"Patient"}},{"fullUrl":"Observation/52731351-3862-4506-8f13-5b2ecb8ac227","resource":{"resourceType":"Observation","id":"52731351-3862-4506-8f13-5b2ecb8ac227","status":"final","code":{"coding":[{"system":"http://loinc.org","code":"50695-6"}]},"subject":{"reference":"Patient/c0d1f620-56eb-4445-a7e2-1311d68ff920"},"effectiveDateTime":"2022-01-20T00:00:00+00:00","valueRatio":{"numerator":{"value":1.0},"denominator":{"value":32.0}}},"request":{"method":"POST","url":"Observation"}},{"fullUrl":"Observation/88e12559-3b7c-49ae-9e67-4df634287ec3","resource":{"resourceType":"Observation","id":"88e12559-3b7c-49ae-9e67-4df634287ec3","status":"final","code":{"coding":[{"system":"http://loinc.org","code":"87925-4"}]},"subject":{"reference":"Patient/c0d1f620-56eb-4445-a7e2-1311d68ff920"},"effectiveDateTime":"2022-08-20T00:00:00+00:00","valueRatio":{"numerator":{"value":1.0},"denominator":{"value":32.0}}},"request":{"method":"POST","url":"Observation"}},{"fullUrl":"Condition/6cf8c0c3-d1b7-4726-b429-56e69e243b5f","resource":{"resourceType":"Condition","id":"6cf8c0c3-d1b7-4726-b429-56e69e243b5f","code":{"coding":[{"system":"http://snomed.info/sct","code":"405737000"}]},"subject":{"reference":"Patient/c0d1f620-56eb-4445-a7e2-1311d68ff920"},"onsetDateTime":"2022-11-01T00:00:00+00:00"},"request":{"method":"POST","url":"Condition"}},{"fullUrl":"Condition/4b4841c7-4197-4343-904c-180d5761d7f9","resource":{"resourceType":"Condition","id":"4b4841c7-4197-4343-904c-180d5761d7f9","code":{"coding":[{"system":"http://snomed.info/sct","code":"271807003"}]},"subject":{"reference":"Patient/c0d1f620-56eb-4445-a7e2-1311d68ff920"},"onsetDateTime":"2022-10-07T00:00:00+00:00"},"request":{"method":"POST","url":"Condition"}},{"fullUrl":"Condition/65d18599-c181-4e94-b859-974e7f4e6d3b","resource":{"resourceType":"Condition","id":"65d18599-c181-4e94-b859-974e7f4e6d3b","code":{"coding":[{"system":"http://snomed.info/sct","code":"248980004"}]},"subject":{"reference":"Patient/c0d1f620-56eb-4445-a7e2-1311d68ff920"},"onsetDateTime":"2022-01-28T00:00:00+00:00"},"request":{"method":"POST","url":"Condition"}},{"fullUrl":"Condition/04ef0e1b-41e3-4445-a176-4caa16fe8dd2","resource":{"resourceType":"Condition","id":"04ef0e1b-41e3-4445-a176-4caa16fe8dd2","code":{"coding":[{"system":"http://snomed.info/sct","code":"709977002"}]},"subject":{"reference":"Patient/c0d1f620-56eb-4445-a7e2-1311d68ff920"},"onsetDateTime":"2022-08-16T00:00:00+00:00"},"request":{"method":"POST","url":"Condition"}},{"fullUrl":"Condition/2c16ed9e-c459-463c-855e-86b3701bdb2d","resource":{"resourceType":"Condition","id":"2c16ed9e-c459-463c-855e-86b3701bdb2d","code":{"coding":[{"system":"http://snomed.info/sct","code":"405737000"}]},"subject":{"reference":"Patient/c0d1f620-56eb-4445-a7e2-1311d68ff920"},"onsetDateTime":"2022-01-16T00:00:00+00:00"},"request":{"method":"POST","url":"Condition"}},{"fullUrl":"Condition/65ef7337-b606-4203-88a1-e034599ce669","resource":{"resourceType":"Condition","id":"65ef7337-b606-4203-88a1-e034599ce669","code":{"coding":[{"system":"http://snomed.info/sct","code":"736686006"}]},"subject":{"reference":"Patient/c0d1f620-56eb-4445-a7e2-1311d68ff920"},"onsetDateTime":"2022-09-20T00:00:00+00:00"},"request":{"method":"POST","url":"Condition"}},{"fullUrl":"Observation/4055aa5f-204a-4a73-88b7-9c44cb12dc5a","resource":{"resourceType":"Observation","id":"4055aa5f-204a-4a73-88b7-9c44cb12dc5a","status":"final","code":{"coding":[{"system":"http://www.ama-assn.org/go/cpt","code":"85048"}]},"subject":{"reference":"Patient/c0d1f620-56eb-4445-a7e2-1311d68ff920"},"effectiveDateTime":"2022-04-19T00:00:00+00:00","valueQuantity":{"value":5.9}},"request":{"method":"POST","url":"Observation"}},{"fullUrl":"Observation/c9919827-19b9-4c14-8c44-be7dd690c509","resource":{"resourceType":"Observation","id":"c9919827-19b9-4c14-8c44-be7dd690c509","status":"final","code":{"coding":[{"system":"http://loinc.org","code":"804-5"}]},"subject":{"reference":"Patient/c0d1f620-56eb-4445-a7e2-1311d68ff920"},"effectiveDateTime":"2022-12-15T00:00:00+00:00","valueQuantity":{"value":8.8}},"request":{"method":"POST","url":"Observation"}},{"fullUrl":"Observation/38e5c275-bc4e-4177-9d9e-6206a895689e","resource":{"resourceType":"Observation","id":"38e5c275-bc4e-4177-9d9e-6206a895689e","status":"final","code":{"coding":[{"system":"http://loinc.org","code":"6690-2"}]},"subject":{"reference":"Patient/c0d1f620-56eb-4445-a7e2-1311d68ff920"},"effectiveDateTime":"2022-12-16T00:00:00+00:00","valueQuantity":{"value":8.0}},"request":{"method":"POST","url":"Observation"}},{"fullUrl":"Procedure/9440e6d0-8825-422f-b9cc-f2a00634a5b4","resource":{"resourceType":"Procedure","id":"9440e6d0-8825-422f-b9cc-f2a00634a5b4","status":"completed","code":{"coding":[{"system":"http://snomed.info/sct","code":"647000"}]},"subject":{"reference":"Patient/c0d1f620-56eb-4445-a7e2-1311d68ff920"},"performedDateTime":"2022-10-07T00:00:00+00:00"},"request":{"method":"POST","url":"Procedure"}},{"fullUrl":"Procedure/a98be8a0-4326-419c-92e5-5c1d1623a615","resource":{"resourceType":"Procedure","id":"a98be8a0-4326-419c-92e5-5c1d1623a615","status":"completed","code":{"coding":[{"system":"http://snomed.info/sct","code":"104001"}]},"subject":{"reference":"Patient/c0d1f620-56eb-4445-a7e2-1311d68ff920"},"performedDateTime":"2022-02-03T00:00:00+00:00"},"request":{"method":"POST","url":"Procedure"}},{"fullUrl":"Procedure/b62d0a63-2ac0-4f30-a601-12926105ff8e","resource":{"resourceType":"Procedure","id":"b62d0a63-2ac0-4f30-a601-12926105ff8e","status":"completed","code":{"coding":[{"system":"http://snomed.info/sct","code":"647000"}]},"subject":{"reference":"Patient/c0d1f620-56eb-4445-a7e2-1311d68ff920"},"performedDateTime":"2022-07-19T00:00:00+00:00"},"request":{"method":"POST","url":"Procedure"}},{"fullUrl":"MedicationStatement/c6966c4a-1542-44df-8c2e-348a2b967b71","resource":{"resourceType":"MedicationStatement","id":"c6966c4a-1542-44df-8c2e-348a2b967b71","status":"completed","medicationCodeableConcept":{"coding":[{"system":"http://www.nlm.nih.gov/research/umls/rxnorm","code":"2193"}]},"subject":{"reference":"Patient/c0d1f620-56eb-4445-a7e2-1311d68ff920"},"effectiveDateTime":"2022-02-22T00:00:00+00:00","dosage":[{"doseAndRate":[{"doseQuantity":{"value":1.0,"unit":"TAB","system":"http://terminology.hl7.org/CodeSystem/v3-orderableDrugForm","code":"TAB"}}]}]},"request":{"method":"POST","url":"MedicationStatement"}},{"fullUrl":"MedicationStatement/ee63a458-934e-469c-b9cc-665a11f5cb8a","resource":{"resourceType":"MedicationStatement","id":"ee63a458-934e-469c-b9cc-665a11f5cb8a","status":"completed","medicationCodeableConcept":{"coding":[{"system":"http://www.nlm.nih.gov/research/umls/rxnorm","code":"10395"}]},"subject":{"reference":"Patient/c0d1f620-56eb-4445-a7e2-1311d68ff920"},"effectiveDateTime":"2022-12-05T00:00:00+00:00","dosage":[{"doseAndRate":[{"doseQuantity":{"value":2.0,"unit":"TAB","system":"http://terminology.hl7.org/CodeSystem/v3-orderableDrugForm","code":"TAB"}}]}]},"request":{"method":"POST","url":"MedicationStatement"}},{"fullUrl":"MedicationStatement/4cc4f2cc-1baf-41b1-bdbb-04ed42e3b6d8","resource":{"resourceType":"MedicationStatement","id":"4cc4f2cc-1baf-41b1-bdbb-04ed42e3b6d8","status":"completed","medicationCodeableConcept":{"coding":[{"system":"http://www.nlm.nih.gov/research/umls/rxnorm","code":"7984"}]},"subject":{"reference":"Patient/c0d1f620-56eb-4445-a7e2-1311d68ff920"},"effectiveDateTime":"2022-08-01T00:00:00+00:00","dosage":[{"doseAndRate":[{"doseQuantity":{"value":1.0,"unit":"TAB","system":"http://terminology.hl7.org/CodeSystem/v3-orderableDrugForm","code":"TAB"}}]}]},"request":{"method":"POST","url":"MedicationStatement"}},{"fullUrl":"MedicationStatement/f91d30d1-9bfa-4527-bc9d-0aaf8e9a7541","resource":{"resourceType":"MedicationStatement","id":"f91d30d1-9bfa-4527-bc9d-0aaf8e9a7541","status":"completed","medicationCodeableConcept":{"coding":[{"system":"http://www.nlm.nih.gov/research/umls/rxnorm","code":"7980"}]},"subject":{"reference":"Patient/c0d1f620-56eb-4445-a7e2-1311d68ff920"},"effectiveDateTime":"2022-09-18T00:00:00+00:00","dosage":[{"doseAndRate":[{"doseQuantity":{"value":1.0,"unit":"TAB","system":"http://terminology.hl7.org/CodeSystem/v3-orderableDrugForm","code":"TAB"}}]}]},"request":{"method":"POST","url":"MedicationStatement"}},{"fullUrl":"Encounter/17cd2571-a941-4465-97c3-f641e29a8722","resource":{"resourceType":"Encounter","id":"17cd2571-a941-4465-97c3-f641e29a8722","status":"finished","class":{"system":"http://terminology.hl7.org/CodeSystem/v3-ActCode","code":"VR","display":"virtual"},"type":[{"coding":[{"system":"http://terminology.hl7.org/CodeSystem/encounter-type","code":"BD/BM-clin"}]}],"subject":{"reference":"Patient/c0d1f620-56eb-4445-a7e2-1311d68ff920"},"period":{"start":"2022-01-28T00:00:00+00:00","end":"2022-01-29T00:00:00+00:00"}},"request":{"method":"POST","url":"Encounter"}},{"fullUrl":"Encounter/771f8a7f-c862-4a65-bbe0-d03d0556bfca","resource":{"resourceType":"Encounter","id":"771f8a7f-c862-4a65-bbe0-d03d0556bfca","status":"finished","class":{"system":"http://terminology.hl7.org/CodeSystem/v3-ActCode","code":"HH","display":"home health"},"type":[{"coding":[{"system":"http://terminology.hl7.org/CodeSystem/encounter-type","code":"OKI"}]}],"subject":{"reference":"Patient/c0d1f620-56eb-4445-a7e2-1311d68ff920"},"period":{"start":"2022-06-25T00:00:00+00:00","end":"2022-06-28T00:00:00+00:00"}},"request":{"method":"POST","url":"Encounter"}},{"fullUrl":"Patient/f26e85c1-1959-4642-b6ec-fe6d164cc0a0","resource":{"resourceType":"Patient","id":"f26e85c1-1959-4642-b6ec-fe6d164cc0a0","identifier":[{"type":{"coding":[{"system":"http://terminology.hl7.org/CodeSystem/v2-0203","code":"MR"}]},"system":"urn:fhirgen:mrn","value":"612-45-1394"}],"name":[{"family":"Williams","given":["Corey"]}],"gender":"male","birthDate":"1987-03-07","address":[{"line":["749 Lane Keys"],"city":"Blakeview","state":"North Dakota"}]},"request":{"method":"POST","url":"Patient"}},{"fullUrl":"Observation/53a15b56-9086-4ffc-8c7f-e1f1937f15cd","resource":{"resourceType":"Observation","id":"53a15b56-9086-4ffc-8c7f-e1f1937f15cd","status":"final","code":{"coding":[{"system":"http://loinc.org","code":"47235-7"}]},"subject":{"reference":"Patient/f26e85c1-1959-4642-b6ec-fe6d164cc0a0"},"effectiveDateTime":"2022-05-30T00:00:00+00:00","valueRatio":{"numerator":{"value":1.0},"denominator":{"value":4.0}}},"request":{"method":"POST","url":"Observation"}},{"fullUrl":"Observation/0e4f4897-3d6b-4e7c-8715-60cc7940a451","resource":{"resourceType":"Observation","id":"0e4f4897-3d6b-4e7c-8715-60cc7940a451","status":"final","code":{"coding":[{"system":"http://loinc.org","code":"47235-7"}]},"subject":{"reference":"Patient/f26e85c1-1959-4642-b6ec-fe6d164cc0a0"},"effectiveDateTime":"2022-03-01T00:00:00+00:00","valueRatio":{"numerator":{"value":1.0},"denominator":{"value":64.0}}},"request":{"method":"POST","url":"Observation"}},{"fullUrl":"Condition/e31add8c-3133-4529-9923-d83b53a62eb9","resource":{"resourceType":"Condition","id":"e31add8c-3133-4529-9923-d83b53a62eb9","code":{"coding":[{"system":"http://snomed.info/sct","code":"71315007"}]},"subject":{"reference":"Patient/f26e85c1-1959-4642-b6ec-fe6d164cc0a0"},"onsetDateTime":"2022-08-01T00:00:00+00:00"},"request":{"method":"POST","url":"Condition"}},{"fullUrl":"Condition/0a33c140-bdc1-4326-8bfb-5e28f4846216","resource":{"resourceType":"Condition","id":"0a33c140-bdc1-4326-8bfb-5e28f4846216","code":{"coding":[{"system":"http://snomed.info/sct","code":"405737000"}]},"subject":{"reference":"Patient/f26e85c1-1959-4642-b6ec-fe6d164cc0a0"},"onsetDateTime":"2022-07-30T00:00:00+00:00"},"request":{"method":"POST","url":"Condition"}},{"fullUrl":"Condition/beba8688-dae9-44c7-b433-833430bea6b4","resource":{"resourceType":"Condition","id":"beba8688-dae9-44c7-b433-833430bea6b4","code":{"coding":[{"system":"http://snomed.info/sct","code":"271807003"}]},"subject":{"reference":"Patient/f26e85c1-1959-4642-b6ec-fe6d164cc0a0"},"onsetDateTime":"2022-11-18T00:00:00+00:00"},"request":{"method":"POST","url":"Condition"}},{"fullUrl":"Condition/986d1c39-dab8-484c-8433-8332d795e2e1","resource":{"resourceType":"Condition","id":"986d1c39-dab8-484c-8433-8332d795e2e1","code":{"coding":[{"system":"http://snomed.info/sct","code":"709977002"}]},"subject":{"reference":"Patient/f26e85c1-1959-4642-b6ec-fe6d164cc0a0"},"onsetDateTime":"2022-05-31T00:00:00+00:00"},"request":{"method":"POST","url":"Condition"}},{"fullUrl":"Condition/4a2351de-d8dc-4314-a70b-6ca551781d1d","resource":{"resourceType":"Condition","id":"4a2351de-d8dc-4314-a70b-6ca551781d1d","code":{"coding":[{"system":"http://snomed.info/sct","code":"198199009"}]},"subject":{"reference":"Patient/f26e85c1-1959-4642-b6ec-fe6d164cc0a0"},"onsetDateTime":"2022-01-26T00:00:00+00:00"},"request":{"method":"POST","url":"Condition"}},{"fullUrl":"Observation/4a2e197a-1745-4e5c-8be4-c720a033bcdd","resource":{"resourceType":"Observation","id":"4a2e197a-1745-4e5c-8be4-c720a033bcdd","status":"final","code":{"coding":[{"system":"http://loinc.org","code":"6690-2"}]},"subject":{"reference":"Patient/f26e85c1-1959-4642-b6ec-fe6d164cc0a0"},"effectiveDateTime":"2022-06-21T00:00:00+00:00","valueQuantity":{"value":9.0}},"request":{"method":"POST","url":"Observation"}},{"fullUrl":"Observation/5ea41ced-36e6-4180-b58f-116ed24d8f44","resource":{"resourceType":"Observation","id":"5ea41ced-36e6-4180-b58f-116ed24d8f44","status":"final","code":{"coding":[{"system":"http://www.ama-assn.org/go/cpt","code":"85048"}]},"subject":{"reference":"Patient/f26e85c1-1959-4642-b6ec-fe6d164cc0a0"},"effectiveDateTime":"2022-01-20T00:00:00+00:00","valueQuantity":{"value":5.8}},"request":{"method":"POST","url":"Observation"}},{"fullUrl":"Procedure/d74baed4-b445-4959-9b3f-143f664a5e3b","resource":{"resourceType":"Procedure","id":"d74baed4-b445-4959-9b3f-143f664a5e3b","status":"completed","code":{"coding":[{"system":"http://snomed.info/sct","code":"647000"}]},"subject":{"reference":"Patient/f26e85c1-1959-4642-b6ec-fe6d164cc0a0"},"performedDateTime":"2022-01-13T00:00:00+00:00"},"request":{"method":"POST","url":"Procedure"}},{"fullUrl":"Procedure/33e39e5e-bc0d-49e5-9225-9a5157a4b64f","resource":{"resourceType":"Procedure","id":"33e39e5e-bc0d-49e5-9225-9a5157a4b64f","status":"completed","code":{"coding":[{"system":"http://snomed.info/sct","code":"115006"}]},"subject":{"reference":"Patient/f26e85c1-1959-4642-b6ec-fe6d164cc0a0"},"performedDateTime":"2022-03-05T00:00:00+00:00"},"request":{"method":"POST","url":"Procedure"}},{"fullUrl":"Procedure/e988d7c6-aaed-417a-b79b-9478389741ba","resource":{"resourceType":"Procedure","id":"e988d7c6-aaed-417a-b79b-9478389741ba","status":"completed","code":{"coding":[{"system":"http://snomed.info/sct","code":"104001"}]},"subject":{"reference":"Patient/f26e85c1-1959-4642-b6ec-fe6d164cc0a0"},"performedDateTime":"2022-12-03T00:00:00+00:00"},"request":{"method":"POST","url":"Procedure"}},{"fullUrl":"MedicationStatement/b1f99fd0-cd5a-4f7f-8fa4-cdcbc78278f8","resource":{"resourceType":"MedicationStatement","id":"b1f99fd0-cd5a-4f7f-8fa4-cdcbc78278f8","status":"completed","medicationCodeableConcept":{"coding":[{"system":"http://www.nlm.nih.gov/research/umls/rxnorm","code":"2193"}]},"subject":{"reference":"Patient/f26e85c1-1959-4642-b6ec-fe6d164cc0a0"},"effectiveDateTime":"2022-02-18T00:00:00+00:00","dosage":[{"doseAndRate":[{"doseQuantity":{"value":2.0,"unit":"TAB","system":"http://terminology.hl7.org/CodeSystem/v3-orderableDrugForm","code":"TAB"}}]}]},"request":{"method":"POST","url":"MedicationStatement"}},{"fullUrl":"MedicationStatement/b0f913a6-12d9-4db2-9e0c-42a013a774f8","resource":{"resourceType":"MedicationStatement","id":"b0f913a6-12d9-4db2-9e0c-42a013a774f8","status":"completed","medicationCodeableConcept":{"coding":[{"system":"http://www.nlm.nih.gov/research/umls/rxnorm","code":"18631"}]},"subject":{"reference":"Patient/f26e85c1-1959-4642-b6ec-fe6d164cc0a0"},"effectiveDateTime":"2022-05-09T00:00:00+00:00","dosage":[{"doseAndRate":[{"doseQuantity":{"value":2.0,"unit":"TAB","system":"http://terminology.hl7.org/CodeSystem/v3-orderableDrugForm","code":"TAB"}}]}]},"request":{"method":"POST","url":"MedicationStatement"}},{"fullUrl":"MedicationStatement/673e6238-76e0-4837-98d6-11687d76e3e3","resource":{"resourceType":"MedicationStatement","id":"673e6238-76e0-4837-98d6-11687d76e3e3","status":"completed","medicationCodeableConcept":{"coding":[{"system":"http://www.nlm.nih.gov/research/umls/rxnorm","code":"8698"}]},"subject":{"reference":"Patient/f26e85c1-1959-4642-b6ec-fe6d164cc0a0"},"effectiveDateTime":"2022-03-11T00:00:00+00:00","dosage":[{"doseAndRate":[{"doseQuantity":{"value":2.0,"unit":"TAB","system":"http://terminology.hl7.org/CodeSystem/v3-orderableDrugForm","code":"TAB"}}]}]},"request":{"method":"POST","url":"MedicationStatement"}},{"fullUrl":"MedicationStatement/954a6ddb-5fe8-4ed5-8749-6d125cca0e0e","resource":{"resourceType":"MedicationStatement","id":"954a6ddb-5fe8-4ed5-8749-6d125cca0e0e","status":"completed","medicationCodeableConcept":{"coding":[{"system":"http://www.nlm.nih.gov/research/umls/rxnorm","code":"10395"}]},"subject":{"reference":"Patient/f26e85c1-1959-4642-b6ec-fe6d164cc0a0"},"effectiveDateTime":"2022-05-02T00:00:00+00:00","dosage":[{"doseAndRate":[{"doseQuantity":{"value":2.0,"unit":"TAB","system":"http://terminology.hl7.org/CodeSystem/v3-orderableDrugForm","code":"TAB"}}]}]},"request":{"method":"POST","url":"MedicationStatement"}},{"fullUrl":"MedicationStatement/9f5a4836-ba27-4232-a400-721326d6129e","resource":{"resourceType":"MedicationStatement","id":"9f5a4836-ba27-4232-a400-721326d6129e","status":"completed","medicationCodeableConcept":{"coding":[{"system":"http://www.nlm.nih.gov/research/umls/rxnorm","code":"18631"}]},"subject":{"reference":"Patient/f26e85c1-1959-4642-b6ec-fe6d164cc0a0"},"effectiveDateTime":"2022-03-09T00:00:00+00:00","dosage":[{"doseAndRate":[{"doseQuantity":{"value":1.0,"unit":"TAB","system":"http://terminology.hl7.org/CodeSystem/v3-orderableDrugForm","code":"TAB"}}]}]},"request":{"method":"POST","url":"MedicationStatement"}},{"fullUrl":"Encounter/594b37ca-ed2f-4530-986c-1ff0903adfbb","resource":{"resourceType":"Encounter","id":"594b37ca-ed2f-4530-986c-1ff0903adfbb","status":"finished","class":{"system":"http://terminology.hl7.org/CodeSystem/v3-ActCode","code":"NONAC","display":"inpatient non-acute"},"type":[{"coding":[{"system":"http://terminology.hl7.org/CodeSystem/encounter-type","code":"CCS60"}]}],"subject":{"reference":"Patient/f26e85c1-1959-4642-b6ec-fe6d164cc0a0"},"period":{"start":"2022-06-29T00:00:00+00:00","end":"2022-06-29T00:00:00+00:00"}},"request":{"method":"POST","url":"Encounter"}},{"fullUrl":"Encounter/74ee5c5e-c521-4433-997e-66c7a8075a40","resource":{"resourceType":"Encounter","id":"74ee5c5e-c521-4433-997e-66c7a8075a40","status":"finished","class":{"system":"http://terminology.hl7.org/CodeSystem/v3-ActCode","code":"OBSENC","display":"observation encounter"},"type":[{"coding":[{"system":"http://terminology.hl7.org/CodeSystem/encounter-type","code":"CCS60"}]}],"subject":{"reference":"Patient/f26e85c1-1959-4642-b6ec-fe6d164cc0a0"},"period":{"start":"2022-01-31T00:00:00+00:00","end":"2022-02-03T00:00:00+00:00"}},"request":{"method":"POST","url":"Encounter"}},{"fullUrl":"Encounter/2f59dee2-1d67-4985-a977-623cb3237aad","resource":{"resourceType":"Encounter","id":"2f59dee2-1d67-4985-a977-623cb3237aad","status":"finished","class":{"system":"http://terminology.hl7.org/CodeSystem/v3-ActCode","code":"EMER","display":"emergency"},"type":[{"coding":[{"system":"http://terminology.hl7.org/CodeSystem/encounter-type","code":"OKI"}]}],"subject":{"reference":"Patient/f26e85c1-1959-4642-b6ec-fe6d164cc0a0"},"period":{"start":"2022-09-09T00:00:00+00:00","end":"2022-09-17T00:00:00+00:00"}},"request":{"method":"POST","url":"Encounter"}},{"fullUrl":"Patient/00a0ffd6-5329-4b78-8997-7e33054b1939","resource":{"resourceType":"Patient","id":"00a0ffd6-5329-4b78-8997-7e33054b1939","identifier":[{"type":{"coding":[{"system":"http://terminology.hl7.org/CodeSystem/v2-0203","code":"MR"}]},"system":"urn:fhirgen:mrn","value":"834-03-2375"}],"name":[{"family":"Hayes","given":["Heather"]}],"gender":"female","birthDate":"1976-07-03","address":[{"line":["33580 Goodman Loop Suite 768"],"city":"East Melissaview","state":"New Jersey"}]},"request":{"method":"POST","url":"Patient"}},{"fullUrl":"Observation/d6e125f8-6be5-4e5f-be12-e8a1ab3a05d1","resource":{"resourceType":"Observation","id":"d6e125f8-6be5-4e5f-be12-e8a1ab3a05d1","status":"final","code":{"coding":[{"system":"http://loinc.org","code":"50695-6"}]},"subject":{"reference":"Patient/00a0ffd6-5329-4b78-8997-7e33054b1939"},"effectiveDateTime":"2022-09-27T00:00:00+00:00","valueRatio":{"numerator":{"value":1.0},"denominator":{"value":4.0}}},"request":{"method":"POST","url":"Observation"}},{"fullUrl":"Observation/65c03a6d-037e-4876-b41c-e9b83b671a6c","resource":{"resourceType":"Observation","id":"65c03a6d-037e-4876-b41c-e9b83b671a6c","status":"final","code":{"coding":[{"system":"http://loinc.org","code":"71793-4"}]},"subject":{"reference":"Patient/00a0ffd6-5329-4b78-8997-7e33054b1939"},"effectiveDateTime":"2022-04-01T00:00:00+00:00","valueRatio":{"numerator":{"value":1.0},"denominator":{"value":64.0}}},"request":{"method":"POST","url":"Observation"}},{"fullUrl":"Observation/bd39a44b-da33-42d7-a123-d2c3913961ff","resource":{"resourceType":"Observation","id":"bd39a44b-da33-42d7-a123-d2c3913961ff","status":"final","code":{"coding":[{"system":"http://loinc.org","code":"87925-4"}]},"subject":{"reference":"Patient/00a0ffd6-5329-4b78-8997-7e33054b1939"},"effectiveDateTime":"2022-07-16T00:00:00+00:00","valueRatio":{"numerator":{"value":1.0},"denominator":{"value":32.0}}},"request":{"method":"POST","url":"Observation"}},{"fullUrl":"Condition/a087fafd-d2d2-42fd-aa5d-d83cf12cc762","resource":{"resourceType":"Condition","id":"a087fafd-d2d2-42fd-aa5d-d83cf12cc762","code":{"coding":[{"system":"http://snomed.info/sct","code":"71315007"}]},"subject":{"reference":"Patient/00a0ffd6-5329-4b78-8997-7e33054b1939"},"onsetDateTime":"2022-01-16T00:00:00+00:00"},"request":{"method":"POST","url":"Condition"}},{"fullUrl":"Condition/65eab0e0-9a88-4b6a-b3af-7c9df76c4594","resource":{"resourceType":"Condition","id":"65eab0e0-9a88-4b6a-b3af-7c9df76c4594","code":{"coding":[{"system":"http://snomed.info/sct","code":"248980004"}]},"subject":{"reference":"Patient/00a0ffd6-5329-4b78-8997-7e33054b1939"},"onsetDateTime":"2022-07-06T00:00:00+00:00"},"request":{"method":"POST","url":"Condition"}},{"fullUrl":"Condition/e64ebb86-f658-48c8-9054-2ea432ccfedf","resource":{"resourceType":"Condition","id":"e64ebb86-f658-48c8-9054-2ea432ccfedf","code":{"coding":[{"system":"http://snomed.info/sct","code":"386661006"}]},"subject":{"reference":"Patient/00a0ffd6-5329-4b78-8997-7e33054b1939"},"onsetDateTime":"2022-09-13T00:00:00+00:00"},"request":{"method":"POST","url":"Condition"}},{"fullUrl":"Condition/712e27c5-56e2-4145-95a1-4bc627e30e8c","resource":{"resourceType":"Condition","id":"712e27c5-56e2-4145-95a1-4bc627e30e8c","code":{"coding":[{"system":"http://snomed.info/sct","code":"248980004"}]},"subject":{"reference":"Patient/00a0ffd6-5329-4b78-8997-7e33054b1939"},"onsetDateTime":"2022-08-09T00:00:00+00:00"},"request":{"method":"POST","url":"Condition"}},{"fullUrl":"Condition/88cb1c09-5188-4d0a-84ef-c05bf6ed77cb","resource":{"resourceType":"Condition","id":"88cb1c09-5188-4d0a-84ef-c05bf6ed77cb","code":{"coding":[{"system":"http://snomed.info/sct","code":"709977002"}]},"subject":{"reference":"Patient/00a0ffd6-5329-4b78-8997-7e33054b1939"},"onsetDateTime":"2022-09-05T00:00:00+00:00"},"request":{"method":"POST","url":"Condition"}},{"fullUrl":"Condition/a56af3fd-2aaf-47a9-917f-dc5fea3694e0","resource":{"resourceType":"Condition","id":"a56af3fd-2aaf-47a9-917f-dc5fea3694e0","code":{"coding":[{"system":"http://snomed.info/sct","code":"418290006"}]},"subject":{"reference":"Patient/00a0ffd6-5329-4b78-8997-7e33054b1939"},"onsetDateTime":"2022-04-19T00:00:00+00:00"},"request":{"method":"POST","url":"Condition"}},{"fullUrl":"Condition/c85c5b97-6825-4532-bed9-06134efcf51c","resource":{"resourceType":"Condition","id":"c85c5b97-6825-4532-bed9-06134efcf51c","code":{"coding":[{"system":"http://snomed.info/sct","code":"709977002"}]},"subject":{"reference":"Patient/00a0ffd6-5329-4b78-8997-7e33054b1939"},"onsetDateTime":"2022-04-10T00:00:00+00:00"},"request":{"method":"POST","url":"Condition"}},{"fullUrl":"Condition/7ff4cd01-ca38-4d75-bfba-b813efa14403","resource":{"resourceType":"Condition","id":"7ff4cd01-ca38-4d75-bfba-b813efa14403","code":{"coding":[{"system":"http://snomed.info/sct","code":"44882003"}]},"subject":{"reference":"Patient/00a0ffd6-5329-4b78-8997-7e33054b1939"},"onsetDateTime":"2022-04-11T00:00:00+00:00"},"request":{"method":"POST","url":"Condition"}},{"fullUrl":"Observation/4fb9c612-afc3-47ce-a88e-e1215e455447","resource":{"resourceType":"Observation","id":"4fb9c612-afc3-47ce-a88e-e1215e455447","status":"final","code":{"coding":[{"system":"http://loinc.org","code":"804-5"}]},"subject":{"reference":"Patient/00a0ffd6-5329-4b78-8997-7e33054b1939"},"effectiveDateTime":"2022-01-18T00:00:00+00:00","valueQuantity":{"value":9.8}},"request":{"method":"POST","url":"Observation"}},{"fullUrl":"Observation/1d1ab50e-ea24-43f5-a3cb-c835f003af6e","resource":{"resourceType":"Observation","id":"1d1ab50e-ea24-43f5-a3cb-c835f003af6e","status":"final","code":{"coding":[{"system":"http://loinc.org","code":"804-5"}]},"subject":{"reference":"Patient/00a0ffd6-5329-4b78-8997-7e33054b1939"},"effectiveDateTime":"2022-01-28T00:00:00+00:00","valueQuantity":{"value":6.8}},"request":{"method":"POST","url":"Observation"}},{"fullUrl":"Procedure/be0e30d2-e138-4ac1-a64e-e79c9ffeea2e","resource":{"resourceType":"Procedure","id":"be0e30d2-e138-4ac1-a64e-e79c9ffeea2e","status":"completed","code":{"coding":[{"system":"http://snomed.info/sct","code":"146005"}]},"subject":{"reference":"Patient/00a0ffd6-5329-4b78-8997-7e33054b1939"},"performedDateTime":"2022-04-29T00:00:00+00:00"},"request":{"method":"POST","url":"Procedure"}},{"fullUrl":"Procedure/c973b417-0d56-4c55-b879-5b2dc449abe9","resource":{"resourceType":"Procedure","id":"c973b417-0d56-4c55-b879-5b2dc449abe9","status":"completed","code":{"coding":[{"system":"http://snomed.info/sct","code":"115006"}]},"subject":{"reference":"Patient/00a0ffd6-5329-4b78-8997-7e33054b1939"},"performedDateTime":"2022-05-21T00:00:00+00:00"},"request":{"method":"POST","url":"Procedure"}},{"fullUrl":"Procedure/c54cffaa-b6af-4ad0-b5aa-aa17abfd7af9","resource":{"resourceType":"Procedure","id":"c54cffaa-b6af-4ad0-b5aa-aa17abfd7af9","status":"completed","code":{"coding":[{"system":"http://snomed.info/sct","code":"104001"}]},"subject":{"reference":"Patient/00a0ffd6-5329-4b78-8997-7e33054b1939"},"performedDateTime":"2022-10-31T00:00:00+00:00"},"request":{"method":"POST","url":"Procedure"}},{"fullUrl":"MedicationStatement/63d781fd-41f6-40b4-a18d-4de355cc2ab6","resource":{"resourceType":"MedicationStatement","id":"63d781fd-41f6-40b4-a18d-4de355cc2ab6","status":"completed","medicationCodeableConcept":{"coding":[{"system":"http://www.nlm.nih.gov/research/umls/rxnorm","code":"3640"}]},"subject":{"reference":"Patient/00a0ffd6-5329-4b78-8997-7e33054b1939"},"effectiveDateTime":"2022-07-27T00:00:00+00:00","dosage":[{"doseAndRate":[{"doseQuantity":{"value":2.0,"unit":"TAB","system":"http://terminology.hl7.org/CodeSystem/v3-orderableDrugForm","code":"TAB"}}]}]},"request":{"method":"POST","url":"MedicationStatement"}},{"fullUrl":"MedicationStatement/4da096b6-5aea-4808-aed1-e8c279f4371a","resource":{"resourceType":"MedicationStatement","id":"4da096b6-5aea-4808-aed1-e8c279f4371a","status":"completed","medicationCodeableConcept":{"coding":[{"system":"http://www.nlm.nih.gov/research/umls/rxnorm","code":"2193"}]},"subject":{"reference":"Patient/00a0ffd6-5329-4b78-8997-7e33054b1939"},"effectiveDateTime":"2022-04-02T00:00:00+00:00","dosage":[{"doseAndRate":[{"doseQuantity":{"value":1.0,"unit":"TAB","system":"http://terminology.hl7.org/CodeSystem/v3-orderableDrugForm","code":"TAB"}}]}]},"request":{"method":"POST","url":"MedicationStatement"}},{"fullUrl":"MedicationStatement/c1281aa2-fe1e-489e-bcf2-78f78e52056e","resource":{"resourceType":"MedicationStatement","id":"c1281aa2-fe1e-489e-bcf2-78f78e52056e","status":"completed","medicationCodeableConcept":{"coding":[{"system":"http://www.nlm.nih.gov/research/umls/rxnorm","code":"2193"}]},"subject":{"reference":"Patient/00a0ffd6-5329-4b78-8997-7e33054b1939"},"effectiveDateTime":"2022-05-20T00:00:00+00:00","dosage":[{"doseAndRate":[{"doseQuantity":{"value":1.0,"unit":"TAB","system":"http://terminology.hl7.org/CodeSystem/v3-orderableDrugForm","code":"TAB"}}]}]},"request":{"method":"POST","url":"MedicationStatement"}},{"fullUrl":"MedicationStatement/798f4a96-19e6-4f90-b5b6-abbad6059360","resource":{"resourceType":"MedicationStatement","id":"798f4a96-19e6-4f90-b5b6-abbad6059360","status":"completed","medicationCodeableConcept":{"coding":[{"system":"http://www.nlm.nih.gov/research/umls/rxnorm","code":"18631"}]},"subject":{"reference":"Patient/00a0ffd6-5329-4b78-8997-7e33054b1939"},"effectiveDateTime":"2022-12-24T00:00:00+00:00","dosage":[{"doseAndRate":[{"doseQuantity":{"value":2.0,"unit":"TAB","system":"http://terminology.hl7.org/CodeSystem/v3-orderableDrugForm","code":"TAB"}}]}]},"request":{"method":"POST","url":"MedicationStatement"}},{"fullUrl":"MedicationStatement/50d05f05-1a79-47a1-904a-de18ffa31b2a","resource":{"resourceType":"MedicationStatement","id":"50d05f05-1a79-47a1-904a-de18ffa31b2a","status":"completed","medicationCodeableConcept":{"coding":[{"system":"http://www.nlm.nih.gov/research/umls/rxnorm","code":"7980"}]},"subject":{"reference":"Patient/00a0ffd6-5329-4b78-8997-7e33054b1939"},"effectiveDateTime":"2022-12-06T00:00:00+00:00","dosage":[{"doseAndRate":[{"doseQuantity":{"value":2.0,"unit":"TAB","system":"http://terminology.hl7.org/CodeSystem/v3-orderableDrugForm","code":"TAB"}}]}]},"request":{"method":"POST","url":"MedicationStatement"}},{"fullUrl":"MedicationStatement/2c568c3b-7fb9-4e24-a2b0-955a75781463","resource":{"resourceType":"MedicationStatement","id":"2c568c3b-7fb9-4e24-a2b0-955a75781463","status":"completed","medicationCodeableConcept":{"coding":[{"system":"http://www.nlm.nih.gov/research/umls/rxnorm","code":"7980"}]},"subject":{"reference":"Patient/00a0ffd6-5329-4b78-8997-7e33054b1939"},"effectiveDateTime":"2022-06-26T00:00:00+00:00","dosage":[{"doseAndRate":[{"doseQuantity":{"value":1.0,"unit":"TAB","system":"http://terminology.hl7.org/CodeSystem/v3-orderableDrugForm","code":"TAB"}}]}]},"request":{"method":"POST","url":"MedicationStatement"}},{"fullUrl":"MedicationStatement/73ce9a53-4754-4799-8425-ac5028b844f9","resource":{"resourceType":"MedicationStatement","id":"73ce9a53-4754-4799-8425-ac5028b844f9","status":"completed","medicationCodeableConcept":{"coding":[{"system":"http://www.nlm.nih.gov/research/umls/rxnorm","code":"3640"}]},"subject":{"reference":"Patient/00a0ffd6-5329-4b78-8997-7e33054b1939"},"effectiveDateTime":"2022-10-21T00:00:00+00:00","dosage":[{"doseAndRate":[{"doseQuantity":{"value":2.0,"unit":"TAB","system":"http://terminology.hl7.org/CodeSystem/v3-orderableDrugForm","code":"TAB"}}]}]},"request":{"method":"POST","url":"MedicationStatement"}},{"fullUrl":"MedicationStatement/e836012a-17e3-4720-9902-3481416b1b52","resource":{"resourceType":"MedicationStatement","id":"e836012a-17e3-4720-9902-3481416b1b52","status":"completed","medicationCodeableConcept":{"coding":[{"system":"http://www.nlm.nih.gov/research/umls/rxnorm","code":"18631"}]},"subject":{"reference":"Patient/00a0ffd6-5329-4b78-8997-7e33054b1939"},"effectiveDateTime":"2022-06-23T00:00:00+00:00","dosage":[{"doseAndRate":[{"doseQuantity":{"value":1.0,"unit":"TAB","system":"http://terminology.hl7.org/CodeSystem/v3-orderableDrugForm","code":"TAB"}}]}]},"request":{"method":"POST","url":"MedicationStatement"}},{"fullUrl":"Encounter/5b2e86e8-cbf7-46d4-aa10-58a499e7ba45","resource":{"resourceType":"Encounter","id":"5b2e86e8-cbf7-46d4-aa10-58a499e7ba45","status":"finished","class":{"system":"http://terminology.hl7.org/CodeSystem/v3-ActCode","code":"ACUTE","display":"inpatient acute"},"type":[{"coding":[{"system":"http://terminology.hl7.org/CodeSystem/encounter-type","code":"OKI"}]}],"subject":{"reference":"Patient/00a0ffd6-5329-4b78-8997-7e33054b1939"},"period":{"start":"2022-11-18T00:00:00+00:00","end":"2022-11-24T00:00:00+00:00"}},"request":{"method":"POST","url":"Encounter"}},{"fullUrl":"Encounter/f9555327-5cbc-4763-b58d-cbadb3ebe7a8","resource":{"resourceType":"Encounter","id":"f9555327-5cbc-4763-b58d-cbadb3ebe7a8","status":"finished","class":{"system":"http://terminology.hl7.org/CodeSystem/v3-ActCode","code":"VR","display":"virtual"},"type":[{"coding":[{"system":"http://terminology.hl7.org/CodeSystem/encounter-type","code":"CCS60"}]}],"subject":{"reference":"Patient/00a0ffd6-5329-4b78-8997-7e33054b1939"},"period":{"start":"2022-09-14T00:00:00+00:00","end":"2022-09-17T00:00:00+00:00"}},"request":{"method":"POST","url":"Encounter"}},{"fullUrl":"Encounter/5630d57b-6136-480e-857b-b01afffb0195","resource":{"resourceType":"Encounter","id":"5630d57b-6136-480e-857b-b01afffb0195","status":"finished","class":{"system":"http://terminology.hl7.org/CodeSystem/v3-ActCode","code":"EMER","display":"emergency"},"type":[{"coding":[{"system":"http://terminology.hl7.org/CodeSystem/encounter-type","code":"BD/BM-clin"}]}],"subject":{"reference":"Patient/00a0ffd6-5329-4b78-8997-7e33054b1939"},"period":{"start":"2022-06-25T00:00:00+00:00","end":"2022-06-26T00:00:00+00:00"}},"request":{"method":"POST","url":"Encounter"}},{"fullUrl":"Patient/19bb9d91-2e75-4a07-bf67-5e9952b73693","resource":{"resourceType":"Patient","id":"19bb9d91-2e75-4a07-bf67-5e9952b73693","identifier":[{"type":{"coding":[{"system":"http://terminology.hl7.org/CodeSystem/v2-0203","code":"MR"}]},"system":"urn:fhirgen:mrn","value":"645-94-7919"}],"name":[{"family":"Barker","given":["Jennifer"]}],"gender":"female","birthDate":"1999-03-04","address":[{"line":["07363 Manning Ferry Suite 977"],"city":"Sarahstad","state":"Rhode Island"}]},"request":{"method":"POST","url":"Patient"}},{"fullUrl":"Observation/df7ee66a-8ebc-48d8-9ba3-cfdedd03b1fa","resource":{"resourceType":"Observation","id":"df7ee66a-8ebc-48d8-9ba3-cfdedd03b1fa","status":"final","code":{"coding":[{"system":"http://loinc.org","code":"47235-7"}]},"subject":{"reference":"Patient/19bb9d91-2e75-4a07-bf67-5e9952b73693"},"effectiveDateTime":"2022-07-09T00:00:00+00:00","valueRatio":{"numerator":{"value":1.0},"denominator":{"value":64.0}}},"request":{"method":"POST","url":"Observation"}},{"fullUrl":"Observation/6c8a8742-6b78-43ca-afea-062dbde2d0b0","resource":{"resourceType":"Observation","id":"6c8a8742-6b78-43ca-afea-062dbde2d0b0","status":"final","code":{"coding":[{"system":"http://loinc.org","code":"51475-2"}]},"subject":{"reference":"Patient/19bb9d91-2e75-4a07-bf67-5e9952b73693"},"effectiveDateTime":"2022-12-11T00:00:00+00:00","valueRatio":{"numerator":{"value":1.0},"denominator":{"value":4.0}}},"request":{"method":"POST","url":"Observation"}},{"fullUrl":"Condition/bd655368-0a0b-4ac5-bfe6-c0f53563644e","resource":{"resourceType":"Condition","id":"bd655368-0a0b-4ac5-bfe6-c0f53563644e","code":{"coding":[{"system":"http://snomed.info/sct","code":"71315007"}]},"subject":{"reference":"Patient/19bb9d91-2e75-4a07-bf67-5e9952b73693"},"onsetDateTime":"2022-03-05T00:00:00+00:00"},"request":{"method":"POST","url":"Condition"}},{"fullUrl":"Condition/db8d167b-72de-4ac1-8361-d48b269875ff","resource":{"resourceType":"Condition","id":"db8d167b-72de-4ac1-8361-d48b269875ff","code":{"coding":[{"system":"http://snomed.info/sct","code":"198199009"}]},"subject":{"reference":"Patient/19bb9d91-2e75-4a07-bf67-5e9952b73693"},"onsetDateTime":"2022-01-18T00:00:00+00:00"},"request":{"method":"POST","url":"Condition"}},{"fullUrl":"Condition/0810441f-eed7-48ea-bdac-331a99f9805f","resource":{"resourceType":"Condition","id":"0810441f-eed7-48ea-bdac-331a99f9805f","code":{"coding":[{"system":"http://snomed.info/sct","code":"736686006"}]},"subject":{"reference":"Patient/19bb9d91-2e75-4a07-bf67-5e9952b73693"},"onsetDateTime":"2022-12-07T00:00:00+00:00"},"request":{"method":"POST","url":"Condition"}},{"fullUrl":"Observation/46c4f488-e09d-44cb-9665-4f0d91aa71bc","resource":{"resourceType":"Observation","id":"46c4f488-e09d-44cb-9665-4f0d91aa71bc","status":"final","code":{"coding":[{"system":"http://loinc.org","code":"804-5"}]},"subject":{"reference":"Patient/19bb9d91-2e75-4a07-bf67-5e9952b73693"},"effectiveDateTime":"2022-04-05T00:00:00+00:00","valueQuantity":{"value":8.2}},"request":{"method":"POST","url":"Observation"}},{"fullUrl":"Observation/06a4ad84-2086-424a-8fb9-a6216e5020db","resource":{"resourceType":"Observation","id":"06a4ad84-2086-424a-8fb9-a6216e5020db","status":"final","code":{"coding":[{"system":"http://loinc.org","code":"804-5"}]},"subject":{"reference":"Patient/19bb9d91-2e75-4a07-bf67-5e9952b73693"},"effectiveDateTime":"2022-03-18T00:00:00+00:00","valueQuantity":{"value":4.5}},"request":{"method":"POST","url":"Observation"}},{"fullUrl":"Procedure/90a078ef-cd8c-439e-a5bc-d602cbaaaf65","resource":{"resourceType":"Procedure","id":"90a078ef-cd8c-439e-a5bc-d602cbaaaf65","status":"completed","code":{"coding":[{"system":"http://snomed.info/sct","code":"647000"}]},"subject":{"reference":"Patient/19bb9d91-2e75-4a07-bf67-5e9952b73693"},"performedDateTime":"2022-09-03T00:00:00+00:00"},"request":{"method":"POST","url":"Procedure"}},{"fullUrl":"Procedure/2196b824-f7aa-413f-a4bd-04446b74549d","resource":{"resourceType":"Procedure","id":"2196b824-f7aa-413f-a4bd-04446b74549d","status":"completed","code":{"coding":[{"system":"http://snomed.info/sct","code":"104001"}]},"subject":{"reference":"Patient/19bb9d91-2e75-4a07-bf67-5e9952b73693"},"performedDateTime":"2022-02-01T00:00:00+00:00"},"request":{"method":"POST","url":"Procedure"}},{"fullUrl":"Procedure/02066065-5cdb-4e23-8cc8-080885c87cf7","resource":{"resourceType":"Procedure","id":"02066065-5cdb-4e23-8cc8-080885c87cf7","status":"completed","code":{"coding":[{"system":"http://snomed.info/sct","code":"647000"}]},"subject":{"reference":"Patient/19bb9d91-2e75-4a07-bf67-5e9952b73693"},"performedDateTime":"2022-12-30T00:00:00+00:00"},"request":{"method":"POST","url":"Procedure"}},{"fullUrl":"MedicationStatement/3d29ca66-72fb-4ba4-b9ee-82440ed35460","resource":{"resourceType":"MedicationStatement","id":"3d29ca66-72fb-4ba4-b9ee-82440ed35460","status":"completed","medicationCodeableConcept":{"coding":[{"system":"http://www.nlm.nih.gov/research/umls/rxnorm","code":"3640"}]},"subject":{"reference":"Patient/19bb9d91-2e75-4a07-bf67-5e9952b73693"},"effectiveDateTime":"2022-11-04T00:00:00+00:00","dosage":[{"doseAndRate":[{"doseQuantity":{"value":2.0,"unit":"TAB","system":"http://terminology.hl7.org/CodeSystem/v3-orderableDrugForm","code":"TAB"}}]}]},"request":{"method":"POST","url":"MedicationStatement"}},{"fullUrl":"MedicationStatement/6301ff58-4933-4751-b8aa-a5929a3dc211","resource":{"resourceType":"MedicationStatement","id":"6301ff58-4933-4751-b8aa-a5929a3dc211","status":"completed","medicationCodeableConcept":{"coding":[{"system":"http://www.nlm.nih.gov/research/umls/rxnorm","code":"10395"}]},"subject":{"reference":"Patient/19bb9d91-2e75-4a07-bf67-5e9952b73693"},"effectiveDateTime":"2022-04-02T00:00:00+00:00","dosage":[{"doseAndRate":[{"doseQuantity":{"value":2.0,"unit":"TAB","system":"http://terminology.hl7.org/CodeSystem/v3-orderableDrugForm","code":"TAB"}}]}]},"request":{"method":"POST","url":"MedicationStatement"}},{"fullUrl":"Encounter/d95c651c-8980-43ab-a485-9a61ae5c2405","resource":{"resourceType":"Encounter","id":"d95c651c-8980-43ab-a485-9a61ae5c2405","status":"finished","class":{"system":"http://terminology.hl7.org/CodeSystem/v3-ActCode","code":"PRENC","display":"pre-admission"},"type":[{"coding":[{"system":"http://terminology.hl7.org/CodeSystem/encounter-type","code":"OKI"}]}],"subject":{"reference":"Patient/19bb9d91-2e75-4a07-bf67-5e9952b73693"},"period":{"start":"2022-05-01T00:00:00+00:00","end":"2022-05-10T00:00:00+00:00"}},"request":{"method":"POST","url":"Encounter"}},{"fullUrl":"Encounter/a8fbe599-ba88-4e1f-8c3e-1db7ac7d2a59","resource":{"resourceType":"Encounter","id":"a8fbe599-ba88-4e1f-8c3e-1db7ac7d2a59","status":"finished","class":{"system":"http://terminology.hl7.org/CodeSystem/v3-ActCode","code":"HH","display":"home health"},"type":[{"coding":[{"system":"http://terminology.hl7.org/CodeSystem/encounter-type","code":"CCS60"}]}],"subject":{"reference":"Patient/19bb9d91-2e75-4a07-bf67-5e9952b73693"},"period":{"start":"2022-12-15T00:00:00+00:00","end":"2022-12-19T00:00:00+00:00"}},"request":{"method":"POST","url":"Encounter"}},{"fullUrl":"Encounter/732e7e71-6b67-4d36-b397-e4c2acd99175","resource":{"resourceType":"Encounter","id":"732e7e71-6b67-4d36-b397-e4c2acd99175","status":"finished","class":{"system":"http://terminology.hl7.org/CodeSystem/v3-ActCode","code":"NONAC","display":"inpatient non-acute"},"type":[{"coding":[{"system":"http://terminology.hl7.org/CodeSystem/encounter-type","code":"BD/BM-clin"}]}],"subject":{"reference":"Patient/19bb9d91-2e75-4a07-bf67-5e9952b73693"},"period":{"start":"2022-12-27T00:00:00+00:00","end":"2022-12-27T00:00:00+00:00"}},"request":{"method":"POST","url":"Encounter"}},{"fullUrl":"Patient/0c34d6fd-dc98-4948-a90f-b775f8e16ccf","resource":{"resourceType":"Patient","id":"0c34d6fd-dc98-4948-a90f-b775f8e16ccf","identifier":[{"type":{"coding":[{"system":"http://terminology.hl7.org/CodeSystem/v2-0203","code":"MR"}]},"system":"urn:fhirgen:mrn","value":"554-97-7272"}],"name":[{"family":"Kidd","given":["Carolyn"]}],"gender":"other","birthDate":"1999-03-21","address":[{"line":["3294 Madden Passage Apt. 375"],"city":"South Shannonville","state":"Missouri"}]},"request":{"method":"POST","url":"Patient"}},{"fullUrl":"Observation/aca100db-9a10-46a1-bd09-379d7ce3e25e","resource":{"resourceType":"Observation","id":"aca100db-9a10-46a1-bd09-379d7ce3e25e","status":"final","code":{"coding":[{"system":"http://loinc.org","code":"22590-4"}]},"subject":{"reference":"Patient/0c34d6fd-dc98-4948-a90f-b775f8e16ccf"},"effectiveDateTime":"2022-09-03T00:00:00+00:00","valueRatio":{"numerator":{"value":1.0},"denominator":{"value":32.0}}},"request":{"method":"POST","url":"Observation"}},{"fullUrl":"Observation/1afb3ff6-30ee-4556-8d59-42dec1a59c16","resource":{"resourceType":"Observation","id":"1afb3ff6-30ee-4556-8d59-42dec1a59c16","status":"final","code":{"coding":[{"system":"http://loinc.org","code":"51475-2"}]},"subject":{"reference":"Patient/0c34d6fd-dc98-4948-a90f-b775f8e16ccf"},"effectiveDateTime":"2022-04-11T00:00:00+00:00","valueRatio":{"numerator":{"value":1.0},"denominator":{"value":64.0}}},"request":{"method":"POST","url":"Observation"}},{"fullUrl":"Condition/6e394137-91c0-4775-b083-b7f4a622b6f6","resource":{"resourceType":"Condition","id":"6e394137-91c0-4775-b083-b7f4a622b6f6","code":{"coding":[{"system":"http://snomed.info/sct","code":"30746006"}]},"subject":{"reference":"Patient/0c34d6fd-dc98-4948-a90f-b775f8e16ccf"},"onsetDateTime":"2022-12-25T00:00:00+00:00"},"request":{"method":"POST","url":"Condition"}},{"fullUrl":"Condition/985ee8d0-72b2-4d90-9566-3f0d71089da9","resource":{"resourceType":"Condition","id":"985ee8d0-72b2-4d90-9566-3f0d71089da9","code":{"coding":[{"system":"http://snomed.info/sct","code":"71315007"}]},"subject":{"reference":"Patient/0c34d6fd-dc98-4948-a90f-b775f8e16ccf"},"onsetDateTime":"2022-06-11T00:00:00+00:00"},"request":{"method":"POST","url":"Condition"}},{"fullUrl":"Condition/9239fdaa-1fa0-492f-923d-dca9357311a5","resource":{"resourceType":"Condition","id":"9239fdaa-1fa0-492f-923d-dca9357311a5","code":{"coding":[{"system":"http://snomed.info/sct","code":"21522001"}]},"subject":{"reference":"Patient/0c34d6fd-dc98-4948-a90f-b775f8e16ccf"},"onsetDateTime":"2022-07-17T00:00:00+00:00"},"request":{"method":"POST","url":"Condition"}},{"fullUrl":"Observation/0047b9eb-f0ec-4a4d-9f64-6374ade8f6d5","resource":{"resourceType":"Observation","id":"0047b9eb-f0ec-4a4d-9f64-6374ade8f6d5","status":"final","code":{"coding":[{"system":"http://loinc.org","code":"49498-9"}]},"subject":{"reference":"Patient/0c34d6fd-dc98-4948-a90f-b775f8e16ccf"},"effectiveDateTime":"2022-01-20T00:00:00+00:00","valueQuantity":{"value":4.2}},"request":{"method":"POST","url":"Observation"}},{"fullUrl":"Observation/b32cb641-ff45-446c-ae1c-a946ae3dbea4","resource":{"resourceType":"Observation","id":"b32cb641-ff45-446c-ae1c-a946ae3dbea4","status":"final","code":{"coding":[{"system":"http://loinc.org","code":"49498-9"}]},"subject":{"reference":"Patient/0c34d6fd-dc98-4948-a90f-b775f8e16ccf"},"effectiveDateTime":"2022-08-29T00:00:00+00:00","valueQuantity":{"value":5.0}},"request":{"method":"POST","url":"Observation"}},{"fullUrl":"Observation/24c0aa2f-f6c3-4697-a47c-89c94edb02c7","resource":{"resourceType":"Observation","id":"24c0aa2f-f6c3-4697-a47c-89c94edb02c7","status":"final","code":{"coding":[{"system":"http://www.ama-assn.org/go/cpt","code":"85048"}]},"subject":{"reference":"Patient/0c34d6fd-dc98-4948-a90f-b775f8e16ccf"},"effectiveDateTime":"2022-03-05T00:00:00+00:00","valueQuantity":{"value":8.9}},"request":{"method":"POST","url":"Observation"}},{"fullUrl":"Procedure/344285d3-5cda-43db-8be4-21e6aaab1235","resource":{"resourceType":"Procedure","id":"344285d3-5cda-43db-8be4-21e6aaab1235","status":"completed","code":{"coding":[{"system":"http://snomed.info/sct","code":"189009"}]},"subject":{"reference":"Patient/0c34d6fd-dc98-4948-a90f-b775f8e16ccf"},"performedDateTime":"2022-10-02T00:00:00+00:00"},"request":{"method":"POST","url":"Procedure"}},{"fullUrl":"Procedure/7280b8a2-ec88-4c05-b191-df56dac47fba","resource":{"resourceType":"Procedure","id":"7280b8a2-ec88-4c05-b191-df56dac47fba","status":"completed","code":{"coding":[{"system":"http://snomed.info/sct","code":"115006"}]},"subject":{"reference":"Patient/0c34d6fd-dc98-4948-a90f-b775f8e16ccf"},"performedDateTime":"2022-01-28T00:00:00+00:00"},"request":{"method":"POST","url":"Procedure"}},{"fullUrl":"Procedure/a1e531a3-96fe-496d-bdcd-355759f58600","resource":{"resourceType":"Procedure","id":"a1e531a3-96fe-496d-bdcd-355759f58600","status":"completed","code":{"coding":[{"system":"http://snomed.info/sct","code":"146005"}]},"subject":{"reference":"Patient/0c34d6fd-dc98-4948-a90f-b775f8e16ccf"},"performedDateTime":"2022-03-30T00:00:00+00:00"},"request":{"method":"POST","url":"Procedure"}},{"fullUrl":"MedicationStatement/e2f2a2b6-e495-45be-a870-ad74053639c5","resource":{"resourceType":"MedicationStatement","id":"e2f2a2b6-e495-45be-a870-ad74053639c5","status":"completed","medicationCodeableConcept":{"coding":[{"system":"http://www.nlm.nih.gov/research/umls/rxnorm","code":"7980"}]},"subject":{"reference":"Patient/0c34d6fd-dc98-4948-a90f-b775f8e16ccf"},"effectiveDateTime":"2022-05-27T00:00:00+00:00","dosage":[{"doseAndRate":[{"doseQuantity":{"value":1.0,"unit":"TAB","system":"http://terminology.hl7.org/CodeSystem/v3-orderableDrugForm","code":"TAB"}}]}]},"request":{"method":"POST","url":"MedicationStatement"}},{"fullUrl":"MedicationStatement/bacc5cc0-f1a5-4978-9970-45687cd690c0","resource":{"resourceType":"MedicationStatement","id":"bacc5cc0-f1a5-4978-9970-45687cd690c0","status":"completed","medicationCodeableConcept":{"coding":[{"system":"http://www.nlm.nih.gov/research/umls/rxnorm","code":"2193"}]},"subject":{"reference":"Patient/0c34d6fd-dc98-4948-a90f-b775f8e16ccf"},"effectiveDateTime":"2022-05-16T00:00:00+00:00","dosage":[{"doseAndRate":[{"doseQuantity":{"value":1.0,"unit":"TAB","system":"http://terminology.hl7.org/CodeSystem/v3-orderableDrugForm","code":"TAB"}}]}]},"request":{"method":"POST","url":"MedicationStatement"}},{"fullUrl":"MedicationStatement/d6f0146a-efd7-459c-a78f-f17559e0e487","resource":{"resourceType":"MedicationStatement","id":"d6f0146a-efd7-459c-a78f-f17559e0e487","status":"completed","medicationCodeableConcept":{"coding":[{"system":"http://www.nlm.nih.gov/research/umls/rxnorm","code":"7980"}]},"subject":{"reference":"Patient/0c34d6fd-dc98-4948-a90f-b775f8e16ccf"},"effectiveDateTime":"2022-11-25T00:00:00+00:00","dosage":[{"doseAndRate":[{"doseQuantity":{"value":2.0,"unit":"TAB","system":"http://terminology.hl7.org/CodeSystem/v3-orderableDrugForm","code":"TAB"}}]}]},"request":{"method":"POST","url":"MedicationStatement"}},{"fullUrl":"MedicationStatement/d92be55c-e4cc-4ac0-80f4-9e92a3a49cd0","resource":{"resourceType":"MedicationStatement","id":"d92be55c-e4cc-4ac0-80f4-9e92a3a49cd0","status":"completed","medicationCodeableConcept":{"coding":[{"system":"http://www.nlm.nih.gov/research/umls/rxnorm","code":"7980"}]},"subject":{"reference":"Patient/0c34d6fd-dc98-4948-a90f-b775f8e16ccf"},"effectiveDateTime":"2022-11-11T00:00:00+00:00","dosage":[{"doseAndRate":[{"doseQuantity":{"value":2.0,"unit":"TAB","system":"http://terminology.hl7.org/CodeSystem/v3-orderableDrugForm","code":"TAB"}}]}]},"request":{"method":"POST","url":"MedicationStatement"}},{"fullUrl":"MedicationStatement/ecdeffa7-b6ab-44f8-824c-a9154ef2fb0a","resource":{"resourceType":"MedicationStatement","id":"ecdeffa7-b6ab-44f8-824c-a9154ef2fb0a","status":"completed","medicationCodeableConcept":{"coding":[{"system":"http://www.nlm.nih.gov/research/umls/rxnorm","code":"18631"}]},"subject":{"reference":"Patient/0c34d6fd-dc98-4948-a90f-b775f8e16ccf"},"effectiveDateTime":"2022-01-26T00:00:00+00:00","dosage":[{"doseAndRate":[{"doseQuantity":{"value":1.0,"unit":"TAB","system":"http://terminology.hl7.org/CodeSystem/v3-orderableDrugForm","code":"TAB"}}]}]},"request":{"method":"POST","url":"MedicationStatement"}},{"fullUrl":"MedicationStatement/835b4ec2-6cc9-40f2-8db8-43f4b4b98ec2","resource":{"resourceType":"MedicationStatement","id":"835b4ec2-6cc9-40f2-8db8-43f4b4b98ec2","status":"completed","medicationCodeableConcept":{"coding":[{"system":"http://www.nlm.nih.gov/research/umls/rxnorm","code":"3640"}]},"subject":{"reference":"Patient/0c34d6fd-dc98-4948-a90f-b775f8e16ccf"},"effectiveDateTime":"2022-07-23T00:00:00+00:00","dosage":[{"doseAndRate":[{"doseQuantity":{"value":2.0,"unit":"TAB","system":"http://terminology.hl7.org/CodeSystem/v3-orderableDrugForm","code":"TAB"}}]}]},"request":{"method":"POST","url":"MedicationStatement"}},{"fullUrl":"MedicationStatement/c320ca31-4054-4423-9199-6c6f505ddf31","resource":{"resourceType":"MedicationStatement","id":"c320ca31-4054-4423-9199-6c6f505ddf31","status":"completed","medicationCodeableConcept":{"coding":[{"system":"http://www.nlm.nih.gov/research/umls/rxnorm","code":"7980"}]},"subject":{"reference":"Patient/0c34d6fd-dc98-4948-a90f-b775f8e16ccf"},"effectiveDateTime":"2022-02-23T00:00:00+00:00","dosage":[{"doseAndRate":[{"doseQuantity":{"value":2.0,"unit":"TAB","system":"http://terminology.hl7.org/CodeSystem/v3-orderableDrugForm","code":"TAB"}}]}]},"request":{"method":"POST","url":"MedicationStatement"}},{"fullUrl":"Encounter/e306e769-c920-4196-8203-e32973d16540","resource":{"resourceType":"Encounter","id":"e306e769-c920-4196-8203-e32973d16540","status":"finished","class":{"system":"http://terminology.hl7.org/CodeSystem/v3-ActCode","code":"AMB","display":"ambulatory"},"type":[{"coding":[{"system":"http://terminology.hl7.org/CodeSystem/encounter-type","code":"CCS60"}]}],"subject":{"reference":"Patient/0c34d6fd-dc98-4948-a90f-b775f8e16ccf"},"period":{"start":"2022-04-22T00:00:00+00:00","end":"2022-04-26T00:00:00+00:00"}},"request":{"method":"POST","url":"Encounter"}},{"fullUrl":"Encounter/6637b614-8c93-4fc0-b6ee-51270eb73d75","resource":{"resourceType":"Encounter","id":"6637b614-8c93-4fc0-b6ee-51270eb73d75","status":"finished","class":{"system":"http://terminology.hl7.org/CodeSystem/v3-ActCode","code":"IMP","display":"inpatient encounter"},"type":[{"coding":[{"system":"http://terminology.hl7.org/CodeSystem/encounter-type","code":"BD/BM-clin"}]}],"subject":{"reference":"Patient/0c34d6fd-dc98-4948-a90f-b775f8e16ccf"},"period":{"start":"2022-12-10T00:00:00+00:00","end":"2022-12-14T00:00:00+00:00"}},"request":{"method":"POST","url":"Encounter"}}]}