{"resourceType":"Bundle","id":"87d5d154-dca8-449e-82f6-6e9d35031e87","type":"transaction","entry":[{"fullUrl":"Patient/33bd0688-854f-4eb9-9910-28c589fc5215","resource":{"resourceType":"Patient","id":"33bd0688-854f-4eb9-9910-28c589fc5215","identifier":[{"type":{"coding":[{"system":"http://terminology.hl7.org/CodeSystem/v2-0203","code":"MR"}]},"system":"urn:fhirgen:mrn","value":"625-94-3226"}],"name":[{"use":"official","family":"Smith","given":["Evan"]},{"use":"maiden","family":"Ford"}],"telecom":[{"system":"phone","value":"496.452.8482x4718","use":"home"},{"system":"email","value":"timgonzales@hotmail.com","use":"home"}],"gender":"male","birthDate":"1954-07-15","address":[{"use":"home","line":["44903 Rogers Light Apt. 172"],"city":"Port Kevin","state":"DE","postalCode":"53688"},{"use":"old","line":["972 Joseph Path"],"city":"South Beth","state":"NJ","postalCode":"03561"}]},"request":{"method":"POST","url":"Patient"}},{"fullUrl":"Observation/9a53a99d-7345-47fe-bc09-21e138cf6a82","resource":{"resourceType":"Observation","id":"9a53a99d-7345-47fe-bc09-21e138cf6a82","status":"final","code":{"coding":[{"system":"http://loinc.org","code":"47476-7"}]},"subject":{"reference":"Patient/33bd0688-854f-4eb9-9910-28c589fc5215"},"effectiveDateTime":"2022-01-13T00:00:00+00:00","valueRatio":{"numerator":{"value":1},"denominator":{"value":4}}},"request":{"method":"POST","url":"Observation"}},{"fullUrl":"Observation/ac116749-ad34-434d-958b-a24ceb8e85a7","resource":{"resourceType":"Observation","id":"ac116749-ad34-434d-958b-a24ceb8e85a7","status":"final","code":{"coding":[{"system":"http://loinc.org","code":"46203-6"}]},"subject":{"reference":"Patient/33bd0688-854f-4eb9-9910-28c589fc5215"},"effectiveDateTime":"2022-05-16T00:00:00+00:00","valueRatio":{"numerator":{"value":1},"denominator":{"value":64}}},"request":{"method":"POST","url":"Observation"}},{"fullUrl":"Observation/75382fa0-0710-46a8-915c-64511f56ee0f","resource":{"resourceType":"Observation","id":"75382fa0-0710-46a8-915c-64511f56ee0f","status":"final","code":{"coding":[{"system":"http://loinc.org","code":"71793-4"}]},"subject":{"reference":"Patient/33bd0688-854f-4eb9-9910-28c589fc5215"},"effectiveDateTime":"2022-05-10T00:00:00+00:00","valueRatio":{"numerator":{"value":1},"denominator":{"value":32}}},"request":{"method":"POST","url":"Observation"}},{"fullUrl":"Condition/31694e01-a6a8-4785-902a-c37be1ee9ce7","resource":{"resourceType":"Condition","id":"31694e01-a6a8-4785-902a-c37be1ee9ce7","code":{"coding":[{"system":"http://snomed.info/sct","code":"248980004"}]},"subject":{"reference":"Patient/33bd0688-854f-4eb9-9910-28c589fc5215"},"onsetDateTime":"2022-02-22T00:00:00+00:00"},"request":{"method":"POST","url":"Condition"}},{"fullUrl":"Condition/38b4a52c-fa40-4fd0-ae54-c1016ce6f015","resource":{"resourceType":"Condition","id":"38b4a52c-fa40-4fd0-ae54-c1016ce6f015","code":{"coding":[{"system":"http://snomed.info/sct","code":"271939006"}]},"subject":{"reference":"Patient/33bd0688-854f-4eb9-9910-28c589fc5215"},"onsetDateTime":"2022-02-17T00:00:00+00:00"},"request":{"method":"POST","url":"Condition"}},{"fullUrl":"Condition/ba2856ba-76b3-48bf-a27d-bc5b5d905826","resource":{"resourceType":"Condition","id":"ba2856ba-76b3-48bf-a27d-bc5b5d905826","code":{"coding":[{"system":"http://snomed.info/sct","code":"297123002"}]},"subject":{"reference":"Patient/33bd0688-854f-4eb9-9910-28c589fc5215"},"onsetDateTime":"2022-03-06T00:00:00+00:00"},"request":{"method":"POST","url":"Condition"}},{"fullUrl":"Condition/4944e70c-479f-45d2-9e6e-5df6cc4a68a9","resource":{"resourceType":"Condition","id":"4944e70c-479f-45d2-9e6e-5df6cc4a68a9","code":{"coding":[{"system":"http://snomed.info/sct","code":"418290006"}]},"subject":{"reference":"Patient/33bd0688-854f-4eb9-9910-28c589fc5215"},"onsetDateTime":"2022-01-18T00:00:00+00:00"},"request":{"method":"POST","url":"Condition"}},{"fullUrl":"Condition/f848368d-4944-4abb-bff7-a3a7a60a3122","resource":{"resourceType":"Condition","id":"f848368d-4944-4abb-bff7-a3a7a60a3122","code":{"coding":[{"system":"http://snomed.info/sct","code":"736686006"}]},"subject":{"reference":"Patient/33bd0688-854f-4eb9-9910-28c589fc5215"},"onsetDateTime":"2022-03-08T00:00:00+00:00"},"request":{"method":"POST","url":"Condition"}},{"fullUrl":"Condition/afc527d9-306b-4a74-9b7c-32683b265be8","resource":{"resourceType":"Condition","id":"afc527d9-306b-4a74-9b7c-32683b265be8","code":{"coding":[{"system":"http://snomed.info/sct","code":"21522001"}]},"subject":{"reference":"Patient/33bd0688-854f-4eb9-9910-28c589fc5215"},"onsetDateTime":"2022-01-29T00:00:00+00:00"},"request":{"method":"POST","url":"Condition"}},{"fullUrl":"Condition/b371e1a2-425a-49f5-9271-600c2fd05538","resource":{"resourceType":"Condition","id":"b371e1a2-425a-49f5-9271-600c2fd05538","code":{"coding":[{"system":"http://snomed.info/sct","code":"56317004"}]},"subject":{"reference":"Patient/33bd0688-854f-4eb9-9910-28c589fc5215"},"onsetDateTime":"2022-09-17T00:00:00+00:00"},"request":{"method":"POST","url":"Condition"}},{"fullUrl":"Observation/8e0b07a0-5b04-4d67-8c85-80d0bcd6efd0","resource":{"resourceType":"Observation","id":"8e0b07a0-5b04-4d67-8c85-80d0bcd6efd0","status":"final","code":{"coding":[{"system":"http://www.ama-assn.org/go/cpt","code":"85048"}]},"subject":{"reference":"Patient/33bd0688-854f-4eb9-9910-28c589fc5215"},"effectiveDateTime":"2022-05-02T00:00:00+00:00","valueQuantity":{"value":5.2}},"request":{"method":"POST","url":"Observation"}},{"fullUrl":"Observation/29ec6a88-e95b-4c16-bd26-a594c6e5f703","resource":{"resourceType":"Observation","id":"29ec6a88-e95b-4c16-bd26-a594c6e5f703","status":"final","code":{"coding":[{"system":"http://loinc.org","code":"26464-8"}]},"subject":{"reference":"Patient/33bd0688-854f-4eb9-9910-28c589fc5215"},"effectiveDateTime":"2022-01-06T00:00:00+00:00","valueQuantity":{"value":9.5}},"request":{"method":"POST","url":"Observation"}},{"fullUrl":"Observation/2bac44ac-9e26-4764-89b8-c8781b19ba06","resource":{"resourceType":"Observation","id":"2bac44ac-9e26-4764-89b8-c8781b19ba06","status":"final","code":{"coding":[{"system":"http://loinc.org","code":"49498-9"}]},"subject":{"reference":"Patient/33bd0688-854f-4eb9-9910-28c589fc5215"},"effectiveDateTime":"2022-07-04T00:00:00+00:00"},"request":{"method":"POST","url":"Observation"}},{"fullUrl":"Observation/6064ae1f-3f59-4100-8b6f-350202b14c80","resource":{"resourceType":"Observation","id":"6064ae1f-3f59-4100-8b6f-350202b14c80","status":"final","code":{"coding":[{"system":"http://loinc.org","code":"49498-9"}]},"subject":{"reference":"Patient/33bd0688-854f-4eb9-9910-28c589fc5215"},"effectiveDateTime":"2022-10-01T00:00:00+00:00"},"request":{"method":"POST","url":"Observation"}},{"fullUrl":"Observation/9f853652-7000-41ab-8933-4e80cfa616f3","resource":{"resourceType":"Observation","id":"9f853652-7000-41ab-8933-4e80cfa616f3","status":"final","code":{"coding":[{"system":"http://loinc.org","code":"49498-9"}]},"subject":{"reference":"Patient/33bd0688-854f-4eb9-9910-28c589fc5215"},"effectiveDateTime":"2022-11-10T00:00:00+00:00"},"request":{"method":"POST","url":"Observation"}},{"fullUrl":"Procedure/11d96935-c8cb-4f45-a7c8-d869b3499a6f","resource":{"resourceType":"Procedure","id":"11d96935-c8cb-4f45-a7c8-d869b3499a6f","status":"completed","code":{"coding":[{"system":"http://snomed.info/sct","code":"115006"}]},"subject":{"reference":"Patient/33bd0688-854f-4eb9-9910-28c589fc5215"},"performedDateTime":"2022-05-31T00:00:00+00:00"},"request":{"method":"POST","url":"Procedure"}},{"fullUrl":"Procedure/0fa9c94a-a7e9-4742-954b-53dd081c9d88","resource":{"resourceType":"Procedure","id":"0fa9c94a-a7e9-4742-954b-53dd081c9d88","status":"completed","code":{"coding":[{"system":"http://snomed.info/sct","code":"647000"}]},"subject":{"reference":"Patient/33bd0688-854f-4eb9-9910-28c589fc5215"},"performedDateTime":"2022-10-18T00:00:00+00:00"},"request":{"method":"POST","url":"Procedure"}},{"fullUrl":"Procedure/dfbd555f-c593-4813-8499-c820efb14ec0","resource":{"resourceType":"Procedure","id":"dfbd555f-c593-4813-8499-c820efb14ec0","status":"completed","code":{"coding":[{"system":"http://snomed.info/sct","code":"115006"}]},"subject":{"reference":"Patient/33bd0688-854f-4eb9-9910-28c589fc5215"},"performedDateTime":"2022-02-21T00:00:00+00:00"},"request":{"method":"POST","url":"Procedure"}},{"fullUrl":"MedicationStatement/06695057-4c78-4d67-b360-bbb59a5d304c","resource":{"resourceType":"MedicationStatement","id":"06695057-4c78-4d67-b360-bbb59a5d304c","status":"completed","medicationCodeableConcept":{"coding":[{"system":"http://www.nlm.nih.gov/research/umls/rxnorm","code":"18631"}]},"subject":{"reference":"Patient/33bd0688-854f-4eb9-9910-28c589fc5215"},"effectiveDateTime":"2022-05-27T00:00:00+00:00","dosage":[{"doseAndRate":[{"doseQuantity":{"value":1,"unit":"TAB","system":"http://terminology.hl7.org/CodeSystem/v3-orderableDrugForm","code":"TAB"}}]}]},"request":{"method":"POST","url":"MedicationStatement"}},{"fullUrl":"MedicationStatement/32c8ac9a-5813-4884-9015-9cfc1b9de2c5","resource":{"resourceType":"MedicationStatement","id":"32c8ac9a-5813-4884-9015-9cfc1b9de2c5","status":"completed","medicationCodeableConcept":{"coding":[{"system":"http://www.nlm.nih.gov/research/umls/rxnorm","code":"2193"}]},"subject":{"reference":"Patient/33bd0688-854f-4eb9-9910-28c589fc5215"},"effectiveDateTime":"2022-07-23T00:00:00+00:00","dosage":[{"doseAndRate":[{"doseQuantity":{"value":1,"unit":"TAB","system":"http://terminology.hl7.org/CodeSystem/v3-orderableDrugForm","code":"TAB"}}]}]},"request":{"method":"POST","url":"MedicationStatement"}},{"fullUrl":"MedicationStatement/d0d556b9-2ee0-4a9b-9229-ec52d640eae1","resource":{"resourceType":"MedicationStatement","id":"d0d556b9-2ee0-4a9b-9229-ec52d640eae1","status":"completed","medicationCodeableConcept":{"coding":[{"system":"http://www.nlm.nih.gov/research/umls/rxnorm","code":"7980"}]},"subject":{"reference":"Patient/33bd0688-854f-4eb9-9910-28c589fc5215"},"effectiveDateTime":"2022-09-15T00:00:00+00:00","dosage":[{"doseAndRate":[{"doseQuantity":{"value":2,"unit":"TAB","system":"http://terminology.hl7.org/CodeSystem/v3-orderableDrugForm","code":"TAB"}}]}]},"request":{"method":"POST","url":"MedicationStatement"}},{"fullUrl":"MedicationStatement/70329ddd-8366-461e-9d92-8dbf1930b64a","resource":{"resourceType":"MedicationStatement","id":"70329ddd-8366-461e-9d92-8dbf1930b64a","status":"completed","medicationCodeableConcept":{"coding":[{"system":"http://www.nlm.nih.gov/research/umls/rxnorm","code":"18631"}]},"subject":{"reference":"Patient/33bd0688-854f-4eb9-9910-28c589fc5215"},"effectiveDateTime":"2022-05-06T00:00:00+00:00","dosage":[{"doseAndRate":[{"doseQuantity":{"value":2,"unit":"TAB","system":"http://terminology.hl7.org/CodeSystem/v3-orderableDrugForm","code":"TAB"}}]}]},"request":{"method":"POST","url":"MedicationStatement"}},{"fullUrl":"MedicationStatement/bca0c1db-f85b-427d-a543-a29adafb5778","resource":{"resourceType":"MedicationStatement","id":"bca0c1db-f85b-427d-a543-a29adafb5778","status":"completed","medicationCodeableConcept":{"coding":[{"system":"http://www.nlm.nih.gov/research/umls/rxnorm","code":"7980"}]},"subject":{"reference":"Patient/33bd0688-854f-4eb9-9910-28c589fc5215"},"effectiveDateTime":"2022-04-22T00:00:00+00:00","dosage":[{"doseAndRate":[{"doseQuantity":{"value":2,"unit":"TAB","system":"http://terminology.hl7.org/CodeSystem/v3-orderableDrugForm","code":"TAB"}}]}]},"request":{"method":"POST","url":"MedicationStatement"}},{"fullUrl":"MedicationStatement/99d4cb67-b006-4d31-a1d9-169912ba547f","resource":{"resourceType":"MedicationStatement","id":"99d4cb67-b006-4d31-a1d9-169912ba547f","status":"completed","medicationCodeableConcept":{"coding":[{"system":"http://www.nlm.nih.gov/research/umls/rxnorm","code":"2193"}]},"subject":{"reference":"Patient/33bd0688-854f-4eb9-9910-28c589fc5215"},"effectiveDateTime":"2022-11-03T00:00:00+00:00","dosage":[{"doseAndRate":[{"doseQuantity":{"value":1,"unit":"TAB","system":"http://terminology.hl7.org/CodeSystem/v3-orderableDrugForm","code":"TAB"}}]}]},"request":{"method":"POST","url":"MedicationStatement"}},{"fullUrl":"MedicationStatement/da0e79a1-bacd-4e60-acde-15fc61892a56","resource":{"resourceType":"MedicationStatement","id":"da0e79a1-bacd-4e60-acde-15fc61892a56","status":"completed","medicationCodeableConcept":{"coding":[{"system":"http://www.nlm.nih.gov/research/umls/rxnorm","code":"2193"}]},"subject":{"reference":"Patient/33bd0688-854f-4eb9-9910-28c589fc5215"},"effectiveDateTime":"2022-10-25T00:00:00+00:00","dosage":[{"doseAndRate":[{"doseQuantity":{"value":2,"unit":"TAB","system":"http://terminology.hl7.org/CodeSystem/v3-orderableDrugForm","code":"TAB"}}]}]},"request":{"method":"POST","url":"MedicationStatement"}},{"fullUrl":"MedicationStatement/7c3f0756-7a25-4ded-aef8-13a3051134f4","resource":{"resourceType":"MedicationStatement","id":"7c3f0756-7a25-4ded-aef8-13a3051134f4","status":"completed","medicationCodeableConcept":{"coding":[{"system":"http://www.nlm.nih.gov/research/umls/rxnorm","code":"7984"}]},"subject":{"reference":"Patient/33bd0688-854f-4eb9-9910-28c589fc5215"},"effectiveDateTime":"2022-11-15T00:00:00+00:00","dosage":[{"doseAndRate":[{"doseQuantity":{"value":2,"unit":"TAB","system":"http://terminology.hl7.org/CodeSystem/v3-orderableDrugForm","code":"TAB"}}]}]},"request":{"method":"POST","url":"MedicationStatement"}},{"fullUrl":"MedicationStatement/9585a13f-ae61-402e-aea6-641a8949910f","resource":{"resourceType":"MedicationStatement","id":"9585a13f-ae61-402e-aea6-641a8949910f","status":"completed","medicationCodeableConcept":{"coding":[{"system":"http://www.nlm.nih.gov/research/umls/rxnorm","code":"8698"}]},"subject":{"reference":"Patient/33bd0688-854f-4eb9-9910-28c589fc5215"},"effectiveDateTime":"2022-02-05T00:00:00+00:00","dosage":[{"doseAndRate":[{"doseQuantity":{"value":6.7,"unit":"TAB","system":"http://terminology.hl7.org/CodeSystem/v3-orderableDrugForm","code":"TAB"}}]}]},"request":{"method":"POST","url":"MedicationStatement"}},{"fullUrl":"MedicationStatement/3d010377-4dd3-4dce-b422-93d66ca433e8","resource":{"resourceType":"MedicationStatement","id":"3d010377-4dd3-4dce-b422-93d66ca433e8","status":"completed","medicationCodeableConcept":{"coding":[{"system":"http://www.nlm.nih.gov/research/umls/rxnorm","code":"7980"}]},"subject":{"reference":"Patient/33bd0688-854f-4eb9-9910-28c589fc5215"},"effectiveDateTime":"2022-06-24T00:00:00+00:00","dosage":[{"doseAndRate":[{"doseQuantity":{"value":4.6,"unit":"TAB","system":"http://terminology.hl7.org/CodeSystem/v3-orderableDrugForm","code":"TAB"}}]}]},"request":{"method":"POST","url":"MedicationStatement"}},{"fullUrl":"MedicationStatement/efacfad8-431d-4455-8b5c-8f338981327b","resource":{"resourceType":"MedicationStatement","id":"efacfad8-431d-4455-8b5c-8f338981327b","status":"completed","medicationCodeableConcept":{"coding":[{"system":"http://www.nlm.nih.gov/research/umls/rxnorm","code":"7984"}]},"subject":{"reference":"Patient/33bd0688-854f-4eb9-9910-28c589fc5215"},"effectiveDateTime":"2022-08-11T00:00:00+00:00","dosage":[{"doseAndRate":[{"doseQuantity":{"value":5.6,"unit":"TAB","system":"http://terminology.hl7.org/CodeSystem/v3-orderableDrugForm","code":"TAB"}}]}]},"request":{"method":"POST","url":"MedicationStatement"}},{"fullUrl":"MedicationStatement/53b1acad-83d1-4337-8a68-9f1b5630e322","resource":{"resourceType":"MedicationStatement","id":"53b1acad-83d1-4337-8a68-9f1b5630e322","status":"completed","medicationCodeableConcept":{"coding":[{"system":"http://www.nlm.nih.gov/research/umls/rxnorm","code":"10395"}]},"subject":{"reference":"Patient/33bd0688-854f-4eb9-9910-28c589fc5215"},"effectiveDateTime":"2022-06-10T00:00:00+00:00","dosage":[{"doseAndRate":[{"doseQuantity":{"value":3.6,"unit":"TAB","system":"http://terminology.hl7.org/CodeSystem/v3-orderableDrugForm","code":"TAB"}}]}]},"request":{"method":"POST","url":"MedicationStatement"}},{"fullUrl":"Encounter/a2c4cec9-c15a-42bd-979a-874ba9d9c8bf","resource":{"resourceType":"Encounter","id":"a2c4cec9-c15a-42bd-979a-874ba9d9c8bf","status":"finished","class":{"system":"http://terminology.hl7.org/CodeSystem/v3-ActCode","code":"IMP","display":"inpatient encounter"},"type":[{"coding":[{"system":"http://terminology.hl7.org/CodeSystem/encounter-type","code":"ADMS"}]}],"subject":{"reference":"Patient/33bd0688-854f-4eb9-9910-28c589fc5215"},"period":{"start":"2022-01-19T00:00:00+00:00","end":"2022-01-26T00:00:00+00:00"}},"request":{"method":"POST","url":"Encounter"}},{"fullUrl":"Encounter/f5cea828-8c65-4775-98e9-bfcb65357d1f","resource":{"resourceType":"Encounter","id":"f5cea828-8c65-4775-98e9-bfcb65357d1f","status":"finished","class":{"system":"http://terminology.hl7.org/CodeSystem/v3-ActCode","code":"IMP","display":"inpatient encounter"},"type":[{"coding":[{"system":"http://terminology.hl7.org/CodeSystem/encounter-type","code":"ADMS"}]}],"subject":{"reference":"Patient/33bd0688-854f-4eb9-9910-28c589fc5215"},"period":{"start":"2022-11-30T00:00:00+00:00","end":"2022-12-03T00:00:00+00:00"}},"request":{"method":"POST","url":"Encounter"}},{"fullUrl":"Encounter/ef09dd99-df70-407c-ba2b-bf9eae0790f8","resource":{"resourceType":"Encounter","id":"ef09dd99-df70-407c-ba2b-bf9eae0790f8","status":"finished","class":{"system":"http://terminology.hl7.org/CodeSystem/v3-ActCode","code":"IMP","display":"inpatient encounter"},"type":[{"coding":[{"system":"http://terminology.hl7.org/CodeSystem/encounter-type","code":"CCS60"}]}],"subject":{"reference":"Patient/33bd0688-854f-4eb9-9910-28c589fc5215"},"period":{"start":"2022-09-11T00:00:00+00:00","end":"2022-09-16T00:00:00+00:00"}},"request":{"method":"POST","url":"Encounter"}},{"fullUrl":"Encounter/892e0258-ec8d-4b83-9d32-70408a3cadc5","resource":{"resourceType":"Encounter","id":"892e0258-ec8d-4b83-9d32-70408a3cadc5","status":"finished","class":{"system":"http://terminology.hl7.org/CodeSystem/v3-ActCode","code":"IMP","display":"inpatient encounter"},"type":[{"coding":[{"system":"http://terminology.hl7.org/CodeSystem/encounter-type","code":"ADMS"}]}],"subject":{"reference":"Patient/33bd0688-854f-4eb9-9910-28c589fc5215"},"period":{"start":"2022-09-24T00:00:00+00:00","end":"2022-09-25T00:00:00+00:00"}},"request":{"method":"POST","url":"Encounter"}},{"fullUrl":"Encounter/e436b3c8-235b-43b6-9fed-89732490c59d","resource":{"resourceType":"Encounter","id":"e436b3c8-235b-43b6-9fed-89732490c59d","status":"finished","class":{"system":"http://terminology.hl7.org/CodeSystem/v3-ActCode","code":"NONAC","display":"inpatient non-acute"},"type":[{"coding":[{"system":"http://terminology.hl7.org/CodeSystem/encounter-type","code":"BD/BM-clin"}]}],"subject":{"reference":"Patient/33bd0688-854f-4eb9-9910-28c589fc5215"},"period":{"start":"2022-09-14T00:00:00+00:00","end":"2022-09-15T00:00:00+00:00"}},"request":{"method":"POST","url":"Encounter"}},{"fullUrl":"Encounter/c994c637-c627-4f10-8878-8aaa72967746","resource":{"resourceType":"Encounter","id":"c994c637-c627-4f10-8878-8aaa72967746","status":"finished","class":{"system":"http://terminology.hl7.org/CodeSystem/v3-ActCode","code":"IMP","display":"inpatient encounter"},"type":[{"coding":[{"system":"http://terminology.hl7.org/CodeSystem/encounter-type","code":"ADMS"}]}],"subject":{"reference":"Patient/33bd0688-854f-4eb9-9910-28c589fc5215"},"period":{"start":"2022-10-29T00:00:00+00:00","end":"2022-11-03T00:00:00+00:00"}},"request":{"method":"POST","url":"Encounter"}},{"fullUrl":"Patient/39b105f2-f176-4f7d-aafb-9067fdf2c25f","resource":{"resourceType":"Patient","id":"39b105f2-f176-4f7d-aafb-9067fdf2c25f","identifier":[{"type":{"coding":[{"system":"http://terminology.hl7.org/CodeSystem/v2-0203","code":"MR"}]},"system":"urn:fhirgen:mrn","value":"760-27-9674"}],"name":[{"use":"official","family":"Proctor","given":["Edward"]},{"use":"maiden","family":"Cortez"}],"telecom":[{"system":"phone","value":"(119)651-4593x1536","use":"mobile"},{"system":"email","value":"johnfrank@hotmail.com","use":"mobile"}],"gender":"male","birthDate":"1989-08-14","address":[{"use":"home","line":["8850 Jackson Fork Apt. 219"],"city":"Townsendfurt","state":"SC","postalCode":"34875"},{"use":"old","line":["4896 Foster Island Suite 103"],"city":"Annafurt","state":"OH","postalCode":"24720"}]},"request":{"method":"POST","url":"Patient"}},{"fullUrl":"Observation/28988b51-40d9-4083-9536-8eb520874567","resource":{"resourceType":"Observation","id":"28988b51-40d9-4083-9536-8eb520874567","status":"final","code":{"coding":[{"system":"http://loinc.org","code":"5394-2"}]},"subject":{"reference":"Patient/39b105f2-f176-4f7d-aafb-9067fdf2c25f"},"effectiveDateTime":"2022-04-28T00:00:00+00:00","valueRatio":{"numerator":{"value":1},"denominator":{"value":32}}},"request":{"method":"POST","url":"Observation"}},{"fullUrl":"Observation/ed7bbaf4-5692-41c3-b03c-a12ad57ed5c4","resource":{"resourceType":"Observation","id":"ed7bbaf4-5692-41c3-b03c-a12ad57ed5c4","status":"final","code":{"coding":[{"system":"http://loinc.org","code":"51475-2"}]},"subject":{"reference":"Patient/39b105f2-f176-4f7d-aafb-9067fdf2c25f"},"effectiveDateTime":"2022-12-02T00:00:00+00:00","valueRatio":{"numerator":{"value":1},"denominator":{"value":32}}},"request":{"method":"POST","url":"Observation"}},{"fullUrl":"Observation/a31c10ed-afa3-4cb2-ac8c-db16a2ac1310","resource":{"resourceType":"Observation","id":"a31c10ed-afa3-4cb2-ac8c-db16a2ac1310","status":"final","code":{"coding":[{"system":"http://loinc.org","code":"47235-7"}]},"subject":{"reference":"Patient/39b105f2-f176-4f7d-aafb-9067fdf2c25f"},"effectiveDateTime":"2022-10-14T00:00:00+00:00","valueRatio":{"numerator":{"value":1},"denominator":{"value":32}}},"request":{"method":"POST","url":"Observation"}},{"fullUrl":"Condition/5675cb25-d973-4d47-832b-d78cfc0f9bec","resource":{"resourceType":"Condition","id":"5675cb25-d973-4d47-832b-d78cfc0f9bec","code":{"coding":[{"system":"http://snomed.info/sct","code":"71315007"}]},"subject":{"reference":"Patient/39b105f2-f176-4f7d-aafb-9067fdf2c25f"},"onsetDateTime":"2022-01-22T00:00:00+00:00"},"request":{"method":"POST","url":"Condition"}},{"fullUrl":"Condition/f306310c-0fc9-430f-8c91-d42d87df8828","resource":{"resourceType":"Condition","id":"f306310c-0fc9-430f-8c91-d42d87df8828","code":{"coding":[{"system":"http://snomed.info/sct","code":"44882003"}]},"subject":{"reference":"Patient/39b105f2-f176-4f7d-aafb-9067fdf2c25f"},"onsetDateTime":"2022-03-05T00:00:00+00:00"},"request":{"method":"POST","url":"Condition"}},{"fullUrl":"Condition/8e27d0f6-8b38-4c2b-b4b9-776e37fed2a7","resource":{"resourceType":"Condition","id":"8e27d0f6-8b38-4c2b-b4b9-776e37fed2a7","code":{"coding":[{"system":"http://snomed.info/sct","code":"271939006"}]},"subject":{"reference":"Patient/39b105f2-f176-4f7d-aafb-9067fdf2c25f"},"onsetDateTime":"2022-03-25T00:00:00+00:00"},"request":{"method":"POST","url":"Condition"}},{"fullUrl":"Condition/1c19b947-0903-4b82-872b-51b4a4545047","resource":{"resourceType":"Condition","id":"1c19b947-0903-4b82-872b-51b4a4545047","code":{"coding":[{"system":"http://snomed.info/sct","code":"30746006"}]},"subject":{"reference":"Patient/39b105f2-f176-4f7d-aafb-9067fdf2c25f"},"onsetDateTime":"2022-01-27T00:00:00+00:00"},"request":{"method":"POST","url":"Condition"}},{"fullUrl":"Condition/810721d0-63f1-4e8b-9431-e7a136108975","resource":{"resourceType":"Condition","id":"810721d0-63f1-4e8b-9431-e7a136108975","code":{"coding":[{"system":"http://snomed.info/sct","code":"91554004"}]},"subject":{"reference":"Patient/39b105f2-f176-4f7d-aafb-9067fdf2c25f"},"onsetDateTime":"2022-03-15T00:00:00+00:00"},"request":{"method":"POST","url":"Condition"}},{"fullUrl":"Condition/af7775e3-1e2f-466b-9351-2149c4280879","resource":{"resourceType":"Condition","id":"af7775e3-1e2f-466b-9351-2149c4280879","code":{"coding":[{"system":"http://snomed.info/sct","code":"297123002"}]},"subject":{"reference":"Patient/39b105f2-f176-4f7d-aafb-9067fdf2c25f"},"onsetDateTime":"2022-06-12T00:00:00+00:00"},"request":{"method":"POST","url":"Condition"}},{"fullUrl":"Observation/b8748820-4734-4aa2-b27f-8fc14c39da91","resource":{"resourceType":"Observation","id":"b8748820-4734-4aa2-b27f-8fc14c39da91","status":"final","code":{"coding":[{"system":"http://loinc.org","code":"6690-2"}]},"subject":{"reference":"Patient/39b105f2-f176-4f7d-aafb-9067fdf2c25f"},"effectiveDateTime":"2022-06-30T00:00:00+00:00","valueQuantity":{"value":7.4}},"request":{"method":"POST","url":"Observation"}},{"fullUrl":"Observation/214a1367-0836-480b-a37e-47e79e1f7ab3","resource":{"resourceType":"Observation","id":"214a1367-0836-480b-a37e-47e79e1f7ab3","status":"final","code":{"coding":[{"system":"http://www.ama-assn.org/go/cpt","code":"85048"}]},"subject":{"reference":"Patient/39b105f2-f176-4f7d-aafb-9067fdf2c25f"},"effectiveDateTime":"2022-12-04T00:00:00+00:00","valueQuantity":{"value":10.3}},"request":{"method":"POST","url":"Observation"}},{"fullUrl":"Observation/232a046c-006e-4339-809f-8f8e16f4997d","resource":{"resourceType":"Observation","id":"232a046c-006e-4339-809f-8f8e16f4997d","status":"final","code":{"coding":[{"system":"http://loinc.org","code":"6690-2"}]},"subject":{"reference":"Patient/39b105f2-f176-4f7d-aafb-9067fdf2c25f"},"effectiveDateTime":"2022-05-02T00:00:00+00:00","valueQuantity":{"value":7.6}},"request":{"method":"POST","url":"Observation"}},{"fullUrl":"Observation/a0e42df6-3461-4c18-a507-48267a2ab735","resource":{"resourceType":"Observation","id":"a0e42df6-3461-4c18-a507-48267a2ab735","status":"final","code":{"coding":[{"system":"http://loinc.org","code":"49498-9"}]},"subject":{"reference":"Patient/39b105f2-f176-4f7d-aafb-9067fdf2c25f"},"effectiveDateTime":"2022-03-07T00:00:00+00:00"},"request":{"method":"POST","url":"Observation"}},{"fullUrl":"Observation/4334c0e6-868c-4f58-9044-007143cbadc8","resource":{"resourceType":"Observation","id":"4334c0e6-868c-4f58-9044-007143cbadc8","status":"final","code":{"coding":[{"system":"http://loinc.org","code":"49498-9"}]},"subject":{"reference":"Patient/39b105f2-f176-4f7d-aafb-9067fdf2c25f"},"effectiveDateTime":"2022-03-15T00:00:00+00:00"},"request":{"method":"POST","url":"Observation"}},{"fullUrl":"Procedure/796d93de-e347-4a58-94cc-62319a5dab18","resource":{"resourceType":"Procedure","id":"796d93de-e347-4a58-94cc-62319a5dab18","status":"completed","code":{"coding":[{"system":"http://snomed.info/sct","code":"146005"}]},"subject":{"reference":"Patient/39b105f2-f176-4f7d-aafb-9067fdf2c25f"},"performedDateTime":"2022-04-03T00:00:00+00:00"},"request":{"method":"POST","url":"Procedure"}},{"fullUrl":"Procedure/7f2c7e37-b10b-43e7-b8ee-2df6c61b4de4","resource":{"resourceType":"Procedure","id":"7f2c7e37-b10b-43e7-b8ee-2df6c61b4de4","status":"completed","code":{"coding":[{"system":"http://snomed.info/sct","code":"104001"}]},"subject":{"reference":"Patient/39b105f2-f176-4f7d-aafb-9067fdf2c25f"},"performedDateTime":"2022-10-06T00:00:00+00:00"},"request":{"method":"POST","url":"Procedure"}},{"fullUrl":"Procedure/1e9ac91e-89c1-48b5-89ae-2d26a4ef13a7","resource":{"resourceType":"Procedure","id":"1e9ac91e-89c1-48b5-89ae-2d26a4ef13a7","status":"completed","code":{"coding":[{"system":"http://snomed.info/sct","code":"115006"}]},"subject":{"reference":"Patient/39b105f2-f176-4f7d-aafb-9067fdf2c25f"},"performedDateTime":"2022-01-21T00:00:00+00:00"},"request":{"method":"POST","url":"Procedure"}},{"fullUrl":"MedicationStatement/2c78d572-0877-489f-814e-15b5d9e3023a","resource":{"resourceType":"MedicationStatement","id":"2c78d572-0877-489f-814e-15b5d9e3023a","status":"completed","medicationCodeableConcept":{"coding":[{"system":"http://www.nlm.nih.gov/research/umls/rxnorm","code":"18631"}]},"subject":{"reference":"Patient/39b105f2-f176-4f7d-aafb-9067fdf2c25f"},"effectiveDateTime":"2022-07-17T00:00:00+00:00","dosage":[{"doseAndRate":[{"doseQuantity":{"value":1,"unit":"TAB","system":"http://terminology.hl7.org/CodeSystem/v3-orderableDrugForm","code":"TAB"}}]}]},"request":{"method":"POST","url":"MedicationStatement"}},{"fullUrl":"MedicationStatement/7d124e5e-f4c5-4386-bc77-38b8d83ca23b","resource":{"resourceType":"MedicationStatement","id":"7d124e5e-f4c5-4386-bc77-38b8d83ca23b","status":"completed","medicationCodeableConcept":{"coding":[{"system":"http://www.nlm.nih.gov/research/umls/rxnorm","code":"2193"}]},"subject":{"reference":"Patient/39b105f2-f176-4f7d-aafb-9067fdf2c25f"},"effectiveDateTime":"2022-12-27T00:00:00+00:00","dosage":[{"doseAndRate":[{"doseQuantity":{"value":2,"unit":"TAB","system":"http://terminology.hl7.org/CodeSystem/v3-orderableDrugForm","code":"TAB"}}]}]},"request":{"method":"POST","url":"MedicationStatement"}},{"fullUrl":"MedicationStatement/ce6a85fc-4113-414e-b4a8-81609b0fa880","resource":{"resourceType":"MedicationStatement","id":"ce6a85fc-4113-414e-b4a8-81609b0fa880","status":"completed","medicationCodeableConcept":{"coding":[{"system":"http://www.nlm.nih.gov/research/umls/rxnorm","code":"3640"}]},"subject":{"reference":"Patient/39b105f2-f176-4f7d-aafb-9067fdf2c25f"},"effectiveDateTime":"2022-05-17T00:00:00+00:00","dosage":[{"doseAndRate":[{"doseQuantity":{"value":1,"unit":"TAB","system":"http://terminology.hl7.org/CodeSystem/v3-orderableDrugForm","code":"TAB"}}]}]},"request":{"method":"POST","url":"MedicationStatement"}},{"fullUrl":"MedicationStatement/2ddde93a-3164-4dce-a4c8-db78792e6be2","resource":{"resourceType":"MedicationStatement","id":"2ddde93a-3164-4dce-a4c8-db78792e6be2","status":"completed","medicationCodeableConcept":{"coding":[{"system":"http://www.nlm.nih.gov/research/umls/rxnorm","code":"2193"}]},"subject":{"reference":"Patient/39b105f2-f176-4f7d-aafb-9067fdf2c25f"},"effectiveDateTime":"2022-07-13T00:00:00+00:00","dosage":[{"doseAndRate":[{"doseQuantity":{"value":2,"unit":"TAB","system":"http://terminology.hl7.org/CodeSystem/v3-orderableDrugForm","code":"TAB"}}]}]},"request":{"method":"POST","url":"MedicationStatement"}},{"fullUrl":"MedicationStatement/5b211935-231f-4e3b-b412-2c109c4a01ec","resource":{"resourceType":"MedicationStatement","id":"5b211935-231f-4e3b-b412-2c109c4a01ec","status":"completed","medicationCodeableConcept":{"coding":[{"system":"http://www.nlm.nih.gov/research/umls/rxnorm","code":"7984"}]},"subject":{"reference":"Patient/39b105f2-f176-4f7d-aafb-9067fdf2c25f"},"effectiveDateTime":"2022-10-30T00:00:00+00:00","dosage":[{"doseAndRate":[{"doseQuantity":{"value":1,"unit":"TAB","system":"http://terminology.hl7.org/CodeSystem/v3-orderableDrugForm","code":"TAB"}}]}]},"request":{"method":"POST","url":"MedicationStatement"}},{"fullUrl":"MedicationStatement/6d408b0a-1fc2-40a5-8831-2414992565a0","resource":{"resourceType":"MedicationStatement","id":"6d408b0a-1fc2-40a5-8831-2414992565a0","status":"completed","medicationCodeableConcept":{"coding":[{"system":"http://www.nlm.nih.gov/research/umls/rxnorm","code":"3640"}]},"subject":{"reference":"Patient/39b105f2-f176-4f7d-aafb-9067fdf2c25f"},"effectiveDateTime":"2022-03-13T00:00:00+00:00","dosage":[{"doseAndRate":[{"doseQuantity":{"value":2,"unit":"TAB","system":"http://terminology.hl7.org/CodeSystem/v3-orderableDrugForm","code":"TAB"}}]}]},"request":{"method":"POST","url":"MedicationStatement"}},{"fullUrl":"MedicationStatement/c121361b-7436-4878-b2ca-a7c1afdeaac9","resource":{"resourceType":"MedicationStatement","id":"c121361b-7436-4878-b2ca-a7c1afdeaac9","status":"completed","medicationCodeableConcept":{"coding":[{"system":"http://www.nlm.nih.gov/research/umls/rxnorm","code":"3640"}]},"subject":{"reference":"Patient/39b105f2-f176-4f7d-aafb-9067fdf2c25f"},"effectiveDateTime":"2022-01-18T00:00:00+00:00","dosage":[{"doseAndRate":[{"doseQuantity":{"value":2,"unit":"TAB","system":"http://terminology.hl7.org/CodeSystem/v3-orderableDrugForm","code":"TAB"}}]}]},"request":{"method":"POST","url":"MedicationStatement"}},{"fullUrl":"MedicationStatement/40990ba2-4bf3-4464-b89b-886597eaaf0d","resource":{"resourceType":"MedicationStatement","id":"40990ba2-4bf3-4464-b89b-886597eaaf0d","status":"completed","medicationCodeableConcept":{"coding":[{"system":"http://www.nlm.nih.gov/research/umls/rxnorm","code":"7980"}]},"subject":{"reference":"Patient/39b105f2-f176-4f7d-aafb-9067fdf2c25f"},"effectiveDateTime":"2022-12-30T00:00:00+00:00","dosage":[{"doseAndRate":[{"doseQuantity":{"value":1,"unit":"TAB","system":"http://terminology.hl7.org/CodeSystem/v3-orderableDrugForm","code":"TAB"}}]}]},"request":{"method":"POST","url":"MedicationStatement"}},{"fullUrl":"MedicationStatement/7127d3f7-72cd-4b2b-8b4c-94866589857a","resource":{"resourceType":"MedicationStatement","id":"7127d3f7-72cd-4b2b-8b4c-94866589857a","status":"completed","medicationCodeableConcept":{"coding":[{"system":"http://www.nlm.nih.gov/research/umls/rxnorm","code":"7984"}]},"subject":{"reference":"Patient/39b105f2-f176-4f7d-aafb-9067fdf2c25f"},"effectiveDateTime":"2022-01-13T00:00:00+00:00","dosage":[{"doseAndRate":[{"doseQuantity":{"value":5,"unit":"TAB","system":"http://terminology.hl7.org/CodeSystem/v3-orderableDrugForm","code":"TAB"}}]}]},"request":{"method":"POST","url":"MedicationStatement"}},{"fullUrl":"MedicationStatement/6fee06cc-6baf-4fed-994b-4779999e1b22","resource":{"resourceType":"MedicationStatement","id":"6fee06cc-6baf-4fed-994b-4779999e1b22","status":"completed","medicationCodeableConcept":{"coding":[{"system":"http://www.nlm.nih.gov/research/umls/rxnorm","code":"18631"}]},"subject":{"reference":"Patient/39b105f2-f176-4f7d-aafb-9067fdf2c25f"},"effectiveDateTime":"2022-05-11T00:00:00+00:00","dosage":[{"doseAndRate":[{"doseQuantity":{"value":3.8,"unit":"TAB","system":"http://terminology.hl7.org/CodeSystem/v3-orderableDrugForm","code":"TAB"}}]}]},"request":{"method":"POST","url":"MedicationStatement"}},{"fullUrl":"MedicationStatement/bcf41ba7-512f-4c4f-b131-f0e8ee2a983b","resource":{"resourceType":"MedicationStatement","id":"bcf41ba7-512f-4c4f-b131-f0e8ee2a983b","status":"completed","medicationCodeableConcept":{"coding":[{"system":"http://www.nlm.nih.gov/research/umls/rxnorm","code":"2193"}]},"subject":{"reference":"Patient/39b105f2-f176-4f7d-aafb-9067fdf2c25f"},"effectiveDateTime":"2022-04-13T00:00:00+00:00","dosage":[{"doseAndRate":[{"doseQuantity":{"value":6.5,"unit":"TAB","system":"http://terminology.hl7.org/CodeSystem/v3-orderableDrugForm","code":"TAB"}}]}]},"request":{"method":"POST","url":"MedicationStatement"}},{"fullUrl":"MedicationStatement/48d97d56-8d42-402e-9913-ec133b1ee794","resource":{"resourceType":"MedicationStatement","id":"48d97d56-8d42-402e-9913-ec133b1ee794","status":"completed","medicationCodeableConcept":{"coding":[{"system":"http://www.nlm.nih.gov/research/umls/rxnorm","code":"10395"}]},"subject":{"reference":"Patient/39b105f2-f176-4f7d-aafb-9067fdf2c25f"},"effectiveDateTime":"2022-12-15T00:00:00+00:00","dosage":[{"doseAndRate":[{"doseQuantity":{"value":3.6,"unit":"TAB","system":"http://terminology.hl7.org/CodeSystem/v3-orderableDrugForm","code":"TAB"}}]}]},"request":{"method":"POST","url":"MedicationStatement"}},{"fullUrl":"MedicationStatement/2deb6434-fa6c-4572-8a8c-405b8ac81b6b","resource":{"resourceType":"MedicationStatement","id":"2deb6434-fa6c-4572-8a8c-405b8ac81b6b","status":"completed","medicationCodeableConcept":{"coding":[{"system":"http://www.nlm.nih.gov/research/umls/rxnorm","code":"2193"}]},"subject":{"reference":"Patient/39b105f2-f176-4f7d-aafb-9067fdf2c25f"},"effectiveDateTime":"2022-07-04T00:00:00+00:00","dosage":[{"doseAndRate":[{"doseQuantity":{"value":3.5,"unit":"TAB","system":"http://terminology.hl7.org/CodeSystem/v3-orderableDrugForm","code":"TAB"}}]}]},"request":{"method":"POST","url":"MedicationStatement"}},{"fullUrl":"MedicationStatement/8292416e-eaaf-458d-8a89-d4f64d183057","resource":{"resourceType":"MedicationStatement","id":"8292416e-eaaf-458d-8a89-d4f64d183057","status":"completed","medicationCodeableConcept":{"coding":[{"system":"http://www.nlm.nih.gov/research/umls/rxnorm","code":"8698"}]},"subject":{"reference":"Patient/39b105f2-f176-4f7d-aafb-9067fdf2c25f"},"effectiveDateTime":"2022-07-06T00:00:00+00:00","dosage":[{"doseAndRate":[{"doseQuantity":{"value":4.8,"unit":"TAB","system":"http://terminology.hl7.org/CodeSystem/v3-orderableDrugForm","code":"TAB"}}]}]},"request":{"method":"POST","url":"MedicationStatement"}},{"fullUrl":"MedicationStatement/cd26c8b1-95cd-4a29-9522-8508a14bb09d","resource":{"resourceType":"MedicationStatement","id":"cd26c8b1-95cd-4a29-9522-8508a14bb09d","status":"completed","medicationCodeableConcept":{"coding":[{"system":"http://www.nlm.nih.gov/research/umls/rxnorm","code":"7980"}]},"subject":{"reference":"Patient/39b105f2-f176-4f7d-aafb-9067fdf2c25f"},"effectiveDateTime":"2022-01-14T00:00:00+00:00","dosage":[{"doseAndRate":[{"doseQuantity":{"value":4.2,"unit":"TAB","system":"http://terminology.hl7.org/CodeSystem/v3-orderableDrugForm","code":"TAB"}}]}]},"request":{"method":"POST","url":"MedicationStatement"}},{"fullUrl":"Encounter/73d7d515-b627-4572-86aa-bb893f71272a","resource":{"resourceType":"Encounter","id":"73d7d515-b627-4572-86aa-bb893f71272a","status":"finished","class":{"system":"http://terminology.hl7.org/CodeSystem/v3-ActCode","code":"IMP","display":"inpatient encounter"},"type":[{"coding":[{"system":"http://terminology.hl7.org/CodeSystem/encounter-type","code":"CCS60"}]}],"subject":{"reference":"Patient/39b105f2-f176-4f7d-aafb-9067fdf2c25f"},"period":{"start":"2022-03-29T00:00:00+00:00","end":"2022-03-31T00:00:00+00:00"}},"request":{"method":"POST","url":"Encounter"}},{"fullUrl":"Encounter/871d7317-3d44-4ee1-bee7-3ce88898bc05","resource":{"resourceType":"Encounter","id":"871d7317-3d44-4ee1-bee7-3ce88898bc05","status":"finished","class":{"system":"http://terminology.hl7.org/CodeSystem/v3-ActCode","code":"IMP","display":"inpatient encounter"},"type":[{"coding":[{"system":"http://terminology.hl7.org/CodeSystem/encounter-type","code":"ADMS"}]}],"subject":{"reference":"Patient/39b105f2-f176-4f7d-aafb-9067fdf2c25f"},"period":{"start":"2022-06-29T00:00:00+00:00","end":"2022-07-04T00:00:00+00:00"}},"request":{"method":"POST","url":"Encounter"}},{"fullUrl":"Encounter/89451745-7f7b-445d-bd28-c0a1e0eb09d8","resource":{"resourceType":"Encounter","id":"89451745-7f7b-445d-bd28-c0a1e0eb09d8","status":"finished","class":{"system":"http://terminology.hl7.org/CodeSystem/v3-ActCode","code":"HH","display":"home health"},"type":[{"coding":[{"system":"http://terminology.hl7.org/CodeSystem/encounter-type","code":"ADMS"}]}],"subject":{"reference":"Patient/39b105f2-f176-4f7d-aafb-9067fdf2c25f"},"period":{"start":"2022-10-06T00:00:00+00:00","end":"2022-10-13T00:00:00+00:00"}},"request":{"method":"POST","url":"Encounter"}},{"fullUrl":"Encounter/206e4c35-2470-422c-b471-228188e7958c","resource":{"resourceType":"Encounter","id":"206e4c35-2470-422c-b471-228188e7958c","status":"finished","class":{"system":"http://terminology.hl7.org/CodeSystem/v3-ActCode","code":"EMER","display":"emergency"},"type":[{"coding":[{"system":"http://terminology.hl7.org/CodeSystem/encounter-type","code":"BD/BM-clin"}]}],"subject":{"reference":"Patient/39b105f2-f176-4f7d-aafb-9067fdf2c25f"},"period":{"start":"2022-01-27T00:00:00+00:00","end":"2022-01-28T00:00:00+00:00"}},"request":{"method":"POST","url":"Encounter"}},{"fullUrl":"Encounter/7809b6ae-7105-4530-a652-65787fdd7468","resource":{"resourceType":"Encounter","id":"7809b6ae-7105-4530-a652-65787fdd7468","status":"finished","class":{"system":"http://terminology.hl7.org/CodeSystem/v3-ActCode","code":"PRENC","display":"pre-admission"},"type":[{"coding":[{"system":"http://terminology.hl7.org/CodeSystem/encounter-type","code":"CCS60"}]}],"subject":{"reference":"Patient/39b105f2-f176-4f7d-aafb-9067fdf2c25f"},"period":{"start":"2022-02-18T00:00:00+00:00","end":"2022-02-18T00:00:00+00:00"}},"request":{"method":"POST","url":"Encounter"}},{"fullUrl":"Patient/004d49a6-89ee-4010-aba6-6890b856977c","resource":{"resourceType":"Patient","id":"004d49a6-89ee-4010-aba6-6890b856977c","identifier":[{"type":{"coding":[{"system":"http://terminology.hl7.org/CodeSystem/v2-0203","code":"MR"}]},"system":"urn:fhirgen:mrn","value":"677-59-8451"}],"name":[{"use":"official","family":"Barker","given":["Erica"]},{"use":"maiden","family":"Wolf"}],"telecom":[{"system":"phone","value":"001-525-750-4302","use":"home"},{"system":"email","value":"heather63@yahoo.com","use":"mobile"}],"gender":"female","birthDate":"1986-06-12","address":[{"use":"home","line":["45532 Jesse Squares Suite 447"],"city":"South Danielle","state":"NE","postalCode":"05887"},{"use":"old","line":["9751 Jennifer Falls"],"city":"Port Thomas","state":"AZ","postalCode":"77104"}]},"request":{"method":"POST","url":"Patient"}},{"fullUrl":"Observation/4b94235d-7b94-435a-9ed7-7534032016da","resource":{"resourceType":"Observation","id":"4b94235d-7b94-435a-9ed7-7534032016da","status":"final","code":{"coding":[{"system":"http://loinc.org","code":"47235-7"}]},"subject":{"reference":"Patient/004d49a6-89ee-4010-aba6-6890b856977c"},"effectiveDateTime":"2022-04-30T00:00:00+00:00","valueRatio":{"numerator":{"value":1},"denominator":{"value":4}}},"request":{"method":"POST","url":"Observation"}},{"fullUrl":"Observation/3867d618-46cc-4a71-81e0-7d9fb0d53457","resource":{"resourceType":"Observation","id":"3867d618-46cc-4a71-81e0-7d9fb0d53457","status":"final","code":{"coding":[{"system":"http://loinc.org","code":"34382-2"}]},"subject":{"reference":"Patient/004d49a6-89ee-4010-aba6-6890b856977c"},"effectiveDateTime":"2022-01-15T00:00:00+00:00","valueRatio":{"numerator":{"value":1},"denominator":{"value":4}}},"request":{"method":"POST","url":"Observation"}},{"fullUrl":"Condition/7c6a6e8b-c29b-4c36-b310-b17cad32ac7b","resource":{"resourceType":"Condition","id":"7c6a6e8b-c29b-4c36-b310-b17cad32ac7b","code":{"coding":[{"system":"http://snomed.info/sct","code":"386661006"}]},"subject":{"reference":"Patient/004d49a6-89ee-4010-aba6-6890b856977c"},"onsetDateTime":"2022-12-27T00:00:00+00:00"},"request":{"method":"POST","url":"Condition"}},{"fullUrl":"Condition/7a91d39f-5a1a-4ac4-b0bb-0f4a959e0893","resource":{"resourceType":"Condition","id":"7a91d39f-5a1a-4ac4-b0bb-0f4a959e0893","code":{"coding":[{"system":"http://snomed.info/sct","code":"31070006"}]},"subject":{"reference":"Patient/004d49a6-89ee-4010-aba6-6890b856977c"},"onsetDateTime":"2022-06-03T00:00:00+00:00"},"request":{"method":"POST","url":"Condition"}},{"fullUrl":"Condition/78e4ba48-217c-4b4c-91fb-216a91bd179c","resource":{"resourceType":"Condition","id":"78e4ba48-217c-4b4c-91fb-216a91bd179c","code":{"coding":[{"system":"http://snomed.info/sct","code":"386661006"}]},"subject":{"reference":"Patient/004d49a6-89ee-4010-aba6-6890b856977c"},"onsetDateTime":"2022-01-01T00:00:00+00:00"},"request":{"method":"POST","url":"Condition"}},{"fullUrl":"Condition/d23b1b6e-7929-4d1b-a4ba-10b7218bc370","resource":{"resourceType":"Condition","id":"d23b1b6e-7929-4d1b-a4ba-10b7218bc370","code":{"coding":[{"system":"http://snomed.info/sct","code":"198199009"}]},"subject":{"reference":"Patient/004d49a6-89ee-4010-aba6-6890b856977c"},"onsetDateTime":"2022-02-17T00:00:00+00:00"},"request":{"method":"POST","url":"Condition"}},{"fullUrl":"Condition/437875eb-457a-484c-b94c-cfac29e00649","resource":{"resourceType":"Condition","id":"437875eb-457a-484c-b94c-cfac29e00649","code":{"coding":[{"system":"http://snomed.info/sct","code":"198199009"}]},"subject":{"reference":"Patient/004d49a6-89ee-4010-aba6-6890b856977c"},"onsetDateTime":"2022-04-03T00:00:00+00:00"},"request":{"method":"POST","url":"Condition"}},{"fullUrl":"Condition/64d4f716-aa36-4698-b48f-23368aa47f26","resource":{"resourceType":"Condition","id":"64d4f716-aa36-4698-b48f-23368aa47f26","code":{"coding":[{"system":"http://snomed.info/sct","code":"271939006"}]},"subject":{"reference":"Patient/004d49a6-89ee-4010-aba6-6890b856977c"},"onsetDateTime":"2022-12-31T00:00:00+00:00"},"request":{"method":"POST","url":"Condition"}},{"fullUrl":"Observation/7ef52904-2d56-4fe5-ba90-9ec90518c294","resource":{"resourceType":"Observation","id":"7ef52904-2d56-4fe5-ba90-9ec90518c294","status":"final","code":{"coding":[{"system":"http://loinc.org","code":"26464-8"}]},"subject":{"reference":"Patient/004d49a6-89ee-4010-aba6-6890b856977c"},"effectiveDateTime":"2022-05-05T00:00:00+00:00","valueQuantity":{"value":9.7}},"request":{"method":"POST","url":"Observation"}},{"fullUrl":"Observation/8ce011ec-a08b-4fc6-8f20-a3361fa67905","resource":{"resourceType":"Observation","id":"8ce011ec-a08b-4fc6-8f20-a3361fa67905","status":"final","code":{"coding":[{"system":"http://loinc.org","code":"6690-2"}]},"subject":{"reference":"Patient/004d49a6-89ee-4010-aba6-6890b856977c"},"effectiveDateTime":"2022-08-26T00:00:00+00:00","valueQuantity":{"value":6.5}},"request":{"method":"POST","url":"Observation"}},{"fullUrl":"Observation/bf486ab5-a0f5-439d-a409-e107704a4084","resource":{"resourceType":"Observation","id":"bf486ab5-a0f5-439d-a409-e107704a4084","status":"final","code":{"coding":[{"system":"http://loinc.org","code":"804-5"}]},"subject":{"reference":"Patient/004d49a6-89ee-4010-aba6-6890b856977c"},"effectiveDateTime":"2022-02-21T00:00:00+00:00","valueQuantity":{"value":8.4}},"request":{"method":"POST","url":"Observation"}},{"fullUrl":"Observation/e1ffdafe-accc-431e-8286-33a3b0e27662","resource":{"resourceType":"Observation","id":"e1ffdafe-accc-431e-8286-33a3b0e27662","status":"final","code":{"coding":[{"system":"http://loinc.org","code":"49498-9"}]},"subject":{"reference":"Patient/004d49a6-89ee-4010-aba6-6890b856977c"},"effectiveDateTime":"2022-08-26T00:00:00+00:00"},"request":{"method":"POST","url":"Observation"}},{"fullUrl":"Observation/fbc5c46a-778d-4a95-9010-64f3b2c98c3c","resource":{"resourceType":"Observation","id":"fbc5c46a-778d-4a95-9010-64f3b2c98c3c","status":"final","code":{"coding":[{"system":"http://loinc.org","code":"49498-9"}]},"subject":{"reference":"Patient/004d49a6-89ee-4010-aba6-6890b856977c"},"effectiveDateTime":"2022-01-05T00:00:00+00:00"},"request":{"method":"POST","url":"Observation"}},{"fullUrl":"Procedure/73eb1361-9a2c-43e5-9bb2-ec31fafacd9e","resource":{"resourceType":"Procedure","id":"73eb1361-9a2c-43e5-9bb2-ec31fafacd9e","status":"completed","code":{"coding":[{"system":"http://snomed.info/sct","code":"146005"}]},"subject":{"reference":"Patient/004d49a6-89ee-4010-aba6-6890b856977c"},"performedDateTime":"2022-09-18T00:00:00+00:00"},"request":{"method":"POST","url":"Procedure"}},{"fullUrl":"Procedure/71aba2dc-d0c8-4bf0-9206-34bfbd324f65","resource":{"resourceType":"Procedure","id":"71aba2dc-d0c8-4bf0-9206-34bfbd324f65","status":"completed","code":{"coding":[{"system":"http://snomed.info/sct","code":"115006"}]},"subject":{"reference":"Patient/004d49a6-89ee-4010-aba6-6890b856977c"},"performedDateTime":"2022-09-14T00:00:00+00:00"},"request":{"method":"POST","url":"Procedure"}},{"fullUrl":"Procedure/3a72b123-d924-444b-b5fd-4095af996bd8","resource":{"resourceType":"Procedure","id":"3a72b123-d924-444b-b5fd-4095af996bd8","status":"completed","code":{"coding":[{"system":"http://snomed.info/sct","code":"647000"}]},"subject":{"reference":"Patient/004d49a6-89ee-4010-aba6-6890b856977c"},"performedDateTime":"2022-06-04T00:00:00+00:00"},"request":{"method":"POST","url":"Procedure"}},{"fullUrl":"MedicationStatement/0f9b9487-b13b-4501-a6ee-e8a10381de80","resource":{"resourceType":"MedicationStatement","id":"0f9b9487-b13b-4501-a6ee-e8a10381de80","status":"completed","medicationCodeableConcept":{"coding":[{"system":"http://www.nlm.nih.gov/research/umls/rxnorm","code":"18631"}]},"subject":{"reference":"Patient/004d49a6-89ee-4010-aba6-6890b856977c"},"effectiveDateTime":"2022-08-18T00:00:00+00:00","dosage":[{"doseAndRate":[{"doseQuantity":{"value":2,"unit":"TAB","system":"http://terminology.hl7.org/CodeSystem/v3-orderableDrugForm","code":"TAB"}}]}]},"request":{"method":"POST","url":"MedicationStatement"}},{"fullUrl":"MedicationStatement/9b9a071c-d128-430c-ad99-b455f3ac936d","resource":{"resourceType":"MedicationStatement","id":"9b9a071c-d128-430c-ad99-b455f3ac936d","status":"completed","medicationCodeableConcept":{"coding":[{"system":"http://www.nlm.nih.gov/research/umls/rxnorm","code":"7980"}]},"subject":{"reference":"Patient/004d49a6-89ee-4010-aba6-6890b856977c"},"effectiveDateTime":"2022-01-02T00:00:00+00:00","dosage":[{"doseAndRate":[{"doseQuantity":{"value":1,"unit":"TAB","system":"http://terminology.hl7.org/CodeSystem/v3-orderableDrugForm","code":"TAB"}}]}]},"request":{"method":"POST","url":"MedicationStatement"}},{"fullUrl":"MedicationStatement/c2901f09-6ce4-4c24-b7fc-90dc96134db2","resource":{"resourceType":"MedicationStatement","id":"c2901f09-6ce4-4c24-b7fc-90dc96134db2","status":"completed","medicationCodeableConcept":{"coding":[{"system":"http://www.nlm.nih.gov/research/umls/rxnorm","code":"7980"}]},"subject":{"reference":"Patient/004d49a6-89ee-4010-aba6-6890b856977c"},"effectiveDateTime":"2022-10-24T00:00:00+00:00","dosage":[{"doseAndRate":[{"doseQuantity":{"value":1,"unit":"TAB","system":"http://terminology.hl7.org/CodeSystem/v3-orderableDrugForm","code":"TAB"}}]}]},"request":{"method":"POST","url":"MedicationStatement"}},{"fullUrl":"MedicationStatement/8cf1b0ae-f976-4d2b-9326-167a752d9213","resource":{"resourceType":"MedicationStatement","id":"8cf1b0ae-f976-4d2b-9326-167a752d9213","status":"completed","medicationCodeableConcept":{"coding":[{"system":"http://www.nlm.nih.gov/research/umls/rxnorm","code":"3640"}]},"subject":{"reference":"Patient/004d49a6-89ee-4010-aba6-6890b856977c"},"effectiveDateTime":"2022-02-04T00:00:00+00:00","dosage":[{"doseAndRate":[{"doseQuantity":{"value":1,"unit":"TAB","system":"http://terminology.hl7.org/CodeSystem/v3-orderableDrugForm","code":"TAB"}}]}]},"request":{"method":"POST","url":"MedicationStatement"}},{"fullUrl":"MedicationStatement/cd0f82a2-afc6-40c1-99af-ecec46e40f3a","resource":{"resourceType":"MedicationStatement","id":"cd0f82a2-afc6-40c1-99af-ecec46e40f3a","status":"completed","medicationCodeableConcept":{"coding":[{"system":"http://www.nlm.nih.gov/research/umls/rxnorm","code":"7980"}]},"subject":{"reference":"Patient/004d49a6-89ee-4010-aba6-6890b856977c"},"effectiveDateTime":"2022-04-02T00:00:00+00:00","dosage":[{"doseAndRate":[{"doseQuantity":{"value":1,"unit":"TAB","system":"http://terminology.hl7.org/CodeSystem/v3-orderableDrugForm","code":"TAB"}}]}]},"request":{"method":"POST","url":"MedicationStatement"}},{"fullUrl":"MedicationStatement/c3d0aabc-19b2-4a07-98fc-a68de19de3b1","resource":{"resourceType":"MedicationStatement","id":"c3d0aabc-19b2-4a07-98fc-a68de19de3b1","status":"completed","medicationCodeableConcept":{"coding":[{"system":"http://www.nlm.nih.gov/research/umls/rxnorm","code":"10395"}]},"subject":{"reference":"Patient/004d49a6-89ee-4010-aba6-6890b856977c"},"effectiveDateTime":"2022-09-26T00:00:00+00:00","dosage":[{"doseAndRate":[{"doseQuantity":{"value":2,"unit":"TAB","system":"http://terminology.hl7.org/CodeSystem/v3-orderableDrugForm","code":"TAB"}}]}]},"request":{"method":"POST","url":"MedicationStatement"}},{"fullUrl":"MedicationStatement/5023b75f-0694-4c91-8bc6-ce44d5d186c5","resource":{"resourceType":"MedicationStatement","id":"5023b75f-0694-4c91-8bc6-ce44d5d186c5","status":"completed","medicationCodeableConcept":{"coding":[{"system":"http://www.nlm.nih.gov/research/umls/rxnorm","code":"7980"}]},"subject":{"reference":"Patient/004d49a6-89ee-4010-aba6-6890b856977c"},"effectiveDateTime":"2022-07-16T00:00:00+00:00","dosage":[{"doseAndRate":[{"doseQuantity":{"value":3.3,"unit":"TAB","system":"http://terminology.hl7.org/CodeSystem/v3-orderableDrugForm","code":"TAB"}}]}]},"request":{"method":"POST","url":"MedicationStatement"}},{"fullUrl":"MedicationStatement/1e0fb452-a9db-4baf-beb1-276edb710864","resource":{"resourceType":"MedicationStatement","id":"1e0fb452-a9db-4baf-beb1-276edb710864","status":"completed","medicationCodeableConcept":{"coding":[{"system":"http://www.nlm.nih.gov/research/umls/rxnorm","code":"2193"}]},"subject":{"reference":"Patient/004d49a6-89ee-4010-aba6-6890b856977c"},"effectiveDateTime":"2022-03-16T00:00:00+00:00","dosage":[{"doseAndRate":[{"doseQuantity":{"value":5.6,"unit":"TAB","system":"http://terminology.hl7.org/CodeSystem/v3-orderableDrugForm","code":"TAB"}}]}]},"request":{"method":"POST","url":"MedicationStatement"}},{"fullUrl":"Encounter/09ab348f-8ebf-469e-a875-3454953ba96d","resource":{"resourceType":"Encounter","id":"09ab348f-8ebf-469e-a875-3454953ba96d","status":"finished","class":{"system":"http://terminology.hl7.org/CodeSystem/v3-ActCode","code":"IMP","display":"inpatient encounter"},"type":[{"coding":[{"system":"http://terminology.hl7.org/CodeSystem/encounter-type","code":"BD/BM-clin"}]}],"subject":{"reference":"Patient/004d49a6-89ee-4010-aba6-6890b856977c"},"period":{"start":"2022-02-22T00:00:00+00:00","end":"2022-03-02T00:00:00+00:00"}},"request":{"method":"POST","url":"Encounter"}},{"fullUrl":"Encounter/fa84b7bc-7862-41ba-b518-d4233e44679b","resource":{"resourceType":"Encounter","id":"fa84b7bc-7862-41ba-b518-d4233e44679b","status":"finished","class":{"system":"http://terminology.hl7.org/CodeSystem/v3-ActCode","code":"IMP","display":"inpatient encounter"},"type":[{"coding":[{"system":"http://terminology.hl7.org/CodeSystem/encounter-type","code":"BD/BM-clin"}]}],"subject":{"reference":"Patient/004d49a6-89ee-4010-aba6-6890b856977c"},"period":{"start":"2022-07-20T00:00:00+00:00","end":"2022-07-20T00:00:00+00:00"}},"request":{"method":"POST","url":"Encounter"}},{"fullUrl":"Encounter/2f2460ed-dc31-40b2-b5ae-d5049ad0b5c0","resource":{"resourceType":"Encounter","id":"2f2460ed-dc31-40b2-b5ae-d5049ad0b5c0","status":"finished","class":{"system":"http://terminology.hl7.org/CodeSystem/v3-ActCode","code":"IMP","display":"inpatient encounter"},"type":[{"coding":[{"system":"http://terminology.hl7.org/CodeSystem/encounter-type","code":"BD/BM-clin"}]}],"subject":{"reference":"Patient/004d49a6-89ee-4010-aba6-6890b856977c"},"period":{"start":"2022-07-08T00:00:00+00:00","end":"2022-07-12T00:00:00+00:00"}},"request":{"method":"POST","url":"Encounter"}},{"fullUrl":"Encounter/d9685523-4173-4eaf-bfae-d8f4b6fe24be","resource":{"resourceType":"Encounter","id":"d9685523-4173-4eaf-bfae-d8f4b6fe24be","status":"finished","class":{"system":"http://terminology.hl7.org/CodeSystem/v3-ActCode","code":"PRENC","display":"pre-admission"},"type":[{"coding":[{"system":"http://terminology.hl7.org/CodeSystem/encounter-type","code":"BD/BM-clin"}]}],"subject":{"reference":"Patient/004d49a6-89ee-4010-aba6-6890b856977c"},"period":{"start":"2022-07-28T00:00:00+00:00","end":"2022-08-03T00:00:00+00:00"}},"request":{"method":"POST","url":"Encounter"}},{"fullUrl":"Encounter/5c8b2755-92d7-40ce-9b2d-8173f54e79b0","resource":{"resourceType":"Encounter","id":"5c8b2755-92d7-40ce-9b2d-8173f54e79b0","status":"finished","class":{"system":"http://terminology.hl7.org/CodeSystem/v3-ActCode","code":"VR","display":"virtual"},"type":[{"coding":[{"system":"http://terminology.hl7.org/CodeSystem/encounter-type","code":"CCS60"}]}],"subject":{"reference":"Patient/004d49a6-89ee-4010-aba6-6890b856977c"},"period":{"start":"2022-09-10T00:00:00+00:00","end":"2022-09-16T00:00:00+00:00"}},"request":{"method":"POST","url":"Encounter"}},{"fullUrl":"Encounter/8793365f-6fa1-49ba-bd1a-c8836245aa75","resource":{"resourceType":"Encounter","id":"8793365f-6fa1-49ba-bd1a-c8836245aa75","status":"finished","class":{"system":"http://terminology.hl7.org/CodeSystem/v3-ActCode","code":"AMB","display":"ambulatory"},"type":[{"coding":[{"system":"http://terminology.hl7.org/CodeSystem/encounter-type","code":"ADMS"}]}],"subject":{"reference":"Patient/004d49a6-89ee-4010-aba6-6890b856977c"},"period":{"start":"2022-08-11T00:00:00+00:00","end":"2022-08-16T00:00:00+00:00"}},"request":{"method":"POST","url":"Encounter"}},{"fullUrl":"Patient/8c1ec709-0457-4da6-aa7a-5298f7246562","resource":{"resourceType":"Patient","id":"8c1ec709-0457-4da6-aa7a-5298f7246562","identifier":[{"type":{"coding":[{"system":"http://terminology.hl7.org/CodeSystem/v2-0203","code":"MR"}]},"system":"urn:fhirgen:mrn","value":"847-94-0847"}],"name":[{"use":"official","family":"Meyer","given":["Nicole"]},{"use":"maiden","family":"Neal"}],"telecom":[{"system":"phone","value":"805.074.4567","use":"mobile"},{"system":"email","value":"zachary90@yahoo.com","use":"mobile"}],"gender":"female","birthDate":"1980-07-05","address":[{"use":"home","line":["99949 Bell Lakes Apt. 451"],"city":"Taylorstad","state":"ID","postalCode":"78301"},{"use":"old","line":["146 Patel Squares"],"city":"New David","state":"OR","postalCode":"45160"}]},"request":{"method":"POST","url":"Patient"}},{"fullUrl":"Observation/5659297f-2ae1-4337-a504-39ed985a65d4","resource":{"resourceType":"Observation","id":"5659297f-2ae1-4337-a504-39ed985a65d4","status":"final","code":{"coding":[{"system":"http://loinc.org","code":"11084-1"}]},"subject":{"reference":"Patient/8c1ec709-0457-4da6-aa7a-5298f7246562"},"effectiveDateTime":"2022-08-20T00:00:00+00:00","valueRatio":{"numerator":{"value":1},"denominator":{"value":32}}},"request":{"method":"POST","url":"Observation"}},{"fullUrl":"Observation/1f60e8e5-d7a8-43f9-88c9-c74dd9a7075b","resource":{"resourceType":"Observation","id":"1f60e8e5-d7a8-43f9-88c9-c74dd9a7075b","status":"final","code":{"coding":[{"system":"http://loinc.org","code":"34382-2"}]},"subject":{"reference":"Patient/8c1ec709-0457-4da6-aa7a-5298f7246562"},"effectiveDateTime":"2022-02-23T00:00:00+00:00","valueRatio":{"numerator":{"value":1},"denominator":{"value":32}}},"request":{"method":"POST","url":"Observation"}},{"fullUrl":"Condition/48ee8d35-4654-4a31-b66a-9a3e39857f56","resource":{"resourceType":"Condition","id":"48ee8d35-4654-4a31-b66a-9a3e39857f56","code":{"coding":[{"system":"http://snomed.info/sct","code":"3951002"}]},"subject":{"reference":"Patient/8c1ec709-0457-4da6-aa7a-5298f7246562"},"onsetDateTime":"2022-08-06T00:00:00+00:00"},"request":{"method":"POST","url":"Condition"}},{"fullUrl":"Condition/0b871fb8-9b52-4a7a-8314-4499f064523a","resource":{"resourceType":"Condition","id":"0b871fb8-9b52-4a7a-8314-4499f064523a","code":{"coding":[{"system":"http://snomed.info/sct","code":"31070006"}]},"subject":{"reference":"Patient/8c1ec709-0457-4da6-aa7a-5298f7246562"},"onsetDateTime":"2022-11-04T00:00:00+00:00"},"request":{"method":"POST","url":"Condition"}},{"fullUrl":"Condition/b0567f82-ba7c-40a8-9b3a-543ec4f95fec","resource":{"resourceType":"Condition","id":"b0567f82-ba7c-40a8-9b3a-543ec4f95fec","code":{"coding":[{"system":"http://snomed.info/sct","code":"79342006"}]},"subject":{"reference":"Patient/8c1ec709-0457-4da6-aa7a-5298f7246562"},"onsetDateTime":"2022-03-06T00:00:00+00:00"},"request":{"method":"POST","url":"Condition"}},{"fullUrl":"Condition/d5ee3b89-d6e6-460a-83af-4a85b9726fd5","resource":{"resourceType":"Condition","id":"d5ee3b89-d6e6-460a-83af-4a85b9726fd5","code":{"coding":[{"system":"http://snomed.info/sct","code":"248980004"}]},"subject":{"reference":"Patient/8c1ec709-0457-4da6-aa7a-5298f7246562"},"onsetDateTime":"2022-07-26T00:00:00+00:00"},"request":{"method":"POST","url":"Condition"}},{"fullUrl":"Condition/679519d8-117b-4d89-8f70-674df41bf7ec","resource":{"resourceType":"Condition","id":"679519d8-117b-4d89-8f70-674df41bf7ec","code":{"coding":[{"system":"http://snomed.info/sct","code":"405737000"}]},"subject":{"reference":"Patient/8c1ec709-0457-4da6-aa7a-5298f7246562"},"onsetDateTime":"2022-03-27T00:00:00+00:00"},"request":{"method":"POST","url":"Condition"}},{"fullUrl":"Observation/efcd06db-e306-4f25-bd3a-bf0a6877d3e1","resource":{"resourceType":"Observation","id":"efcd06db-e306-4f25-bd3a-bf0a6877d3e1","status":"final","code":{"coding":[{"system":"http://loinc.org","code":"26464-8"}]},"subject":{"reference":"Patient/8c1ec709-0457-4da6-aa7a-5298f7246562"},"effectiveDateTime":"2022-12-13T00:00:00+00:00","valueQuantity":{"value":6}},"request":{"method":"POST","url":"Observation"}},{"fullUrl":"Observation/8ca1f051-edcf-4eb7-bb2d-3383dcfef838","resource":{"resourceType":"Observation","id":"8ca1f051-edcf-4eb7-bb2d-3383dcfef838","status":"final","code":{"coding":[{"system":"http://loinc.org","code":"804-5"}]},"subject":{"reference":"Patient/8c1ec709-0457-4da6-aa7a-5298f7246562"},"effectiveDateTime":"2022-08-16T00:00:00+00:00","valueQuantity":{"value":9.1}},"request":{"method":"POST","url":"Observation"}},{"fullUrl":"Observation/10d3d2a8-16d9-42bd-ad98-fa431c8252d4","resource":{"resourceType":"Observation","id":"10d3d2a8-16d9-42bd-ad98-fa431c8252d4","status":"final","code":{"coding":[{"system":"http://loinc.org","code":"49498-9"}]},"subject":{"reference":"Patient/8c1ec709-0457-4da6-aa7a-5298f7246562"},"effectiveDateTime":"2022-08-14T00:00:00+00:00"},"request":{"method":"POST","url":"Observation"}},{"fullUrl":"Observation/a0ae3a58-3edc-4a4a-8228-a6fa0e2ffb24","resource":{"resourceType":"Observation","id":"a0ae3a58-3edc-4a4a-8228-a6fa0e2ffb24","status":"final","code":{"coding":[{"system":"http://loinc.org","code":"49498-9"}]},"subject":{"reference":"Patient/8c1ec709-0457-4da6-aa7a-5298f7246562"},"effectiveDateTime":"2022-12-18T00:00:00+00:00"},"request":{"method":"POST","url":"Observation"}},{"fullUrl":"Observation/df8c342c-f7e2-4a9e-8103-4038bd18863e","resource":{"resourceType":"Observation","id":"df8c342c-f7e2-4a9e-8103-4038bd18863e","status":"final","code":{"coding":[{"system":"http://loinc.org","code":"49498-9"}]},"subject":{"reference":"Patient/8c1ec709-0457-4da6-aa7a-5298f7246562"},"effectiveDateTime":"2022-10-01T00:00:00+00:00"},"request":{"method":"POST","url":"Observation"}},{"fullUrl":"Procedure/1d0beb4a-9255-4f85-812a-99a8d8f5bc89","resource":{"resourceType":"Procedure","id":"1d0beb4a-9255-4f85-812a-99a8d8f5bc89","status":"completed","code":{"coding":[{"system":"http://snomed.info/sct","code":"189009"}]},"subject":{"reference":"Patient/8c1ec709-0457-4da6-aa7a-5298f7246562"},"performedDateTime":"2022-01-11T00:00:00+00:00"},"request":{"method":"POST","url":"Procedure"}},{"fullUrl":"Procedure/671ea283-8b09-4e35-abb5-8403ec5995ea","resource":{"resourceType":"Procedure","id":"671ea283-8b09-4e35-abb5-8403ec5995ea","status":"completed","code":{"coding":[{"system":"http://snomed.info/sct","code":"146005"}]},"subject":{"reference":"Patient/8c1ec709-0457-4da6-aa7a-5298f7246562"},"performedDateTime":"2022-02-10T00:00:00+00:00"},"request":{"method":"POST","url":"Procedure"}},{"fullUrl":"Procedure/23b2f868-3601-409b-bc71-1564829037fe","resource":{"resourceType":"Procedure","id":"23b2f868-3601-409b-bc71-1564829037fe","status":"completed","code":{"coding":[{"system":"http://snomed.info/sct","code":"146005"}]},"subject":{"reference":"Patient/8c1ec709-0457-4da6-aa7a-5298f7246562"},"performedDateTime":"2022-05-28T00:00:00+00:00"},"request":{"method":"POST","url":"Procedure"}},{"fullUrl":"MedicationStatement/5b797a4c-c6bc-4dcd-b8a6-802eb2093215","resource":{"resourceType":"MedicationStatement","id":"5b797a4c-c6bc-4dcd-b8a6-802eb2093215","status":"completed","medicationCodeableConcept":{"coding":[{"system":"http://www.nlm.nih.gov/research/umls/rxnorm","code":"7980"}]},"subject":{"reference":"Patient/8c1ec709-0457-4da6-aa7a-5298f7246562"},"effectiveDateTime":"2022-04-06T00:00:00+00:00","dosage":[{"doseAndRate":[{"doseQuantity":{"value":2,"unit":"TAB","system":"http://terminology.hl7.org/CodeSystem/v3-orderableDrugForm","code":"TAB"}}]}]},"request":{"method":"POST","url":"MedicationStatement"}},{"fullUrl":"MedicationStatement/82758afb-60fb-424d-9e81-1628c3084b74","resource":{"resourceType":"MedicationStatement","id":"82758afb-60fb-424d-9e81-1628c3084b74","status":"completed","medicationCodeableConcept":{"coding":[{"system":"http://www.nlm.nih.gov/research/umls/rxnorm","code":"7984"}]},"subject":{"reference":"Patient/8c1ec709-0457-4da6-aa7a-5298f7246562"},"effectiveDateTime":"2022-04-18T00:00:00+00:00","dosage":[{"doseAndRate":[{"doseQuantity":{"value":1,"unit":"TAB","system":"http://terminology.hl7.org/CodeSystem/v3-orderableDrugForm","code":"TAB"}}]}]},"request":{"method":"POST","url":"MedicationStatement"}},{"fullUrl":"MedicationStatement/79a01517-df48-4fbc-9ef8-7992b9d5a0a4","resource":{"resourceType":"MedicationStatement","id":"79a01517-df48-4fbc-9ef8-7992b9d5a0a4","status":"completed","medicationCodeableConcept":{"coding":[{"system":"http://www.nlm.nih.gov/research/umls/rxnorm","code":"7984"}]},"subject":{"reference":"Patient/8c1ec709-0457-4da6-aa7a-5298f7246562"},"effectiveDateTime":"2022-06-08T00:00:00+00:00","dosage":[{"doseAndRate":[{"doseQuantity":{"value":2,"unit":"TAB","system":"http://terminology.hl7.org/CodeSystem/v3-orderableDrugForm","code":"TAB"}}]}]},"request":{"method":"POST","url":"MedicationStatement"}},{"fullUrl":"MedicationStatement/f65f5f33-4af2-4a49-8178-e4986cf2877f","resource":{"resourceType":"MedicationStatement","id":"f65f5f33-4af2-4a49-8178-e4986cf2877f","status":"completed","medicationCodeableConcept":{"coding":[{"system":"http://www.nlm.nih.gov/research/umls/rxnorm","code":"3640"}]},"subject":{"reference":"Patient/8c1ec709-0457-4da6-aa7a-5298f7246562"},"effectiveDateTime":"2022-09-10T00:00:00+00:00","dosage":[{"doseAndRate":[{"doseQuantity":{"value":6.8,"unit":"TAB","system":"http://terminology.hl7.org/CodeSystem/v3-orderableDrugForm","code":"TAB"}}]}]},"request":{"method":"POST","url":"MedicationStatement"}},{"fullUrl":"Encounter/728c819b-2998-4655-9835-b8fdada8d09e","resource":{"resourceType":"Encounter","id":"728c819b-2998-4655-9835-b8fdada8d09e","status":"finished","class":{"system":"http://terminology.hl7.org/CodeSystem/v3-ActCode","code":"IMP","display":"inpatient encounter"},"type":[{"coding":[{"system":"http://terminology.hl7.org/CodeSystem/encounter-type","code":"ADMS"}]}],"subject":{"reference":"Patient/8c1ec709-0457-4da6-aa7a-5298f7246562"},"period":{"start":"2022-05-17T00:00:00+00:00","end":"2022-05-26T00:00:00+00:00"}},"request":{"method":"POST","url":"Encounter"}},{"fullUrl":"Encounter/84683527-cf93-4a4d-8830-e6de4df3c1f8","resource":{"resourceType":"Encounter","id":"84683527-cf93-4a4d-8830-e6de4df3c1f8","status":"finished","class":{"system":"http://terminology.hl7.org/CodeSystem/v3-ActCode","code":"IMP","display":"inpatient encounter"},"type":[{"coding":[{"system":"http://terminology.hl7.org/CodeSystem/encounter-type","code":"BD/BM-clin"}]}],"subject":{"reference":"Patient/8c1ec709-0457-4da6-aa7a-5298f7246562"},"period":{"start":"2022-11-13T00:00:00+00:00","end":"2022-11-14T00:00:00+00:00"}},"request":{"method":"POST","url":"Encounter"}},{"fullUrl":"Encounter/8b691ee1-af8e-4e5b-970b-06f61adf5bff","resource":{"resourceType":"Encounter","id":"8b691ee1-af8e-4e5b-970b-06f61adf5bff","status":"finished","class":{"system":"http://terminology.hl7.org/CodeSystem/v3-ActCode","code":"IMP","display":"inpatient encounter"},"type":[{"coding":[{"system":"http://terminology.hl7.org/CodeSystem/encounter-type","code":"BD/BM-clin"}]}],"subject":{"reference":"Patient/8c1ec709-0457-4da6-aa7a-5298f7246562"},"period":{"start":"2022-06-14T00:00:00+00:00","end":"2022-06-21T00:00:00+00:00"}},"request":{"method":"POST","url":"Encounter"}},{"fullUrl":"Encounter/9aad7d5a-377b-4b79-926e-745016e843fa","resource":{"resourceType":"Encounter","id":"9aad7d5a-377b-4b79-926e-745016e843fa","status":"finished","class":{"system":"http://terminology.hl7.org/CodeSystem/v3-ActCode","code":"FLD","display":"field"},"type":[{"coding":[{"system":"http://terminology.hl7.org/CodeSystem/encounter-type","code":"BD/BM-clin"}]}],"subject":{"reference":"Patient/8c1ec709-0457-4da6-aa7a-5298f7246562"},"period":{"start":"2022-07-02T00:00:00+00:00","end":"2022-07-10T00:00:00+00:00"}},"request":{"method":"POST","url":"Encounter"}},{"fullUrl":"Encounter/960eaccd-64f2-4651-8539-4e0535ac82cc","resource":{"resourceType":"Encounter","id":"960eaccd-64f2-4651-8539-4e0535ac82cc","status":"finished","class":{"system":"http://terminology.hl7.org/CodeSystem/v3-ActCode","code":"HH","display":"home health"},"type":[{"coding":[{"system":"http://terminology.hl7.org/CodeSystem/encounter-type","code":"OKI"}]}],"subject":{"reference":"Patient/8c1ec709-0457-4da6-aa7a-5298f7246562"},"period":{"start":"2022-01-04T00:00:00+00:00","end":"2022-01-12T00:00:00+00:00"}},"request":{"method":"POST","url":"Encounter"}},{"fullUrl":"Encounter/a39e6bbf-bbd5-4610-a687-2252f10aa11e","resource":{"resourceType":"Encounter","id":"a39e6bbf-bbd5-4610-a687-2252f10aa11e","status":"finished","class":{"system":"http://terminology.hl7.org/CodeSystem/v3-ActCode","code":"PRENC","display":"pre-admission"},"type":[{"coding":[{"system":"http://terminology.hl7.org/CodeSystem/encounter-type","code":"CCS60"}]}],"subject":{"reference":"Patient/8c1ec709-0457-4da6-aa7a-5298f7246562"},"period":{"start":"2022-03-13T00:00:00+00:00","end":"2022-03-17T00:00:00+00:00"}},"request":{"method":"POST","url":"Encounter"}},{"fullUrl":"Patient/ec897a58-f553-4299-9608-8fe16aa9ac5c","resource":{"resourceType":"Patient","id":"ec897a58-f553-4299-9608-8fe16aa9ac5c","identifier":[{"type":{"coding":[{"system":"http://terminology.hl7.org/CodeSystem/v2-0203","code":"MR"}]},"system":"urn:fhirgen:mrn","value":"324-95-3763"}],"name":[{"use":"official","family":"Hoover","given":["Donna"]},{"use":"maiden","family":"Larson"}],"telecom":[{"system":"phone","value":"001-839-505-1669x76050","use":"home"},{"system":"email","value":"pattonjoshua@hotmail.com","use":"mobile"}],"gender":"other","birthDate":"1962-05-03","address":[{"use":"home","line":["1293 Collier Knolls"],"city":"Tyronefort","state":"MS","postalCode":"76802"},{"use":"old","line":["55573 Tricia Oval"],"city":"Anthonyfort","state":"AR","postalCode":"09473"}]},"request":{"method":"POST","url":"Patient"}},{"fullUrl":"Observation/d35b5426-45e1-4d26-9acb-fee0f7ef372c","resource":{"resourceType":"Observation","id":"d35b5426-45e1-4d26-9acb-fee0f7ef372c","status":"final","code":{"coding":[{"system":"http://loinc.org","code":"50690-7"}]},"subject":{"reference":"Patient/ec897a58-f553-4299-9608-8fe16aa9ac5c"},"effectiveDateTime":"2022-05-13T00:00:00+00:00","valueRatio":{"numerator":{"value":1},"denominator":{"value":32}}},"request":{"method":"POST","url":"Observation"}},{"fullUrl":"Observation/5dec73c6-5578-4426-863b-c2e4cde1023f","resource":{"resourceType":"Observation","id":"5dec73c6-5578-4426-863b-c2e4cde1023f","status":"final","code":{"coding":[{"system":"http://loinc.org","code":"51475-2"}]},"subject":{"reference":"Patient/ec897a58-f553-4299-9608-8fe16aa9ac5c"},"effectiveDateTime":"2022-07-19T00:00:00+00:00","valueRatio":{"numerator":{"value":1},"denominator":{"value":64}}},"request":{"method":"POST","url":"Observation"}},{"fullUrl":"Observation/d97278aa-8ee5-4bd8-9ccb-2ad4e4a962f6","resource":{"resourceType":"Observation","id":"d97278aa-8ee5-4bd8-9ccb-2ad4e4a962f6","status":"final","code":{"coding":[{"system":"http://loinc.org","code":"50690-7"}]},"subject":{"reference":"Patient/ec897a58-f553-4299-9608-8fe16aa9ac5c"},"effectiveDateTime":"2022-03-26T00:00:00+00:00","valueRatio":{"numerator":{"value":1},"denominator":{"value":32}}},"request":{"method":"POST","url":"Observation"}},{"fullUrl":"Condition/6118596a-91b9-4192-aac2-1a2c437192c0","resource":{"resourceType":"Condition","id":"6118596a-91b9-4192-aac2-1a2c437192c0","code":{"coding":[{"system":"http://snomed.info/sct","code":"248980004"}]},"subject":{"reference":"Patient/ec897a58-f553-4299-9608-8fe16aa9ac5c"},"onsetDateTime":"2022-11-12T00:00:00+00:00"},"request":{"method":"POST","url":"Condition"}},{"fullUrl":"Condition/700aa9d6-ffeb-46a3-8418-29679dbcbaf5","resource":{"resourceType":"Condition","id":"700aa9d6-ffeb-46a3-8418-29679dbcbaf5","code":{"coding":[{"system":"http://snomed.info/sct","code":"44882003"}]},"subject":{"reference":"Patient/ec897a58-f553-4299-9608-8fe16aa9ac5c"},"onsetDateTime":"2022-04-21T00:00:00+00:00"},"request":{"method":"POST","url":"Condition"}},{"fullUrl":"Condition/5ed6b0e0-64f1-4b70-8e12-1ffb3d236044","resource":{"resourceType":"Condition","id":"5ed6b0e0-64f1-4b70-8e12-1ffb3d236044","code":{"coding":[{"system":"http://snomed.info/sct","code":"79342006"}]},"subject":{"reference":"Patient/ec897a58-f553-4299-9608-8fe16aa9ac5c"},"onsetDateTime":"2022-05-11T00:00:00+00:00"},"request":{"method":"POST","url":"Condition"}},{"fullUrl":"Condition/3d071505-709a-49a0-806b-d116a57d2ce1","resource":{"resourceType":"Condition","id":"3d071505-709a-49a0-806b-d116a57d2ce1","code":{"coding":[{"system":"http://snomed.info/sct","code":"71315007"}]},"subject":{"reference":"Patient/ec897a58-f553-4299-9608-8fe16aa9ac5c"},"onsetDateTime":"2022-01-27T00:00:00+00:00"},"request":{"method":"POST","url":"Condition"}},{"fullUrl":"Observation/6ff715c7-56f3-46fb-a2e9-0e1209673cf2","resource":{"resourceType":"Observation","id":"6ff715c7-56f3-46fb-a2e9-0e1209673cf2","status":"final","code":{"coding":[{"system":"http://loinc.org","code":"804-5"}]},"subject":{"reference":"Patient/ec897a58-f553-4299-9608-8fe16aa9ac5c"},"effectiveDateTime":"2022-04-12T00:00:00+00:00","valueQuantity":{"value":7.8}},"request":{"method":"POST","url":"Observation"}},{"fullUrl":"Observation/66800709-e5ee-4c27-90ee-119cca42b19c","resource":{"resourceType":"Observation","id":"66800709-e5ee-4c27-90ee-119cca42b19c","status":"final","code":{"coding":[{"system":"http://loinc.org","code":"26464-8"}]},"subject":{"reference":"Patient/ec897a58-f553-4299-9608-8fe16aa9ac5c"},"effectiveDateTime":"2022-07-20T00:00:00+00:00","valueQuantity":{"value":9.2}},"request":{"method":"POST","url":"Observation"}},{"fullUrl":"Observation/9d3c9844-4298-47e3-b741-974ecfdc42df","resource":{"resourceType":"Observation","id":"9d3c9844-4298-47e3-b741-974ecfdc42df","status":"final","code":{"coding":[{"system":"http://loinc.org","code":"6690-2"}]},"subject":{"reference":"Patient/ec897a58-f553-4299-9608-8fe16aa9ac5c"},"effectiveDateTime":"2022-10-23T00:00:00+00:00","valueQuantity":{"value":4.1}},"request":{"method":"POST","url":"Observation"}},{"fullUrl":"Observation/9caaf0e7-8c93-4c4e-9313-9079d65c0425","resource":{"resourceType":"Observation","id":"9caaf0e7-8c93-4c4e-9313-9079d65c0425","status":"final","code":{"coding":[{"system":"http://loinc.org","code":"49498-9"}]},"subject":{"reference":"Patient/ec897a58-f553-4299-9608-8fe16aa9ac5c"},"effectiveDateTime":"2022-09-03T00:00:00+00:00"},"request":{"method":"POST","url":"Observation"}},{"fullUrl":"Observation/bb461f2f-736f-40d6-84fc-2e6b3e8296de","resource":{"resourceType":"Observation","id":"bb461f2f-736f-40d6-84fc-2e6b3e8296de","status":"final","code":{"coding":[{"system":"http://loinc.org","code":"49498-9"}]},"subject":{"reference":"Patient/ec897a58-f553-4299-9608-8fe16aa9ac5c"},"effectiveDateTime":"2022-11-08T00:00:00+00:00"},"request":{"method":"POST","url":"Observation"}},{"fullUrl":"Procedure/7bd3f953-7185-4ce4-bde7-016c2551dedf","resource":{"resourceType":"Procedure","id":"7bd3f953-7185-4ce4-bde7-016c2551dedf","status":"completed","code":{"coding":[{"system":"http://snomed.info/sct","code":"189009"}]},"subject":{"reference":"Patient/ec897a58-f553-4299-9608-8fe16aa9ac5c"},"performedDateTime":"2022-12-20T00:00:00+00:00"},"request":{"method":"POST","url":"Procedure"}},{"fullUrl":"Procedure/463082d6-e2d6-41c8-98ae-a0caf44c9347","resource":{"resourceType":"Procedure","id":"463082d6-e2d6-41c8-98ae-a0caf44c9347","status":"completed","code":{"coding":[{"system":"http://snomed.info/sct","code":"115006"}]},"subject":{"reference":"Patient/ec897a58-f553-4299-9608-8fe16aa9ac5c"},"performedDateTime":"2022-09-01T00:00:00+00:00"},"request":{"method":"POST","url":"Procedure"}},{"fullUrl":"Procedure/3c72fe18-4bd9-45a9-bb19-1cb2e15d01bb","resource":{"resourceType":"Procedure","id":"3c72fe18-4bd9-45a9-bb19-1cb2e15d01bb","status":"completed","code":{"coding":[{"system":"http://snomed.info/sct","code":"647000"}]},"subject":{"reference":"Patient/ec897a58-f553-4299-9608-8fe16aa9ac5c"},"performedDateTime":"2022-11-15T00:00:00+00:00"},"request":{"method":"POST","url":"Procedure"}},{"fullUrl":"MedicationStatement/d41a37ae-e95b-4d5b-9ad0-fcfcd9c8b084","resource":{"resourceType":"MedicationStatement","id":"d41a37ae-e95b-4d5b-9ad0-fcfcd9c8b084","status":"completed","medicationCodeableConcept":{"coding":[{"system":"http://www.nlm.nih.gov/research/umls/rxnorm","code":"2193"}]},"subject":{"reference":"Patient/ec897a58-f553-4299-9608-8fe16aa9ac5c"},"effectiveDateTime":"2022-03-09T00:00:00+00:00","dosage":[{"doseAndRate":[{"doseQuantity":{"value":2,"unit":"TAB","system":"http://terminology.hl7.org/CodeSystem/v3-orderableDrugForm","code":"TAB"}}]}]},"request":{"method":"POST","url":"MedicationStatement"}},{"fullUrl":"MedicationStatement/765a3a16-b4ab-4ded-a0fa-0d4a760d4006","resource":{"resourceType":"MedicationStatement","id":"765a3a16-b4ab-4ded-a0fa-0d4a760d4006","status":"completed","medicationCodeableConcept":{"coding":[{"system":"http://www.nlm.nih.gov/research/umls/rxnorm","code":"2193"}]},"subject":{"reference":"Patient/ec897a58-f553-4299-9608-8fe16aa9ac5c"},"effectiveDateTime":"2022-05-01T00:00:00+00:00","dosage":[{"doseAndRate":[{"doseQuantity":{"value":1,"unit":"TAB","system":"http://terminology.hl7.org/CodeSystem/v3-orderableDrugForm","code":"TAB"}}]}]},"request":{"method":"POST","url":"MedicationStatement"}},{"fullUrl":"MedicationStatement/8b256bc5-aeae-41ca-aabf-431753cc1372","resource":{"resourceType":"MedicationStatement","id":"8b256bc5-aeae-41ca-aabf-431753cc1372","status":"completed","medicationCodeableConcept":{"coding":[{"system":"http://www.nlm.nih.gov/research/umls/rxnorm","code":"7980"}]},"subject":{"reference":"Patient/ec897a58-f553-4299-9608-8fe16aa9ac5c"},"effectiveDateTime":"2022-05-13T00:00:00+00:00","dosage":[{"doseAndRate":[{"doseQuantity":{"value":2,"unit":"TAB","system":"http://terminology.hl7.org/CodeSystem/v3-orderableDrugForm","code":"TAB"}}]}]},"request":{"method":"POST","url":"MedicationStatement"}},{"fullUrl":"MedicationStatement/4398fb8b-70b5-40a0-bb1a-06a93758246b","resource":{"resourceType":"MedicationStatement","id":"4398fb8b-70b5-40a0-bb1a-06a93758246b","status":"completed","medicationCodeableConcept":{"coding":[{"system":"http://www.nlm.nih.gov/research/umls/rxnorm","code":"7984"}]},"subject":{"reference":"Patient/ec897a58-f553-4299-9608-8fe16aa9ac5c"},"effectiveDateTime":"2022-01-29T00:00:00+00:00","dosage":[{"doseAndRate":[{"doseQuantity":{"value":1,"unit":"TAB","system":"http://terminology.hl7.org/CodeSystem/v3-orderableDrugForm","code":"TAB"}}]}]},"request":{"method":"POST","url":"MedicationStatement"}},{"fullUrl":"MedicationStatement/b90cd08f-8a3b-435e-babd-748d2a0659a9","resource":{"resourceType":"MedicationStatement","id":"b90cd08f-8a3b-435e-babd-748d2a0659a9","status":"completed","medicationCodeableConcept":{"coding":[{"system":"http://www.nlm.nih.gov/research/umls/rxnorm","code":"7984"}]},"subject":{"reference":"Patient/ec897a58-f553-4299-9608-8fe16aa9ac5c"},"effectiveDateTime":"2022-11-12T00:00:00+00:00","dosage":[{"doseAndRate":[{"doseQuantity":{"value":1,"unit":"TAB","system":"http://terminology.hl7.org/CodeSystem/v3-orderableDrugForm","code":"TAB"}}]}]},"request":{"method":"POST","url":"MedicationStatement"}},{"fullUrl":"MedicationStatement/a0ca3a71-9b53-49b5-b767-6e882f493d5d","resource":{"resourceType":"MedicationStatement","id":"a0ca3a71-9b53-49b5-b767-6e882f493d5d","status":"completed","medicationCodeableConcept":{"coding":[{"system":"http://www.nlm.nih.gov/research/umls/rxnorm","code":"10395"}]},"subject":{"reference":"Patient/ec897a58-f553-4299-9608-8fe16aa9ac5c"},"effectiveDateTime":"2022-11-07T00:00:00+00:00","dosage":[{"doseAndRate":[{"doseQuantity":{"value":4.8,"unit":"TAB","system":"http://terminology.hl7.org/CodeSystem/v3-orderableDrugForm","code":"TAB"}}]}]},"request":{"method":"POST","url":"MedicationStatement"}},{"fullUrl":"Encounter/c0e25880-8263-402b-9b58-c2a2b71192c6","resource":{"resourceType":"Encounter","id":"c0e25880-8263-402b-9b58-c2a2b71192c6","status":"finished","class":{"system":"http://terminology.hl7.org/CodeSystem/v3-ActCode","code":"IMP","display":"inpatient encounter"},"type":[{"coding":[{"system":"http://terminology.hl7.org/CodeSystem/encounter-type","code":"OKI"}]}],"subject":{"reference":"Patient/ec897a58-f553-4299-9608-8fe16aa9ac5c"},"period":{"start":"2022-08-18T00:00:00+00:00","end":"2022-08-25T00:00:00+00:00"}},"request":{"method":"POST","url":"Encounter"}},{"fullUrl":"Encounter/9de42bca-8223-44fc-808f-3e8e2da251cb","resource":{"resourceType":"Encounter","id":"9de42bca-8223-44fc-808f-3e8e2da251cb","status":"finished","class":{"system":"http://terminology.hl7.org/CodeSystem/v3-ActCode","code":"IMP","display":"inpatient encounter"},"type":[{"coding":[{"system":"http://terminology.hl7.org/CodeSystem/encounter-type","code":"CCS60"}]}],"subject":{"reference":"Patient/ec897a58-f553-4299-9608-8fe16aa9ac5c"},"period":{"start":"2022-04-02T00:00:00+00:00","end":"2022-04-05T00:00:00+00:00"}},"request":{"method":"POST","url":"Encounter"}},{"fullUrl":"Encounter/357084e6-8495-474e-95f2-58447a7b88fc","resource":{"resourceType":"Encounter","id":"357084e6-8495-474e-95f2-58447a7b88fc","status":"finished","class":{"system":"http://terminology.hl7.org/CodeSystem/v3-ActCode","code":"IMP","display":"inpatient encounter"},"type":[{"coding":[{"system":"http://terminology.hl7.org/CodeSystem/encounter-type","code":"OKI"}]}],"subject":{"reference":"Patient/ec897a58-f553-4299-9608-8fe16aa9ac5c"},"period":{"start":"2022-02-12T00:00:00+00:00","end":"2022-02-17T00:00:00+00:00"}},"request":{"method":"POST","url":"Encounter"}},{"fullUrl":"Encounter/f6c50eb7-5724-41b2-ab9c-c76a212017e9","resource":{"resourceType":"Encounter","id":"f6c50eb7-5724-41b2-ab9c-c76a212017e9","status":"finished","class":{"system":"http://terminology.hl7.org/CodeSystem/v3-ActCode","code":"NONAC","display":"inpatient non-acute"},"type":[{"coding":[{"system":"http://terminology.hl7.org/CodeSystem/encounter-type","code":"ADMS"}]}],"subject":{"reference":"Patient/ec897a58-f553-4299-9608-8fe16aa9ac5c"},"period":{"start":"2022-01-01T00:00:00+00:00","end":"2022-01-09T00:00:00+00:00"}},"request":{"method":"POST","url":"Encounter"}},{"fullUrl":"Encounter/7f8cff75-de8b-4fe3-980e-4294ec391993","resource":{"resourceType":"Encounter","id":"7f8cff75-de8b-4fe3-980e-4294ec391993","status":"finished","class":{"system":"http://terminology.hl7.org/CodeSystem/v3-ActCode","code":"PRENC","display":"pre-admission"},"type":[{"coding":[{"system":"http://terminology.hl7.org/CodeSystem/encounter-type","code":"ADMS"}]}],"subject":{"reference":"Patient/ec897a58-f553-4299-9608-8fe16aa9ac5c"},"period":{"start":"2022-11-04T00:00:00+00:00","end":"2022-11-09T00:00:00+00:00"}},"request":{"method":"POST","url":"Encounter"}}]}