{"resourceType":"Bundle","id":"4b744b7a-67f8-4a46-a878-5cc528466aae","type":"transaction","entry":[{"fullUrl":"Patient/85cf0134-6297-4737-bc85-d37682267e49","resource":{"resourceType":"Patient","id":"85cf0134-6297-4737-bc85-d37682267e49","meta":{"profile":["http://hl7.org/fhir/us/core/StructureDefinition/us-core-patient"]},"extension":[{"extension":[{"url":"ombCategory","valueCoding":{"system":"urn:oid:2.16.840.1.113883.6.238","code":"2076-8","display":"Native Hawaiian or Other Pacific Islander"}},{"url":"text","valueString":"Native Hawaiian or Other Pacific Islander"}],"url":"http://hl7.org/fhir/us/core/StructureDefinition/us-core-race"},{"extension":[{"url":"ombCategory","valueCoding":{"system":"urn:oid:2.16.840.1.113883.6.238","code":"2135-2","display":"Hispanic or Latino"}},{"url":"text","valueString":"Hispanic or Latino"}],"url":"http://hl7.org/fhir/us/core/StructureDefinition/us-core-ethnicity"}],"identifier":[{"type":{"coding":[{"system":"http://terminology.hl7.org/CodeSystem/v2-0203","code":"MR"}]},"system":"urn:fhirgen:mrn","value":"079-01-0578"}],"name":[{"use":"official","family":"Callahan","given":["James"]},{"use":"maiden","family":"Flynn"}],"telecom":[{"system":"phone","value":"389.835.5549x8895","use":"mobile"},{"system":"email","value":"tara07@hotmail.com","use":"mobile"}],"gender":"male","birthDate":"2001-04-12","address":[{"use":"home","line":["042 Jones Crest Suite 701"],"city":"West Gavin","state":"DE","postalCode":"52629"},{"use":"old","line":["28874 Price Extensions"],"city":"Ryanmouth","state":"AL","postalCode":"00472"}]},"request":{"method":"POST","url":"Patient"}},{"fullUrl":"Observation/8376c007-148f-4c44-925b-24df18ed725f","resource":{"resourceType":"Observation","id":"8376c007-148f-4c44-925b-24df18ed725f","meta":{"profile":["http://hl7.org/fhir/us/core/StructureDefinition/us-core-observation-lab"]},"status":"final","category":[{"coding":[{"system":"http://terminology.hl7.org/CodeSystem/observation-category","code":"laboratory","display":"Laboratory"}]}],"code":{"coding":[{"system":"http://loinc.org","code":"11084-1"}]},"subject":{"reference":"Patient/85cf0134-6297-4737-bc85-d37682267e49"},"effectiveDateTime":"2022-12-01T00:00:00+00:00","valueRatio":{"numerator":{"value":1},"denominator":{"value":64}}},"request":{"method":"POST","url":"Observation"}},{"fullUrl":"Observation/4c01e11e-6f0c-40fc-b4bb-918527b6472d","resource":{"resourceType":"Observation","id":"4c01e11e-6f0c-40fc-b4bb-918527b6472d","meta":{"profile":["http://hl7.org/fhir/us/core/StructureDefinition/us-core-observation-lab"]},"status":"final","category":[{"coding":[{"system":"http://terminology.hl7.org/CodeSystem/observation-category","code":"laboratory","display":"Laboratory"}]}],"code":{"coding":[{"system":"http://loinc.org","code":"22590-4"}]},"subject":{"reference":"Patient/85cf0134-6297-4737-bc85-d37682267e49"},"effectiveDateTime":"2022-10-08T00:00:00+00:00","valueRatio":{"numerator":{"value":1},"denominator":{"value":64}}},"request":{"method":"POST","url":"Observation"}},{"fullUrl":"Observation/ce446996-7072-4289-bead-4c704d3c2453","resource":{"resourceType":"Observation","id":"ce446996-7072-4289-bead-4c704d3c2453","meta":{"profile":["http://hl7.org/fhir/us/core/StructureDefinition/us-core-observation-lab"]},"status":"final","category":[{"coding":[{"system":"http://terminology.hl7.org/CodeSystem/observation-category","code":"laboratory","display":"Laboratory"}]}],"code":{"coding":[{"system":"http://loinc.org","code":"87925-4"}]},"subject":{"reference":"Patient/85cf0134-6297-4737-bc85-d37682267e49"},"effectiveDateTime":"2022-03-19T00:00:00+00:00","valueRatio":{"numerator":{"value":1},"denominator":{"value":32}}},"request":{"method":"POST","url":"Observation"}},{"fullUrl":"Condition/9c6f5629-64b5-4363-a935-17a84ab46177","resource":{"resourceType":"Condition","id":"9c6f5629-64b5-4363-a935-17a84ab46177","meta":{"profile":["http://hl7.org/fhir/us/core/StructureDefinition/us-core-condition"]},"clinicalStatus":{"coding":[{"system":"http://terminology.hl7.org/CodeSystem/condition-clinical","code":"active","display":"Active"}]},"category":[{"coding":[{"system":"http://terminology.hl7.org/CodeSystem/condition-category","code":"problem-list-item"}]}],"code":{"coding":[{"system":"http://snomed.info/sct","code":"418290006"}]},"subject":{"reference":"Patient/85cf0134-6297-4737-bc85-d37682267e49"},"onsetDateTime":"2022-10-30T00:00:00+00:00"},"request":{"method":"POST","url":"Condition"}},{"fullUrl":"Condition/99cd46f0-89c2-4c7c-965e-b1933b94d4bb","resource":{"resourceType":"Condition","id":"99cd46f0-89c2-4c7c-965e-b1933b94d4bb","meta":{"profile":["http://hl7.org/fhir/us/core/StructureDefinition/us-core-condition"]},"clinicalStatus":{"coding":[{"system":"http://terminology.hl7.org/CodeSystem/condition-clinical","code":"active","display":"Active"}]},"category":[{"coding":[{"system":"http://terminology.hl7.org/CodeSystem/condition-category","code":"problem-list-item"}]}],"code":{"coding":[{"system":"http://snomed.info/sct","code":"44882003"}]},"subject":{"reference":"Patient/85cf0134-6297-4737-bc85-d37682267e49"},"onsetDateTime":"2022-10-16T00:00:00+00:00"},"request":{"method":"POST","url":"Condition"}},{"fullUrl":"Condition/8774ebcd-81c9-4789-872c-7f30657e0cfc","resource":{"resourceType":"Condition","id":"8774ebcd-81c9-4789-872c-7f30657e0cfc","meta":{"profile":["http://hl7.org/fhir/us/core/StructureDefinition/us-core-condition"]},"clinicalStatus":{"coding":[{"system":"http://terminology.hl7.org/CodeSystem/condition-clinical","code":"active","display":"Active"}]},"category":[{"coding":[{"system":"http://terminology.hl7.org/CodeSystem/condition-category","code":"problem-list-item"}]}],"code":{"coding":[{"system":"http://snomed.info/sct","code":"709977002"}]},"subject":{"reference":"Patient/85cf0134-6297-4737-bc85-d37682267e49"},"onsetDateTime":"2022-01-24T00:00:00+00:00"},"request":{"method":"POST","url":"Condition"}},{"fullUrl":"Condition/cc18aaef-d108-4bdd-b8ac-d14c19657113","resource":{"resourceType":"Condition","id":"cc18aaef-d108-4bdd-b8ac-d14c19657113","meta":{"profile":["http://hl7.org/fhir/us/core/StructureDefinition/us-core-condition"]},"clinicalStatus":{"coding":[{"system":"http://terminology.hl7.org/CodeSystem/condition-clinical","code":"active","display":"Active"}]},"category":[{"coding":[{"system":"http://terminology.hl7.org/CodeSystem/condition-category","code":"problem-list-item"}]}],"code":{"coding":[{"system":"http://snomed.info/sct","code":"736686006"}]},"subject":{"reference":"Patient/85cf0134-6297-4737-bc85-d37682267e49"},"onsetDateTime":"2022-06-21T00:00:00+00:00"},"request":{"method":"POST","url":"Condition"}},{"fullUrl":"Condition/5ad8ef32-1b17-4371-927b-696edce17de3","resource":{"resourceType":"Condition","id":"5ad8ef32-1b17-4371-927b-696edce17de3","meta":{"profile":["http://hl7.org/fhir/us/core/StructureDefinition/us-core-condition"]},"clinicalStatus":{"coding":[{"system":"http://terminology.hl7.org/CodeSystem/condition-clinical","code":"active","display":"Active"}]},"category":[{"coding":[{"system":"http://terminology.hl7.org/CodeSystem/condition-category","code":"problem-list-item"}]}],"code":{"coding":[{"system":"http://snomed.info/sct","code":"418290006"}]},"subject":{"reference":"Patient/85cf0134-6297-4737-bc85-d37682267e49"},"onsetDateTime":"2022-12-26T00:00:00+00:00"},"request":{"method":"POST","url":"Condition"}},{"fullUrl":"Condition/81540a35-b302-4046-a859-466be2928df5","resource":{"resourceType":"Condition","id":"81540a35-b302-4046-a859-466be2928df5","meta":{"profile":["http://hl7.org/fhir/us/core/StructureDefinition/us-core-condition"]},"clinicalStatus":{"coding":[{"system":"http://terminology.hl7.org/CodeSystem/condition-clinical","code":"active","display":"Active"}]},"category":[{"coding":[{"system":"http://terminology.hl7.org/CodeSystem/condition-category","code":"problem-list-item"}]}],"code":{"coding":[{"system":"http://snomed.info/sct","code":"418290006"}]},"subject":{"reference":"Patient/85cf0134-6297-4737-bc85-d37682267e49"},"onsetDateTime":"2022-02-06T00:00:00+00:00"},"request":{"method":"POST","url":"Condition"}},{"fullUrl":"Condition/2774eeac-e4c7-4d71-ab18-d7ff4b6e7116","resource":{"resourceType":"Condition","id":"2774eeac-e4c7-4d71-ab18-d7ff4b6e7116","meta":{"profile":["http://hl7.org/fhir/us/core/StructureDefinition/us-core-condition"]},"clinicalStatus":{"coding":[{"system":"http://terminology.hl7.org/CodeSystem/condition-clinical","code":"active","display":"Active"}]},"category":[{"coding":[{"system":"http://terminology.hl7.org/CodeSystem/condition-category","code":"problem-list-item"}]}],"code":{"coding":[{"system":"http://snomed.info/sct","code":"709977002"}]},"subject":{"reference":"Patient/85cf0134-6297-4737-bc85-d37682267e49"},"onsetDateTime":"2022-02-01T00:00:00+00:00"},"request":{"method":"POST","url":"Condition"}},{"fullUrl":"Observation/15b47059-36a5-4529-8104-90d0165ed0cd","resource":{"resourceType":"Observation","id":"15b47059-36a5-4529-8104-90d0165ed0cd","meta":{"profile":["http://hl7.org/fhir/us/core/StructureDefinition/us-core-observation-lab"]},"status":"final","category":[{"coding":[{"system":"http://terminology.hl7.org/CodeSystem/observation-category","code":"laboratory","display":"Laboratory"}]}],"code":{"coding":[{"system":"http://loinc.org","code":"49498-9"}]},"subject":{"reference":"Patient/85cf0134-6297-4737-bc85-d37682267e49"},"effectiveDateTime":"2022-05-08T00:00:00+00:00","valueQuantity":{"value":8.4}},"request":{"method":"POST","url":"Observation"}},{"fullUrl":"Observation/6ee13370-4332-488d-8947-fae447a0c406","resource":{"resourceType":"Observation","id":"6ee13370-4332-488d-8947-fae447a0c406","meta":{"profile":["http://hl7.org/fhir/us/core/StructureDefinition/us-core-observation-lab"]},"status":"final","category":[{"coding":[{"system":"http://terminology.hl7.org/CodeSystem/observation-category","code":"laboratory","display":"Laboratory"}]}],"code":{"coding":[{"system":"http://loinc.org","code":"6690-2"}]},"subject":{"reference":"Patient/85cf0134-6297-4737-bc85-d37682267e49"},"effectiveDateTime":"2022-12-21T00:00:00+00:00","valueQuantity":{"value":8}},"request":{"method":"POST","url":"Observation"}},{"fullUrl":"Observation/71050fa5-2927-41af-8ed2-eaa35e932992","resource":{"resourceType":"Observation","id":"71050fa5-2927-41af-8ed2-eaa35e932992","meta":{"profile":["http://hl7.org/fhir/us/core/StructureDefinition/us-core-bmi"]},"status":"final","category":[{"coding":[{"system":"http://terminology.hl7.org/CodeSystem/observation-category","code":"vital-signs","display":"Vital Signs"}]}],"code":{"coding":[{"system":"http://loinc.org","code":"39156-5"}]},"subject":{"reference":"Patient/85cf0134-6297-4737-bc85-d37682267e49"},"effectiveDateTime":"2022-04-20T00:00:00+00:00","valueQuantity":{"value":20.78,"unit":"kg/m2","system":"http://unitsofmeasure.org","code":"kg/m2"}},"request":{"method":"POST","url":"Observation"}},{"fullUrl":"Observation/c5db3237-44a6-4821-afa5-4140619ad3a0","resource":{"resourceType":"Observation","id":"c5db3237-44a6-4821-afa5-4140619ad3a0","meta":{"profile":["http://hl7.org/fhir/us/core/StructureDefinition/us-core-bmi"]},"status":"final","category":[{"coding":[{"system":"http://terminology.hl7.org/CodeSystem/observation-category","code":"vital-signs","display":"Vital Signs"}]}],"code":{"coding":[{"system":"http://loinc.org","code":"39156-5"}]},"subject":{"reference":"Patient/85cf0134-6297-4737-bc85-d37682267e49"},"effectiveDateTime":"2022-12-22T00:00:00+00:00","valueQuantity":{"value":26.93,"unit":"kg/m2","system":"http://unitsofmeasure.org","code":"kg/m2"}},"request":{"method":"POST","url":"Observation"}},{"fullUrl":"Observation/eed50d15-e3ac-430e-8d0f-ed574be47ec8","resource":{"resourceType":"Observation","id":"eed50d15-e3ac-430e-8d0f-ed574be47ec8","meta":{"profile":["http://hl7.org/fhir/us/core/StructureDefinition/us-core-head-circumference"]},"status":"final","category":[{"coding":[{"system":"http://terminology.hl7.org/CodeSystem/observation-category","code":"vital-signs","display":"Vital Signs"}]}],"code":{"coding":[{"system":"http://loinc.org","code":"9843-4"}]},"subject":{"reference":"Patient/85cf0134-6297-4737-bc85-d37682267e49"},"effectiveDateTime":"2022-04-10T00:00:00+00:00","valueQuantity":{"value":9.7,"unit":"Inch","system":"http://unitsofmeasure.org","code":"[in_i]"}},"request":{"method":"POST","url":"Observation"}},{"fullUrl":"Observation/3313a7a6-5445-40a9-9541-09b465f70a04","resource":{"resourceType":"Observation","id":"3313a7a6-5445-40a9-9541-09b465f70a04","meta":{"profile":["http://hl7.org/fhir/us/core/StructureDefinition/us-core-head-circumference"]},"status":"final","category":[{"coding":[{"system":"http://terminology.hl7.org/CodeSystem/observation-category","code":"vital-signs","display":"Vital Signs"}]}],"code":{"coding":[{"system":"http://loinc.org","code":"9843-4"}]},"subject":{"reference":"Patient/85cf0134-6297-4737-bc85-d37682267e49"},"effectiveDateTime":"2022-07-18T00:00:00+00:00","valueQuantity":{"value":1.3,"unit":"Inch","system":"http://unitsofmeasure.org","code":"[in_i]"}},"request":{"method":"POST","url":"Observation"}},{"fullUrl":"Observation/3e1310a0-504c-40b7-9b65-17ab74e5308e","resource":{"resourceType":"Observation","id":"3e1310a0-504c-40b7-9b65-17ab74e5308e","meta":{"profile":["http://hl7.org/fhir/us/core/StructureDefinition/us-core-body-height"]},"status":"final","category":[{"coding":[{"system":"http://terminology.hl7.org/CodeSystem/observation-category","code":"vital-signs","display":"Vital Signs"}]}],"code":{"coding":[{"system":"http://loinc.org","code":"8302-2"}]},"subject":{"reference":"Patient/85cf0134-6297-4737-bc85-d37682267e49"},"effectiveDateTime":"2022-09-28T00:00:00+00:00","valueQuantity":{"value":65.3,"unit":"Inch","system":"http://unitsofmeasure.org","code":"[in_i]"}},"request":{"method":"POST","url":"Observation"}},{"fullUrl":"Observation/129d2d79-c0c8-4018-84b9-c78e2328b105","resource":{"resourceType":"Observation","id":"129d2d79-c0c8-4018-84b9-c78e2328b105","meta":{"profile":["http://hl7.org/fhir/us/core/StructureDefinition/us-core-body-weight"]},"status":"final","category":[{"coding":[{"system":"http://terminology.hl7.org/CodeSystem/observation-category","code":"vital-signs","display":"Vital Signs"}]}],"code":{"coding":[{"system":"http://loinc.org","code":"29463-7"}]},"subject":{"reference":"Patient/85cf0134-6297-4737-bc85-d37682267e49"},"effectiveDateTime":"2022-04-12T00:00:00+00:00","valueQuantity":{"value":131.81,"unit":"kilogram","system":"http://unitsofmeasure.org","code":"kg"}},"request":{"method":"POST","url":"Observation"}},{"fullUrl":"Observation/85ad8867-016a-486c-a815-953fbe6bb7cd","resource":{"resourceType":"Observation","id":"85ad8867-016a-486c-a815-953fbe6bb7cd","meta":{"profile":["http://hl7.org/fhir/us/core/StructureDefinition/us-core-body-temperature"]},"status":"final","category":[{"coding":[{"system":"http://terminology.hl7.org/CodeSystem/observation-category","code":"vital-signs","display":"Vital Signs"}]}],"code":{"coding":[{"system":"http://loinc.org","code":"8310-5"}]},"subject":{"reference":"Patient/85cf0134-6297-4737-bc85-d37682267e49"},"effectiveDateTime":"2022-02-04T00:00:00+00:00","valueQuantity":{"value":81.51,"unit":"Degrees Fahrenheit","system":"http://unitsofmeasure.org","code":"[degF]"}},"request":{"method":"POST","url":"Observation"}},{"fullUrl":"Observation/c51da76c-bf40-477b-b4c2-d3cee7806609","resource":{"resourceType":"Observation","id":"c51da76c-bf40-477b-b4c2-d3cee7806609","meta":{"profile":["http://hl7.org/fhir/us/core/StructureDefinition/us-core-body-temperature"]},"status":"final","category":[{"coding":[{"system":"http://terminology.hl7.org/CodeSystem/observation-category","code":"vital-signs","display":"Vital Signs"}]}],"code":{"coding":[{"system":"http://loinc.org","code":"8310-5"}]},"subject":{"reference":"Patient/85cf0134-6297-4737-bc85-d37682267e49"},"effectiveDateTime":"2022-12-23T00:00:00+00:00","valueQuantity":{"value":85.01,"unit":"Degrees Fahrenheit","system":"http://unitsofmeasure.org","code":"[degF]"}},"request":{"method":"POST","url":"Observation"}},{"fullUrl":"Observation/e201b270-1e14-4490-91d5-02fc1db36c25","resource":{"resourceType":"Observation","id":"e201b270-1e14-4490-91d5-02fc1db36c25","meta":{"profile":["http://hl7.org/fhir/us/core/StructureDefinition/us-core-heart-rate"]},"status":"final","category":[{"coding":[{"system":"http://terminology.hl7.org/CodeSystem/observation-category","code":"vital-signs","display":"Vital Signs"}]}],"code":{"coding":[{"system":"http://loinc.org","code":"8867-4"}]},"subject":{"reference":"Patient/85cf0134-6297-4737-bc85-d37682267e49"},"effectiveDateTime":"2022-03-29T00:00:00+00:00","valueQuantity":{"value":97.6,"unit":"Per Minute","system":"http://unitsofmeasure.org","code":"/min"}},"request":{"method":"POST","url":"Observation"}},{"fullUrl":"Observation/d34555b3-7cad-43ec-853b-8b4d73ea599c","resource":{"resourceType":"Observation","id":"d34555b3-7cad-43ec-853b-8b4d73ea599c","meta":{"profile":["http://hl7.org/fhir/us/core/StructureDefinition/us-core-heart-rate"]},"status":"final","category":[{"coding":[{"system":"http://terminology.hl7.org/CodeSystem/observation-category","code":"vital-signs","display":"Vital Signs"}]}],"code":{"coding":[{"system":"http://loinc.org","code":"8867-4"}]},"subject":{"reference":"Patient/85cf0134-6297-4737-bc85-d37682267e49"},"effectiveDateTime":"2022-02-28T00:00:00+00:00","valueQuantity":{"value":101.9,"unit":"Per Minute","system":"http://unitsofmeasure.org","code":"/min"}},"request":{"method":"POST","url":"Observation"}},{"fullUrl":"Patient/0cfc75e1-78a1-47bf-b531-033f0dc37063","resource":{"resourceType":"Patient","id":"0cfc75e1-78a1-47bf-b531-033f0dc37063","meta":{"profile":["http://hl7.org/fhir/us/core/StructureDefinition/us-core-patient"]},"extension":[{"extension":[{"url":"ombCategory","valueCoding":{"system":"urn:oid:2.16.840.1.113883.6.238","code":"1002-5","display":"American Indian or Alaska Native"}},{"url":"text","valueString":"American Indian or Alaska Native"}],"url":"http://hl7.org/fhir/us/core/StructureDefinition/us-core-race"},{"extension":[{"url":"ombCategory","valueCoding":{"system":"urn:oid:2.16.840.1.113883.6.238","code":"2186-5","display":"Non Hispanic or Latino"}},{"url":"text","valueString":"Non Hispanic or Latino"}],"url":"http://hl7.org/fhir/us/core/StructureDefinition/us-core-ethnicity"}],"identifier":[{"type":{"coding":[{"system":"http://terminology.hl7.org/CodeSystem/v2-0203","code":"MR"}]},"system":"urn:fhirgen:mrn","value":"165-27-8357"}],"name":[{"use":"official","family":"French","given":["Jason"]},{"use":"maiden","family":"Ryan"}],"telecom":[{"system":"phone","value":"(891)673-8591x985","use":"mobile"},{"system":"email","value":"haleywilliams@yahoo.com","use":"home"}],"gender":"male","birthDate":"1971-03-21","address":[{"use":"home","line":["83744 Kyle Avenue"],"city":"Matthewstad","state":"PA","postalCode":"12386"},{"use":"old","line":["0983 Allison Square"],"city":"South Sara","state":"TN","postalCode":"25485"}]},"request":{"method":"POST","url":"Patient"}},{"fullUrl":"Observation/87e6abe6-40f9-4376-8e10-0c4aa33ace07","resource":{"resourceType":"Observation","id":"87e6abe6-40f9-4376-8e10-0c4aa33ace07","meta":{"profile":["http://hl7.org/fhir/us/core/StructureDefinition/us-core-observation-lab"]},"status":"final","category":[{"coding":[{"system":"http://terminology.hl7.org/CodeSystem/observation-category","code":"laboratory","display":"Laboratory"}]}],"code":{"coding":[{"system":"http://loinc.org","code":"51475-2"}]},"subject":{"reference":"Patient/0cfc75e1-78a1-47bf-b531-033f0dc37063"},"effectiveDateTime":"2022-01-21T00:00:00+00:00","valueRatio":{"numerator":{"value":1},"denominator":{"value":4}}},"request":{"method":"POST","url":"Observation"}},{"fullUrl":"Observation/13577f1d-9bf1-4e9b-bac1-2a492910387f","resource":{"resourceType":"Observation","id":"13577f1d-9bf1-4e9b-bac1-2a492910387f","meta":{"profile":["http://hl7.org/fhir/us/core/StructureDefinition/us-core-observation-lab"]},"status":"final","category":[{"coding":[{"system":"http://terminology.hl7.org/CodeSystem/observation-category","code":"laboratory","display":"Laboratory"}]}],"code":{"coding":[{"system":"http://loinc.org","code":"22590-4"}]},"subject":{"reference":"Patient/0cfc75e1-78a1-47bf-b531-033f0dc37063"},"effectiveDateTime":"2022-08-10T00:00:00+00:00","valueRatio":{"numerator":{"value":1},"denominator":{"value":4}}},"request":{"method":"POST","url":"Observation"}},{"fullUrl":"Condition/825fc845-93ea-4f86-8bf0-9a53a7ce4d52","resource":{"resourceType":"Condition","id":"825fc845-93ea-4f86-8bf0-9a53a7ce4d52","meta":{"profile":["http://hl7.org/fhir/us/core/StructureDefinition/us-core-condition"]},"clinicalStatus":{"coding":[{"system":"http://terminology.hl7.org/CodeSystem/condition-clinical","code":"active","display":"Active"}]},"category":[{"coding":[{"system":"http://terminology.hl7.org/CodeSystem/condition-category","code":"problem-list-item"}]}],"code":{"coding":[{"system":"http://snomed.info/sct","code":"44882003"}]},"subject":{"reference":"Patient/0cfc75e1-78a1-47bf-b531-033f0dc37063"},"onsetDateTime":"2022-10-24T00:00:00+00:00"},"request":{"method":"POST","url":"Condition"}},{"fullUrl":"Condition/8b70d175-2514-4eb4-b005-b0f158b44a0f","resource":{"resourceType":"Condition","id":"8b70d175-2514-4eb4-b005-b0f158b44a0f","meta":{"profile":["http://hl7.org/fhir/us/core/StructureDefinition/us-core-condition"]},"clinicalStatus":{"coding":[{"system":"http://terminology.hl7.org/CodeSystem/condition-clinical","code":"active","display":"Active"}]},"category":[{"coding":[{"system":"http://terminology.hl7.org/CodeSystem/condition-category","code":"problem-list-item"}]}],"code":{"coding":[{"system":"http://snomed.info/sct","code":"44882003"}]},"subject":{"reference":"Patient/0cfc75e1-78a1-47bf-b531-033f0dc37063"},"onsetDateTime":"2022-12-26T00:00:00+00:00"},"request":{"method":"POST","url":"Condition"}},{"fullUrl":"Condition/c282cad0-f08a-48ba-a533-e5bad62ed3c1","resource":{"resourceType":"Condition","id":"c282cad0-f08a-48ba-a533-e5bad62ed3c1","meta":{"profile":["http://hl7.org/fhir/us/core/StructureDefinition/us-core-condition"]},"clinicalStatus":{"coding":[{"system":"http://terminology.hl7.org/CodeSystem/condition-clinical","code":"active","display":"Active"}]},"category":[{"coding":[{"system":"http://terminology.hl7.org/CodeSystem/condition-category","code":"problem-list-item"}]}],"code":{"coding":[{"system":"http://snomed.info/sct","code":"418290006"}]},"subject":{"reference":"Patient/0cfc75e1-78a1-47bf-b531-033f0dc37063"},"onsetDateTime":"2022-02-16T00:00:00+00:00"},"request":{"method":"POST","url":"Condition"}},{"fullUrl":"Condition/c21ac5fc-9610-462d-b829-a98c187480ef","resource":{"resourceType":"Condition","id":"c21ac5fc-9610-462d-b829-a98c187480ef","meta":{"profile":["http://hl7.org/fhir/us/core/StructureDefinition/us-core-condition"]},"clinicalStatus":{"coding":[{"system":"http://terminology.hl7.org/CodeSystem/condition-clinical","code":"active","display":"Active"}]},"category":[{"coding":[{"system":"http://terminology.hl7.org/CodeSystem/condition-category","code":"problem-list-item"}]}],"code":{"coding":[{"system":"http://snomed.info/sct","code":"418290006"}]},"subject":{"reference":"Patient/0cfc75e1-78a1-47bf-b531-033f0dc37063"},"onsetDateTime":"2022-09-02T00:00:00+00:00"},"request":{"method":"POST","url":"Condition"}},{"fullUrl":"Condition/8cb9cdc1-82f3-475a-ae58-697bb1b0a1fa","resource":{"resourceType":"Condition","id":"8cb9cdc1-82f3-475a-ae58-697bb1b0a1fa","meta":{"profile":["http://hl7.org/fhir/us/core/StructureDefinition/us-core-condition"]},"clinicalStatus":{"coding":[{"system":"http://terminology.hl7.org/CodeSystem/condition-clinical","code":"active","display":"Active"}]},"category":[{"coding":[{"system":"http://terminology.hl7.org/CodeSystem/condition-category","code":"problem-list-item"}]}],"code":{"coding":[{"system":"http://snomed.info/sct","code":"418290006"}]},"subject":{"reference":"Patient/0cfc75e1-78a1-47bf-b531-033f0dc37063"},"onsetDateTime":"2022-08-06T00:00:00+00:00"},"request":{"method":"POST","url":"Condition"}},{"fullUrl":"Condition/cdea29fe-fceb-4d75-9c2b-c62d3cbf6150","resource":{"resourceType":"Condition","id":"cdea29fe-fceb-4d75-9c2b-c62d3cbf6150","meta":{"profile":["http://hl7.org/fhir/us/core/StructureDefinition/us-core-condition"]},"clinicalStatus":{"coding":[{"system":"http://terminology.hl7.org/CodeSystem/condition-clinical","code":"active","display":"Active"}]},"category":[{"coding":[{"system":"http://terminology.hl7.org/CodeSystem/condition-category","code":"problem-list-item"}]}],"code":{"coding":[{"system":"http://snomed.info/sct","code":"418290006"}]},"subject":{"reference":"Patient/0cfc75e1-78a1-47bf-b531-033f0dc37063"},"onsetDateTime":"2022-01-11T00:00:00+00:00"},"request":{"method":"POST","url":"Condition"}},{"fullUrl":"Condition/f34f1e2b-beec-4424-9372-24713947ef28","resource":{"resourceType":"Condition","id":"f34f1e2b-beec-4424-9372-24713947ef28","meta":{"profile":["http://hl7.org/fhir/us/core/StructureDefinition/us-core-condition"]},"clinicalStatus":{"coding":[{"system":"http://terminology.hl7.org/CodeSystem/condition-clinical","code":"active","display":"Active"}]},"category":[{"coding":[{"system":"http://terminology.hl7.org/CodeSystem/condition-category","code":"problem-list-item"}]}],"code":{"coding":[{"system":"http://snomed.info/sct","code":"418290006"}]},"subject":{"reference":"Patient/0cfc75e1-78a1-47bf-b531-033f0dc37063"},"onsetDateTime":"2022-05-15T00:00:00+00:00"},"request":{"method":"POST","url":"Condition"}},{"fullUrl":"Condition/b45a3b45-c19c-4f7a-ad9b-b4776a3fa02e","resource":{"resourceType":"Condition","id":"b45a3b45-c19c-4f7a-ad9b-b4776a3fa02e","meta":{"profile":["http://hl7.org/fhir/us/core/StructureDefinition/us-core-condition"]},"clinicalStatus":{"coding":[{"system":"http://terminology.hl7.org/CodeSystem/condition-clinical","code":"active","display":"Active"}]},"category":[{"coding":[{"system":"http://terminology.hl7.org/CodeSystem/condition-category","code":"problem-list-item"}]}],"code":{"coding":[{"system":"http://snomed.info/sct","code":"44882003"}]},"subject":{"reference":"Patient/0cfc75e1-78a1-47bf-b531-033f0dc37063"},"onsetDateTime":"2022-10-06T00:00:00+00:00"},"request":{"method":"POST","url":"Condition"}},{"fullUrl":"Observation/01c0f4ab-ee1d-46ca-97b2-77a4333bb282","resource":{"resourceType":"Observation","id":"01c0f4ab-ee1d-46ca-97b2-77a4333bb282","meta":{"profile":["http://hl7.org/fhir/us/core/StructureDefinition/us-core-observation-lab"]},"status":"final","category":[{"coding":[{"system":"http://terminology.hl7.org/CodeSystem/observation-category","code":"laboratory","display":"Laboratory"}]}],"code":{"coding":[{"system":"http://loinc.org","code":"49498-9"}]},"subject":{"reference":"Patient/0cfc75e1-78a1-47bf-b531-033f0dc37063"},"effectiveDateTime":"2022-12-15T00:00:00+00:00","valueQuantity":{"value":8}},"request":{"method":"POST","url":"Observation"}},{"fullUrl":"Observation/37921b04-dada-4d87-92f5-42b48824d86a","resource":{"resourceType":"Observation","id":"37921b04-dada-4d87-92f5-42b48824d86a","meta":{"profile":["http://hl7.org/fhir/us/core/StructureDefinition/us-core-observation-lab"]},"status":"final","category":[{"coding":[{"system":"http://terminology.hl7.org/CodeSystem/observation-category","code":"laboratory","display":"Laboratory"}]}],"code":{"coding":[{"system":"http://loinc.org","code":"26464-8"}]},"subject":{"reference":"Patient/0cfc75e1-78a1-47bf-b531-033f0dc37063"},"effectiveDateTime":"2022-01-05T00:00:00+00:00","valueQuantity":{"value":7.5}},"request":{"method":"POST","url":"Observation"}},{"fullUrl":"Observation/242bd4c2-712c-4f41-88e5-24d5dab5dae2","resource":{"resourceType":"Observation","id":"242bd4c2-712c-4f41-88e5-24d5dab5dae2","meta":{"profile":["http://hl7.org/fhir/us/core/StructureDefinition/us-core-observation-lab"]},"status":"final","category":[{"coding":[{"system":"http://terminology.hl7.org/CodeSystem/observation-category","code":"laboratory","display":"Laboratory"}]}],"code":{"coding":[{"system":"http://loinc.org","code":"26464-8"}]},"subject":{"reference":"Patient/0cfc75e1-78a1-47bf-b531-033f0dc37063"},"effectiveDateTime":"2022-08-18T00:00:00+00:00","valueQuantity":{"value":4.7}},"request":{"method":"POST","url":"Observation"}},{"fullUrl":"Observation/896aade7-0172-4fe5-aab6-a38166e61e54","resource":{"resourceType":"Observation","id":"896aade7-0172-4fe5-aab6-a38166e61e54","meta":{"profile":["http://hl7.org/fhir/us/core/StructureDefinition/us-core-bmi"]},"status":"final","category":[{"coding":[{"system":"http://terminology.hl7.org/CodeSystem/observation-category","code":"vital-signs","display":"Vital Signs"}]}],"code":{"coding":[{"system":"http://loinc.org","code":"39156-5"}]},"subject":{"reference":"Patient/0cfc75e1-78a1-47bf-b531-033f0dc37063"},"effectiveDateTime":"2022-08-16T00:00:00+00:00","valueQuantity":{"value":18.36,"unit":"kg/m2","system":"http://unitsofmeasure.org","code":"kg/m2"}},"request":{"method":"POST","url":"Observation"}},{"fullUrl":"Observation/6f4e96f9-cd0d-48fc-8b31-98d3b78cdd30","resource":{"resourceType":"Observation","id":"6f4e96f9-cd0d-48fc-8b31-98d3b78cdd30","meta":{"profile":["http://hl7.org/fhir/us/core/StructureDefinition/us-core-bmi"]},"status":"final","category":[{"coding":[{"system":"http://terminology.hl7.org/CodeSystem/observation-category","code":"vital-signs","display":"Vital Signs"}]}],"code":{"coding":[{"system":"http://loinc.org","code":"39156-5"}]},"subject":{"reference":"Patient/0cfc75e1-78a1-47bf-b531-033f0dc37063"},"effectiveDateTime":"2022-07-06T00:00:00+00:00","valueQuantity":{"value":11.47,"unit":"kg/m2","system":"http://unitsofmeasure.org","code":"kg/m2"}},"request":{"method":"POST","url":"Observation"}},{"fullUrl":"Observation/fad5da56-4d82-4d61-9ca8-63ffcb72be4c","resource":{"resourceType":"Observation","id":"fad5da56-4d82-4d61-9ca8-63ffcb72be4c","meta":{"profile":["http://hl7.org/fhir/us/core/StructureDefinition/us-core-head-circumference"]},"status":"final","category":[{"coding":[{"system":"http://terminology.hl7.org/CodeSystem/observation-category","code":"vital-signs","display":"Vital Signs"}]}],"code":{"coding":[{"system":"http://loinc.org","code":"9843-4"}]},"subject":{"reference":"Patient/0cfc75e1-78a1-47bf-b531-033f0dc37063"},"effectiveDateTime":"2022-10-10T00:00:00+00:00","valueQuantity":{"value":7.7,"unit":"Inch","system":"http://unitsofmeasure.org","code":"[in_i]"}},"request":{"method":"POST","url":"Observation"}},{"fullUrl":"Observation/1d381e68-b979-49ea-a65d-0ba8efe97809","resource":{"resourceType":"Observation","id":"1d381e68-b979-49ea-a65d-0ba8efe97809","meta":{"profile":["http://hl7.org/fhir/us/core/StructureDefinition/us-core-body-height"]},"status":"final","category":[{"coding":[{"system":"http://terminology.hl7.org/CodeSystem/observation-category","code":"vital-signs","display":"Vital Signs"}]}],"code":{"coding":[{"system":"http://loinc.org","code":"8302-2"}]},"subject":{"reference":"Patient/0cfc75e1-78a1-47bf-b531-033f0dc37063"},"effectiveDateTime":"2022-12-03T00:00:00+00:00","valueQuantity":{"value":68.6,"unit":"Inch","system":"http://unitsofmeasure.org","code":"[in_i]"}},"request":{"method":"POST","url":"Observation"}},{"fullUrl":"Observation/15f7ccf2-cd55-4f7f-8026-9ba3353ced76","resource":{"resourceType":"Observation","id":"15f7ccf2-cd55-4f7f-8026-9ba3353ced76","meta":{"profile":["http://hl7.org/fhir/us/core/StructureDefinition/us-core-body-weight"]},"status":"final","category":[{"coding":[{"system":"http://terminology.hl7.org/CodeSystem/observation-category","code":"vital-signs","display":"Vital Signs"}]}],"code":{"coding":[{"system":"http://loinc.org","code":"29463-7"}]},"subject":{"reference":"Patient/0cfc75e1-78a1-47bf-b531-033f0dc37063"},"effectiveDateTime":"2022-04-01T00:00:00+00:00","valueQuantity":{"value":23.36,"unit":"kilogram","system":"http://unitsofmeasure.org","code":"kg"}},"request":{"method":"POST","url":"Observation"}},{"fullUrl":"Observation/bfc8a1e6-47fc-4991-87ad-33bd8dc9c605","resource":{"resourceType":"Observation","id":"bfc8a1e6-47fc-4991-87ad-33bd8dc9c605","meta":{"profile":["http://hl7.org/fhir/us/core/StructureDefinition/us-core-body-temperature"]},"status":"final","category":[{"coding":[{"system":"http://terminology.hl7.org/CodeSystem/observation-category","code":"vital-signs","display":"Vital Signs"}]}],"code":{"coding":[{"system":"http://loinc.org","code":"8310-5"}]},"subject":{"reference":"Patient/0cfc75e1-78a1-47bf-b531-033f0dc37063"},"effectiveDateTime":"2022-06-14T00:00:00+00:00","valueQuantity":{"value":141.79,"unit":"Degrees Fahrenheit","system":"http://unitsofmeasure.org","code":"[degF]"}},"request":{"method":"POST","url":"Observation"}},{"fullUrl":"Observation/576d13c5-94f6-4ae8-a933-ee95124c2689","resource":{"resourceType":"Observation","id":"576d13c5-94f6-4ae8-a933-ee95124c2689","meta":{"profile":["http://hl7.org/fhir/us/core/StructureDefinition/us-core-heart-rate"]},"status":"final","category":[{"coding":[{"system":"http://terminology.hl7.org/CodeSystem/observation-category","code":"vital-signs","display":"Vital Signs"}]}],"code":{"coding":[{"system":"http://loinc.org","code":"8867-4"}]},"subject":{"reference":"Patient/0cfc75e1-78a1-47bf-b531-033f0dc37063"},"effectiveDateTime":"2022-01-01T00:00:00+00:00","valueQuantity":{"value":100.7,"unit":"Per Minute","system":"http://unitsofmeasure.org","code":"/min"}},"request":{"method":"POST","url":"Observation"}},{"fullUrl":"Patient/b07c1ee1-6e0b-4989-9839-64aa9ad9f48a","resource":{"resourceType":"Patient","id":"b07c1ee1-6e0b-4989-9839-64aa9ad9f48a","meta":{"profile":["http://hl7.org/fhir/us/core/StructureDefinition/us-core-patient"]},"extension":[{"extension":[{"url":"ombCategory","valueCoding":{"system":"http://terminology.hl7.org/CodeSystem/v3-NullFlavor","code":"UNK","display":"unknown"}},{"url":"text","valueString":"unknown"}],"url":"http://hl7.org/fhir/us/core/StructureDefinition/us-core-race"},{"extension":[{"url":"ombCategory","valueCoding":{"system":"urn:oid:2.16.840.1.113883.6.238","code":"2135-2","display":"Hispanic or Latino"}},{"url":"text","valueString":"Hispanic or Latino"}],"url":"http://hl7.org/fhir/us/core/StructureDefinition/us-core-ethnicity"}],"identifier":[{"type":{"coding":[{"system":"http://terminology.hl7.org/CodeSystem/v2-0203","code":"MR"}]},"system":"urn:fhirgen:mrn","value":"838-43-7311"}],"name":[{"use":"official","family":"Ware","given":["Susan"]},{"use":"maiden","family":"Jenkins"}],"telecom":[{"system":"phone","value":"+1-905-114-5278x9180","use":"home"},{"system":"email","value":"davidharris@gmail.com","use":"home"}],"gender":"female","birthDate":"1981-12-21","address":[{"use":"home","line":["326 Laura Valley"],"city":"Glassmouth","state":"MI","postalCode":"74589"},{"use":"old","line":["6722 Michael Causeway"],"city":"Steelemouth","state":"NV","postalCode":"61412"}]},"request":{"method":"POST","url":"Patient"}},{"fullUrl":"Observation/139b6eec-3428-4551-bc9f-db67f7febdba","resource":{"resourceType":"Observation","id":"139b6eec-3428-4551-bc9f-db67f7febdba","meta":{"profile":["http://hl7.org/fhir/us/core/StructureDefinition/us-core-observation-lab"]},"status":"final","category":[{"coding":[{"system":"http://terminology.hl7.org/CodeSystem/observation-category","code":"laboratory","display":"Laboratory"}]}],"code":{"coding":[{"system":"http://loinc.org","code":"5394-2"}]},"subject":{"reference":"Patient/b07c1ee1-6e0b-4989-9839-64aa9ad9f48a"},"effectiveDateTime":"2022-04-16T00:00:00+00:00","valueRatio":{"numerator":{"value":1},"denominator":{"value":64}}},"request":{"method":"POST","url":"Observation"}},{"fullUrl":"Observation/e04b4e1c-4793-45d9-a9a9-180d90fb0908","resource":{"resourceType":"Observation","id":"e04b4e1c-4793-45d9-a9a9-180d90fb0908","meta":{"profile":["http://hl7.org/fhir/us/core/StructureDefinition/us-core-observation-lab"]},"status":"final","category":[{"coding":[{"system":"http://terminology.hl7.org/CodeSystem/observation-category","code":"laboratory","display":"Laboratory"}]}],"code":{"coding":[{"system":"http://loinc.org","code":"22590-4"}]},"subject":{"reference":"Patient/b07c1ee1-6e0b-4989-9839-64aa9ad9f48a"},"effectiveDateTime":"2022-10-21T00:00:00+00:00","valueRatio":{"numerator":{"value":1},"denominator":{"value":4}}},"request":{"method":"POST","url":"Observation"}},{"fullUrl":"Condition/d3fe804c-6ce5-4988-b6af-2cf36858c396","resource":{"resourceType":"Condition","id":"d3fe804c-6ce5-4988-b6af-2cf36858c396","meta":{"profile":["http://hl7.org/fhir/us/core/StructureDefinition/us-core-condition"]},"clinicalStatus":{"coding":[{"system":"http://terminology.hl7.org/CodeSystem/condition-clinical","code":"active","display":"Active"}]},"category":[{"coding":[{"system":"http://terminology.hl7.org/CodeSystem/condition-category","code":"problem-list-item"}]}],"code":{"coding":[{"system":"http://snomed.info/sct","code":"709977002"}]},"subject":{"reference":"Patient/b07c1ee1-6e0b-4989-9839-64aa9ad9f48a"},"onsetDateTime":"2022-08-06T00:00:00+00:00"},"request":{"method":"POST","url":"Condition"}},{"fullUrl":"Condition/d1fd9177-cb59-4e19-ace2-b28d1de25371","resource":{"resourceType":"Condition","id":"d1fd9177-cb59-4e19-ace2-b28d1de25371","meta":{"profile":["http://hl7.org/fhir/us/core/StructureDefinition/us-core-condition"]},"clinicalStatus":{"coding":[{"system":"http://terminology.hl7.org/CodeSystem/condition-clinical","code":"active","display":"Active"}]},"category":[{"coding":[{"system":"http://terminology.hl7.org/CodeSystem/condition-category","code":"problem-list-item"}]}],"code":{"coding":[{"system":"http://snomed.info/sct","code":"91554004"}]},"subject":{"reference":"Patient/b07c1ee1-6e0b-4989-9839-64aa9ad9f48a"},"onsetDateTime":"2022-09-12T00:00:00+00:00"},"request":{"method":"POST","url":"Condition"}},{"fullUrl":"Condition/58e2ba37-293b-47a2-b1e5-bdaad0efc558","resource":{"resourceType":"Condition","id":"58e2ba37-293b-47a2-b1e5-bdaad0efc558","meta":{"profile":["http://hl7.org/fhir/us/core/StructureDefinition/us-core-condition"]},"clinicalStatus":{"coding":[{"system":"http://terminology.hl7.org/CodeSystem/condition-clinical","code":"active","display":"Active"}]},"category":[{"coding":[{"system":"http://terminology.hl7.org/CodeSystem/condition-category","code":"problem-list-item"}]}],"code":{"coding":[{"system":"http://snomed.info/sct","code":"44882003"}]},"subject":{"reference":"Patient/b07c1ee1-6e0b-4989-9839-64aa9ad9f48a"},"onsetDateTime":"2022-12-29T00:00:00+00:00"},"request":{"method":"POST","url":"Condition"}},{"fullUrl":"Condition/a2d438d6-aeca-4fbc-924e-4caf0c99eb05","resource":{"resourceType":"Condition","id":"a2d438d6-aeca-4fbc-924e-4caf0c99eb05","meta":{"profile":["http://hl7.org/fhir/us/core/StructureDefinition/us-core-condition"]},"clinicalStatus":{"coding":[{"system":"http://terminology.hl7.org/CodeSystem/condition-clinical","code":"active","display":"Active"}]},"category":[{"coding":[{"system":"http://terminology.hl7.org/CodeSystem/condition-category","code":"problem-list-item"}]}],"code":{"coding":[{"system":"http://snomed.info/sct","code":"418290006"}]},"subject":{"reference":"Patient/b07c1ee1-6e0b-4989-9839-64aa9ad9f48a"},"onsetDateTime":"2022-12-07T00:00:00+00:00"},"request":{"method":"POST","url":"Condition"}},{"fullUrl":"Condition/8659d0c6-20ab-42b1-857d-d799953b2359","resource":{"resourceType":"Condition","id":"8659d0c6-20ab-42b1-857d-d799953b2359","meta":{"profile":["http://hl7.org/fhir/us/core/StructureDefinition/us-core-condition"]},"clinicalStatus":{"coding":[{"system":"http://terminology.hl7.org/CodeSystem/condition-clinical","code":"active","display":"Active"}]},"category":[{"coding":[{"system":"http://terminology.hl7.org/CodeSystem/condition-category","code":"problem-list-item"}]}],"code":{"coding":[{"system":"http://snomed.info/sct","code":"418290006"}]},"subject":{"reference":"Patient/b07c1ee1-6e0b-4989-9839-64aa9ad9f48a"},"onsetDateTime":"2022-04-02T00:00:00+00:00"},"request":{"method":"POST","url":"Condition"}},{"fullUrl":"Observation/8cf02b9b-e72f-47b5-b5a9-ccfe8c5f4480","resource":{"resourceType":"Observation","id":"8cf02b9b-e72f-47b5-b5a9-ccfe8c5f4480","meta":{"profile":["http://hl7.org/fhir/us/core/StructureDefinition/us-core-observation-lab"]},"status":"final","category":[{"coding":[{"system":"http://terminology.hl7.org/CodeSystem/observation-category","code":"laboratory","display":"Laboratory"}]}],"code":{"coding":[{"system":"http://loinc.org","code":"6690-2"}]},"subject":{"reference":"Patient/b07c1ee1-6e0b-4989-9839-64aa9ad9f48a"},"effectiveDateTime":"2022-11-24T00:00:00+00:00","valueQuantity":{"value":9.1}},"request":{"method":"POST","url":"Observation"}},{"fullUrl":"Observation/1beb767a-7a0b-4563-880d-9c155cddbfbd","resource":{"resourceType":"Observation","id":"1beb767a-7a0b-4563-880d-9c155cddbfbd","meta":{"profile":["http://hl7.org/fhir/us/core/StructureDefinition/us-core-observation-lab"]},"status":"final","category":[{"coding":[{"system":"http://terminology.hl7.org/CodeSystem/observation-category","code":"laboratory","display":"Laboratory"}]}],"code":{"coding":[{"system":"http://loinc.org","code":"26464-8"}]},"subject":{"reference":"Patient/b07c1ee1-6e0b-4989-9839-64aa9ad9f48a"},"effectiveDateTime":"2022-06-16T00:00:00+00:00","valueQuantity":{"value":5.6}},"request":{"method":"POST","url":"Observation"}},{"fullUrl":"Observation/b93a312a-9863-448e-a9f6-ac8aaf444aa9","resource":{"resourceType":"Observation","id":"b93a312a-9863-448e-a9f6-ac8aaf444aa9","meta":{"profile":["http://hl7.org/fhir/us/core/StructureDefinition/us-core-bmi"]},"status":"final","category":[{"coding":[{"system":"http://terminology.hl7.org/CodeSystem/observation-category","code":"vital-signs","display":"Vital Signs"}]}],"code":{"coding":[{"system":"http://loinc.org","code":"39156-5"}]},"subject":{"reference":"Patient/b07c1ee1-6e0b-4989-9839-64aa9ad9f48a"},"effectiveDateTime":"2022-08-17T00:00:00+00:00","valueQuantity":{"value":26.45,"unit":"kg/m2","system":"http://unitsofmeasure.org","code":"kg/m2"}},"request":{"method":"POST","url":"Observation"}},{"fullUrl":"Observation/fc47bfac-8f45-43f7-86cd-fabf8d67c82d","resource":{"resourceType":"Observation","id":"fc47bfac-8f45-43f7-86cd-fabf8d67c82d","meta":{"profile":["http://hl7.org/fhir/us/core/StructureDefinition/us-core-bmi"]},"status":"final","category":[{"coding":[{"system":"http://terminology.hl7.org/CodeSystem/observation-category","code":"vital-signs","display":"Vital Signs"}]}],"code":{"coding":[{"system":"http://loinc.org","code":"39156-5"}]},"subject":{"reference":"Patient/b07c1ee1-6e0b-4989-9839-64aa9ad9f48a"},"effectiveDateTime":"2022-04-30T00:00:00+00:00","valueQuantity":{"value":29.31,"unit":"kg/m2","system":"http://unitsofmeasure.org","code":"kg/m2"}},"request":{"method":"POST","url":"Observation"}},{"fullUrl":"Observation/df620656-5b59-4d08-a40d-e1a68dbf50ca","resource":{"resourceType":"Observation","id":"df620656-5b59-4d08-a40d-e1a68dbf50ca","meta":{"profile":["http://hl7.org/fhir/us/core/StructureDefinition/us-core-head-circumference"]},"status":"final","category":[{"coding":[{"system":"http://terminology.hl7.org/CodeSystem/observation-category","code":"vital-signs","display":"Vital Signs"}]}],"code":{"coding":[{"system":"http://loinc.org","code":"9843-4"}]},"subject":{"reference":"Patient/b07c1ee1-6e0b-4989-9839-64aa9ad9f48a"},"effectiveDateTime":"2022-12-08T00:00:00+00:00","valueQuantity":{"value":4,"unit":"Inch","system":"http://unitsofmeasure.org","code":"[in_i]"}},"request":{"method":"POST","url":"Observation"}},{"fullUrl":"Observation/32c5671c-95c0-4b1e-aa9e-254484c9bcdf","resource":{"resourceType":"Observation","id":"32c5671c-95c0-4b1e-aa9e-254484c9bcdf","meta":{"profile":["http://hl7.org/fhir/us/core/StructureDefinition/us-core-head-circumference"]},"status":"final","category":[{"coding":[{"system":"http://terminology.hl7.org/CodeSystem/observation-category","code":"vital-signs","display":"Vital Signs"}]}],"code":{"coding":[{"system":"http://loinc.org","code":"9843-4"}]},"subject":{"reference":"Patient/b07c1ee1-6e0b-4989-9839-64aa9ad9f48a"},"effectiveDateTime":"2022-12-22T00:00:00+00:00","valueQuantity":{"value":8.6,"unit":"Inch","system":"http://unitsofmeasure.org","code":"[in_i]"}},"request":{"method":"POST","url":"Observation"}},{"fullUrl":"Observation/6653d455-e629-44d9-90d8-a5a50ad480fd","resource":{"resourceType":"Observation","id":"6653d455-e629-44d9-90d8-a5a50ad480fd","meta":{"profile":["http://hl7.org/fhir/us/core/StructureDefinition/us-core-body-height"]},"status":"final","category":[{"coding":[{"system":"http://terminology.hl7.org/CodeSystem/observation-category","code":"vital-signs","display":"Vital Signs"}]}],"code":{"coding":[{"system":"http://loinc.org","code":"8302-2"}]},"subject":{"reference":"Patient/b07c1ee1-6e0b-4989-9839-64aa9ad9f48a"},"effectiveDateTime":"2022-07-17T00:00:00+00:00","valueQuantity":{"value":64.4,"unit":"Inch","system":"http://unitsofmeasure.org","code":"[in_i]"}},"request":{"method":"POST","url":"Observation"}},{"fullUrl":"Observation/0601e7bd-8caf-4beb-be88-28e6dcccc010","resource":{"resourceType":"Observation","id":"0601e7bd-8caf-4beb-be88-28e6dcccc010","meta":{"profile":["http://hl7.org/fhir/us/core/StructureDefinition/us-core-body-height"]},"status":"final","category":[{"coding":[{"system":"http://terminology.hl7.org/CodeSystem/observation-category","code":"vital-signs","display":"Vital Signs"}]}],"code":{"coding":[{"system":"http://loinc.org","code":"8302-2"}]},"subject":{"reference":"Patient/b07c1ee1-6e0b-4989-9839-64aa9ad9f48a"},"effectiveDateTime":"2022-11-26T00:00:00+00:00","valueQuantity":{"value":67.2,"unit":"Inch","system":"http://unitsofmeasure.org","code":"[in_i]"}},"request":{"method":"POST","url":"Observation"}},{"fullUrl":"Observation/753ff93d-f8f4-4ddd-93ae-8da1b317a0b0","resource":{"resourceType":"Observation","id":"753ff93d-f8f4-4ddd-93ae-8da1b317a0b0","meta":{"profile":["http://hl7.org/fhir/us/core/StructureDefinition/us-core-body-weight"]},"status":"final","category":[{"coding":[{"system":"http://terminology.hl7.org/CodeSystem/observation-category","code":"vital-signs","display":"Vital Signs"}]}],"code":{"coding":[{"system":"http://loinc.org","code":"29463-7"}]},"subject":{"reference":"Patient/b07c1ee1-6e0b-4989-9839-64aa9ad9f48a"},"effectiveDateTime":"2022-02-06T00:00:00+00:00","valueQuantity":{"value":38.51,"unit":"kilogram","system":"http://unitsofmeasure.org","code":"kg"}},"request":{"method":"POST","url":"Observation"}},{"fullUrl":"Observation/0e7ded3a-dd55-4deb-8ea0-ae3ff3ddf739","resource":{"resourceType":"Observation","id":"0e7ded3a-dd55-4deb-8ea0-ae3ff3ddf739","meta":{"profile":["http://hl7.org/fhir/us/core/StructureDefinition/us-core-body-temperature"]},"status":"final","category":[{"coding":[{"system":"http://terminology.hl7.org/CodeSystem/observation-category","code":"vital-signs","display":"Vital Signs"}]}],"code":{"coding":[{"system":"http://loinc.org","code":"8310-5"}]},"subject":{"reference":"Patient/b07c1ee1-6e0b-4989-9839-64aa9ad9f48a"},"effectiveDateTime":"2022-03-07T00:00:00+00:00","valueQuantity":{"value":25.93,"unit":"Degrees Fahrenheit","system":"http://unitsofmeasure.org","code":"[degF]"}},"request":{"method":"POST","url":"Observation"}},{"fullUrl":"Observation/7b937f23-249e-470f-b814-ed1ba6984418","resource":{"resourceType":"Observation","id":"7b937f23-249e-470f-b814-ed1ba6984418","meta":{"profile":["http://hl7.org/fhir/us/core/StructureDefinition/us-core-body-temperature"]},"status":"final","category":[{"coding":[{"system":"http://terminology.hl7.org/CodeSystem/observation-category","code":"vital-signs","display":"Vital Signs"}]}],"code":{"coding":[{"system":"http://loinc.org","code":"8310-5"}]},"subject":{"reference":"Patient/b07c1ee1-6e0b-4989-9839-64aa9ad9f48a"},"effectiveDateTime":"2022-05-05T00:00:00+00:00","valueQuantity":{"value":129.7,"unit":"Degrees Fahrenheit","system":"http://unitsofmeasure.org","code":"[degF]"}},"request":{"method":"POST","url":"Observation"}},{"fullUrl":"Observation/75f79cf5-c0f9-4cb8-8487-17685d16980c","resource":{"resourceType":"Observation","id":"75f79cf5-c0f9-4cb8-8487-17685d16980c","meta":{"profile":["http://hl7.org/fhir/us/core/StructureDefinition/us-core-heart-rate"]},"status":"final","category":[{"coding":[{"system":"http://terminology.hl7.org/CodeSystem/observation-category","code":"vital-signs","display":"Vital Signs"}]}],"code":{"coding":[{"system":"http://loinc.org","code":"8867-4"}]},"subject":{"reference":"Patient/b07c1ee1-6e0b-4989-9839-64aa9ad9f48a"},"effectiveDateTime":"2022-03-20T00:00:00+00:00","valueQuantity":{"value":97,"unit":"Per Minute","system":"http://unitsofmeasure.org","code":"/min"}},"request":{"method":"POST","url":"Observation"}},{"fullUrl":"Observation/bba8ff64-b7d3-4b41-bbb8-10130b8628a2","resource":{"resourceType":"Observation","id":"bba8ff64-b7d3-4b41-bbb8-10130b8628a2","meta":{"profile":["http://hl7.org/fhir/us/core/StructureDefinition/us-core-heart-rate"]},"status":"final","category":[{"coding":[{"system":"http://terminology.hl7.org/CodeSystem/observation-category","code":"vital-signs","display":"Vital Signs"}]}],"code":{"coding":[{"system":"http://loinc.org","code":"8867-4"}]},"subject":{"reference":"Patient/b07c1ee1-6e0b-4989-9839-64aa9ad9f48a"},"effectiveDateTime":"2022-08-24T00:00:00+00:00","valueQuantity":{"value":100.8,"unit":"Per Minute","system":"http://unitsofmeasure.org","code":"/min"}},"request":{"method":"POST","url":"Observation"}},{"fullUrl":"Patient/4ae16853-0cd0-4908-8064-7a7bb76b062c","resource":{"resourceType":"Patient","id":"4ae16853-0cd0-4908-8064-7a7bb76b062c","meta":{"profile":["http://hl7.org/fhir/us/core/StructureDefinition/us-core-patient"]},"extension":[{"extension":[{"url":"ombCategory","valueCoding":{"system":"http://terminology.hl7.org/CodeSystem/v3-NullFlavor","code":"ASKU","display":"asked but unknown"}},{"url":"text","valueString":"asked but unknown"}],"url":"http://hl7.org/fhir/us/core/StructureDefinition/us-core-race"},{"extension":[{"url":"ombCategory","valueCoding":{"system":"urn:oid:2.16.840.1.113883.6.238","code":"2135-2","display":"Hispanic or Latino"}},{"url":"text","valueString":"Hispanic or Latino"}],"url":"http://hl7.org/fhir/us/core/StructureDefinition/us-core-ethnicity"}],"identifier":[{"type":{"coding":[{"system":"http://terminology.hl7.org/CodeSystem/v2-0203","code":"MR"}]},"system":"urn:fhirgen:mrn","value":"113-04-9031"}],"name":[{"use":"official","family":"Perry","given":["Kathleen"]},{"use":"maiden","family":"Fernandez"}],"telecom":[{"system":"phone","value":"857.483.0271x9121","use":"mobile"},{"system":"email","value":"bhanson@hotmail.com","use":"work"}],"gender":"female","birthDate":"1962-05-29","address":[{"use":"home","line":["19436 Barber Crescent Suite 891"],"city":"Angelamouth","state":"WI","postalCode":"70693"},{"use":"old","line":["07577 Luke Wells"],"city":"Sullivantown","state":"CA","postalCode":"68258"}]},"request":{"method":"POST","url":"Patient"}},{"fullUrl":"Observation/e11a665a-aed7-426e-a5c9-5574ac211423","resource":{"resourceType":"Observation","id":"e11a665a-aed7-426e-a5c9-5574ac211423","meta":{"profile":["http://hl7.org/fhir/us/core/StructureDefinition/us-core-observation-lab"]},"status":"final","category":[{"coding":[{"system":"http://terminology.hl7.org/CodeSystem/observation-category","code":"laboratory","display":"Laboratory"}]}],"code":{"coding":[{"system":"http://loinc.org","code":"50695-6"}]},"subject":{"reference":"Patient/4ae16853-0cd0-4908-8064-7a7bb76b062c"},"effectiveDateTime":"2022-12-20T00:00:00+00:00","valueRatio":{"numerator":{"value":1},"denominator":{"value":4}}},"request":{"method":"POST","url":"Observation"}},{"fullUrl":"Observation/b3cea5c7-c046-431c-918e-5f738fabfda1","resource":{"resourceType":"Observation","id":"b3cea5c7-c046-431c-918e-5f738fabfda1","meta":{"profile":["http://hl7.org/fhir/us/core/StructureDefinition/us-core-observation-lab"]},"status":"final","category":[{"coding":[{"system":"http://terminology.hl7.org/CodeSystem/observation-category","code":"laboratory","display":"Laboratory"}]}],"code":{"coding":[{"system":"http://loinc.org","code":"47235-7"}]},"subject":{"reference":"Patient/4ae16853-0cd0-4908-8064-7a7bb76b062c"},"effectiveDateTime":"2022-03-29T00:00:00+00:00","valueRatio":{"numerator":{"value":1},"denominator":{"value":4}}},"request":{"method":"POST","url":"Observation"}},{"fullUrl":"Observation/c5d9eb52-4f24-4707-8c77-3b9e191644ea","resource":{"resourceType":"Observation","id":"c5d9eb52-4f24-4707-8c77-3b9e191644ea","meta":{"profile":["http://hl7.org/fhir/us/core/StructureDefinition/us-core-observation-lab"]},"status":"final","category":[{"coding":[{"system":"http://terminology.hl7.org/CodeSystem/observation-category","code":"laboratory","display":"Laboratory"}]}],"code":{"coding":[{"system":"http://loinc.org","code":"50695-6"}]},"subject":{"reference":"Patient/4ae16853-0cd0-4908-8064-7a7bb76b062c"},"effectiveDateTime":"2022-07-23T00:00:00+00:00","valueRatio":{"numerator":{"value":1},"denominator":{"value":32}}},"request":{"method":"POST","url":"Observation"}},{"fullUrl":"Condition/3e3b125d-b698-4feb-aca4-4dede2ded17a","resource":{"resourceType":"Condition","id":"3e3b125d-b698-4feb-aca4-4dede2ded17a","meta":{"profile":["http://hl7.org/fhir/us/core/StructureDefinition/us-core-condition"]},"clinicalStatus":{"coding":[{"system":"http://terminology.hl7.org/CodeSystem/condition-clinical","code":"active","display":"Active"}]},"category":[{"coding":[{"system":"http://terminology.hl7.org/CodeSystem/condition-category","code":"problem-list-item"}]}],"code":{"coding":[{"system":"http://snomed.info/sct","code":"709977002"}]},"subject":{"reference":"Patient/4ae16853-0cd0-4908-8064-7a7bb76b062c"},"onsetDateTime":"2022-04-15T00:00:00+00:00"},"request":{"method":"POST","url":"Condition"}},{"fullUrl":"Condition/4b209ffe-930c-40f0-931b-1d58a1680f4e","resource":{"resourceType":"Condition","id":"4b209ffe-930c-40f0-931b-1d58a1680f4e","meta":{"profile":["http://hl7.org/fhir/us/core/StructureDefinition/us-core-condition"]},"clinicalStatus":{"coding":[{"system":"http://terminology.hl7.org/CodeSystem/condition-clinical","code":"active","display":"Active"}]},"category":[{"coding":[{"system":"http://terminology.hl7.org/CodeSystem/condition-category","code":"problem-list-item"}]}],"code":{"coding":[{"system":"http://snomed.info/sct","code":"44882003"}]},"subject":{"reference":"Patient/4ae16853-0cd0-4908-8064-7a7bb76b062c"},"onsetDateTime":"2022-05-09T00:00:00+00:00"},"request":{"method":"POST","url":"Condition"}},{"fullUrl":"Condition/1925bed8-0221-4095-a06a-afcc074d57a8","resource":{"resourceType":"Condition","id":"1925bed8-0221-4095-a06a-afcc074d57a8","meta":{"profile":["http://hl7.org/fhir/us/core/StructureDefinition/us-core-condition"]},"clinicalStatus":{"coding":[{"system":"http://terminology.hl7.org/CodeSystem/condition-clinical","code":"active","display":"Active"}]},"category":[{"coding":[{"system":"http://terminology.hl7.org/CodeSystem/condition-category","code":"problem-list-item"}]}],"code":{"coding":[{"system":"http://snomed.info/sct","code":"418290006"}]},"subject":{"reference":"Patient/4ae16853-0cd0-4908-8064-7a7bb76b062c"},"onsetDateTime":"2022-04-11T00:00:00+00:00"},"request":{"method":"POST","url":"Condition"}},{"fullUrl":"Observation/10a876c5-4ef9-4aa5-b148-c6857fb66b4d","resource":{"resourceType":"Observation","id":"10a876c5-4ef9-4aa5-b148-c6857fb66b4d","meta":{"profile":["http://hl7.org/fhir/us/core/StructureDefinition/us-core-observation-lab"]},"status":"final","category":[{"coding":[{"system":"http://terminology.hl7.org/CodeSystem/observation-category","code":"laboratory","display":"Laboratory"}]}],"code":{"coding":[{"system":"http://loinc.org","code":"6690-2"}]},"subject":{"reference":"Patient/4ae16853-0cd0-4908-8064-7a7bb76b062c"},"effectiveDateTime":"2022-07-03T00:00:00+00:00","valueQuantity":{"value":6.7}},"request":{"method":"POST","url":"Observation"}},{"fullUrl":"Observation/e14c3455-526c-4578-8207-a54d2c9ff98d","resource":{"resourceType":"Observation","id":"e14c3455-526c-4578-8207-a54d2c9ff98d","meta":{"profile":["http://hl7.org/fhir/us/core/StructureDefinition/us-core-observation-lab"]},"status":"final","category":[{"coding":[{"system":"http://terminology.hl7.org/CodeSystem/observation-category","code":"laboratory","display":"Laboratory"}]}],"code":{"coding":[{"system":"http://loinc.org","code":"804-5"}]},"subject":{"reference":"Patient/4ae16853-0cd0-4908-8064-7a7bb76b062c"},"effectiveDateTime":"2022-11-20T00:00:00+00:00","valueQuantity":{"value":4.3}},"request":{"method":"POST","url":"Observation"}},{"fullUrl":"Observation/25fba14c-090c-4ca2-aaa1-2cff3bf21709","resource":{"resourceType":"Observation","id":"25fba14c-090c-4ca2-aaa1-2cff3bf21709","meta":{"profile":["http://hl7.org/fhir/us/core/StructureDefinition/us-core-bmi"]},"status":"final","category":[{"coding":[{"system":"http://terminology.hl7.org/CodeSystem/observation-category","code":"vital-signs","display":"Vital Signs"}]}],"code":{"coding":[{"system":"http://loinc.org","code":"39156-5"}]},"subject":{"reference":"Patient/4ae16853-0cd0-4908-8064-7a7bb76b062c"},"effectiveDateTime":"2022-10-21T00:00:00+00:00","valueQuantity":{"value":17.34,"unit":"kg/m2","system":"http://unitsofmeasure.org","code":"kg/m2"}},"request":{"method":"POST","url":"Observation"}},{"fullUrl":"Observation/6773646c-7790-47c3-b945-4fb4d86ecce9","resource":{"resourceType":"Observation","id":"6773646c-7790-47c3-b945-4fb4d86ecce9","meta":{"profile":["http://hl7.org/fhir/us/core/StructureDefinition/us-core-bmi"]},"status":"final","category":[{"coding":[{"system":"http://terminology.hl7.org/CodeSystem/observation-category","code":"vital-signs","display":"Vital Signs"}]}],"code":{"coding":[{"system":"http://loinc.org","code":"39156-5"}]},"subject":{"reference":"Patient/4ae16853-0cd0-4908-8064-7a7bb76b062c"},"effectiveDateTime":"2022-07-06T00:00:00+00:00","valueQuantity":{"value":17.59,"unit":"kg/m2","system":"http://unitsofmeasure.org","code":"kg/m2"}},"request":{"method":"POST","url":"Observation"}},{"fullUrl":"Observation/708379e9-a0c6-4922-b945-f11df8e2dc95","resource":{"resourceType":"Observation","id":"708379e9-a0c6-4922-b945-f11df8e2dc95","meta":{"profile":["http://hl7.org/fhir/us/core/StructureDefinition/us-core-head-circumference"]},"status":"final","category":[{"coding":[{"system":"http://terminology.hl7.org/CodeSystem/observation-category","code":"vital-signs","display":"Vital Signs"}]}],"code":{"coding":[{"system":"http://loinc.org","code":"9843-4"}]},"subject":{"reference":"Patient/4ae16853-0cd0-4908-8064-7a7bb76b062c"},"effectiveDateTime":"2022-03-13T00:00:00+00:00","valueQuantity":{"value":6.8,"unit":"Inch","system":"http://unitsofmeasure.org","code":"[in_i]"}},"request":{"method":"POST","url":"Observation"}},{"fullUrl":"Observation/306a80af-f485-48b2-aa8a-043cf033371f","resource":{"resourceType":"Observation","id":"306a80af-f485-48b2-aa8a-043cf033371f","meta":{"profile":["http://hl7.org/fhir/us/core/StructureDefinition/us-core-body-height"]},"status":"final","category":[{"coding":[{"system":"http://terminology.hl7.org/CodeSystem/observation-category","code":"vital-signs","display":"Vital Signs"}]}],"code":{"coding":[{"system":"http://loinc.org","code":"8302-2"}]},"subject":{"reference":"Patient/4ae16853-0cd0-4908-8064-7a7bb76b062c"},"effectiveDateTime":"2022-10-14T00:00:00+00:00","valueQuantity":{"value":73.8,"unit":"Inch","system":"http://unitsofmeasure.org","code":"[in_i]"}},"request":{"method":"POST","url":"Observation"}},{"fullUrl":"Observation/7a8a2730-9b34-404c-b3c2-6faaab823e09","resource":{"resourceType":"Observation","id":"7a8a2730-9b34-404c-b3c2-6faaab823e09","meta":{"profile":["http://hl7.org/fhir/us/core/StructureDefinition/us-core-body-height"]},"status":"final","category":[{"coding":[{"system":"http://terminology.hl7.org/CodeSystem/observation-category","code":"vital-signs","display":"Vital Signs"}]}],"code":{"coding":[{"system":"http://loinc.org","code":"8302-2"}]},"subject":{"reference":"Patient/4ae16853-0cd0-4908-8064-7a7bb76b062c"},"effectiveDateTime":"2022-12-01T00:00:00+00:00","valueQuantity":{"value":65.1,"unit":"Inch","system":"http://unitsofmeasure.org","code":"[in_i]"}},"request":{"method":"POST","url":"Observation"}},{"fullUrl":"Observation/fe382f42-0708-41f4-a695-f977820545fa","resource":{"resourceType":"Observation","id":"fe382f42-0708-41f4-a695-f977820545fa","meta":{"profile":["http://hl7.org/fhir/us/core/StructureDefinition/us-core-body-weight"]},"status":"final","category":[{"coding":[{"system":"http://terminology.hl7.org/CodeSystem/observation-category","code":"vital-signs","display":"Vital Signs"}]}],"code":{"coding":[{"system":"http://loinc.org","code":"29463-7"}]},"subject":{"reference":"Patient/4ae16853-0cd0-4908-8064-7a7bb76b062c"},"effectiveDateTime":"2022-09-17T00:00:00+00:00","valueQuantity":{"value":107.24,"unit":"kilogram","system":"http://unitsofmeasure.org","code":"kg"}},"request":{"method":"POST","url":"Observation"}},{"fullUrl":"Observation/5cbbabd3-b623-45bf-9674-a049920830b8","resource":{"resourceType":"Observation","id":"5cbbabd3-b623-45bf-9674-a049920830b8","meta":{"profile":["http://hl7.org/fhir/us/core/StructureDefinition/us-core-body-temperature"]},"status":"final","category":[{"coding":[{"system":"http://terminology.hl7.org/CodeSystem/observation-category","code":"vital-signs","display":"Vital Signs"}]}],"code":{"coding":[{"system":"http://loinc.org","code":"8310-5"}]},"subject":{"reference":"Patient/4ae16853-0cd0-4908-8064-7a7bb76b062c"},"effectiveDateTime":"2022-08-15T00:00:00+00:00","valueQuantity":{"value":71.72,"unit":"Degrees Fahrenheit","system":"http://unitsofmeasure.org","code":"[degF]"}},"request":{"method":"POST","url":"Observation"}},{"fullUrl":"Observation/a781bcf7-497d-4ca5-a500-ec05055adc52","resource":{"resourceType":"Observation","id":"a781bcf7-497d-4ca5-a500-ec05055adc52","meta":{"profile":["http://hl7.org/fhir/us/core/StructureDefinition/us-core-body-temperature"]},"status":"final","category":[{"coding":[{"system":"http://terminology.hl7.org/CodeSystem/observation-category","code":"vital-signs","display":"Vital Signs"}]}],"code":{"coding":[{"system":"http://loinc.org","code":"8310-5"}]},"subject":{"reference":"Patient/4ae16853-0cd0-4908-8064-7a7bb76b062c"},"effectiveDateTime":"2022-07-19T00:00:00+00:00","valueQuantity":{"value":127.52,"unit":"Degrees Fahrenheit","system":"http://unitsofmeasure.org","code":"[degF]"}},"request":{"method":"POST","url":"Observation"}},{"fullUrl":"Observation/f4bfe15d-2432-408d-aec0-bfcdf21167cf","resource":{"resourceType":"Observation","id":"f4bfe15d-2432-408d-aec0-bfcdf21167cf","meta":{"profile":["http://hl7.org/fhir/us/core/StructureDefinition/us-core-heart-rate"]},"status":"final","category":[{"coding":[{"system":"http://terminology.hl7.org/CodeSystem/observation-category","code":"vital-signs","display":"Vital Signs"}]}],"code":{"coding":[{"system":"http://loinc.org","code":"8867-4"}]},"subject":{"reference":"Patient/4ae16853-0cd0-4908-8064-7a7bb76b062c"},"effectiveDateTime":"2022-10-12T00:00:00+00:00","valueQuantity":{"value":101,"unit":"Per Minute","system":"http://unitsofmeasure.org","code":"/min"}},"request":{"method":"POST","url":"Observation"}},{"fullUrl":"Observation/4706e16a-c428-417a-a1e0-ba444f176223","resource":{"resourceType":"Observation","id":"4706e16a-c428-417a-a1e0-ba444f176223","meta":{"profile":["http://hl7.org/fhir/us/core/StructureDefinition/us-core-heart-rate"]},"status":"final","category":[{"coding":[{"system":"http://terminology.hl7.org/CodeSystem/observation-category","code":"vital-signs","display":"Vital Signs"}]}],"code":{"coding":[{"system":"http://loinc.org","code":"8867-4"}]},"subject":{"reference":"Patient/4ae16853-0cd0-4908-8064-7a7bb76b062c"},"effectiveDateTime":"2022-12-13T00:00:00+00:00","valueQuantity":{"value":99.8,"unit":"Per Minute","system":"http://unitsofmeasure.org","code":"/min"}},"request":{"method":"POST","url":"Observation"}},{"fullUrl":"Patient/08de439a-f897-4e2c-8d52-cd38602c6762","resource":{"resourceType":"Patient","id":"08de439a-f897-4e2c-8d52-cd38602c6762","meta":{"profile":["http://hl7.org/fhir/us/core/StructureDefinition/us-core-patient"]},"extension":[{"extension":[{"url":"ombCategory","valueCoding":{"system":"urn:oid:2.16.840.1.113883.6.238","code":"1002-5","display":"American Indian or Alaska Native"}},{"url":"text","valueString":"American Indian or Alaska Native"}],"url":"http://hl7.org/fhir/us/core/StructureDefinition/us-core-race"},{"extension":[{"url":"ombCategory","valueCoding":{"system":"urn:oid:2.16.840.1.113883.6.238","code":"2186-5","display":"Non Hispanic or Latino"}},{"url":"text","valueString":"Non Hispanic or Latino"}],"url":"http://hl7.org/fhir/us/core/StructureDefinition/us-core-ethnicity"}],"identifier":[{"type":{"coding":[{"system":"http://terminology.hl7.org/CodeSystem/v2-0203","code":"MR"}]},"system":"urn:fhirgen:mrn","value":"864-50-9880"}],"name":[{"use":"official","family":"Park","given":["Paul"]},{"use":"maiden","family":"Foster"}],"telecom":[{"system":"phone","value":"435-922-3125x357","use":"mobile"},{"system":"email","value":"meganlee@yahoo.com","use":"home"}],"gender":"other","birthDate":"1988-11-05","address":[{"use":"home","line":["42418 Jerry Roads Apt. 969"],"city":"South Gerald","state":"AZ","postalCode":"65164"},{"use":"old","line":["7019 Brown Manor"],"city":"Port Jermaineside","state":"CO","postalCode":"82725"}]},"request":{"method":"POST","url":"Patient"}},{"fullUrl":"Observation/627e16cd-6c51-492e-b036-f33d5f77f11c","resource":{"resourceType":"Observation","id":"627e16cd-6c51-492e-b036-f33d5f77f11c","meta":{"profile":["http://hl7.org/fhir/us/core/StructureDefinition/us-core-observation-lab"]},"status":"final","category":[{"coding":[{"system":"http://terminology.hl7.org/CodeSystem/observation-category","code":"laboratory","display":"Laboratory"}]}],"code":{"coding":[{"system":"http://loinc.org","code":"47476-7"}]},"subject":{"reference":"Patient/08de439a-f897-4e2c-8d52-cd38602c6762"},"effectiveDateTime":"2022-07-25T00:00:00+00:00","valueRatio":{"numerator":{"value":1},"denominator":{"value":64}}},"request":{"method":"POST","url":"Observation"}},{"fullUrl":"Observation/066a8e28-7121-4e03-93ea-3f83a2f3653a","resource":{"resourceType":"Observation","id":"066a8e28-7121-4e03-93ea-3f83a2f3653a","meta":{"profile":["http://hl7.org/fhir/us/core/StructureDefinition/us-core-observation-lab"]},"status":"final","category":[{"coding":[{"system":"http://terminology.hl7.org/CodeSystem/observation-category","code":"laboratory","display":"Laboratory"}]}],"code":{"coding":[{"system":"http://loinc.org","code":"50695-6"}]},"subject":{"reference":"Patient/08de439a-f897-4e2c-8d52-cd38602c6762"},"effectiveDateTime":"2022-09-09T00:00:00+00:00","valueRatio":{"numerator":{"value":1},"denominator":{"value":64}}},"request":{"method":"POST","url":"Observation"}},{"fullUrl":"Condition/4747944b-7a93-4728-92e6-a12505308e2c","resource":{"resourceType":"Condition","id":"4747944b-7a93-4728-92e6-a12505308e2c","meta":{"profile":["http://hl7.org/fhir/us/core/StructureDefinition/us-core-condition"]},"clinicalStatus":{"coding":[{"system":"http://terminology.hl7.org/CodeSystem/condition-clinical","code":"active","display":"Active"}]},"category":[{"coding":[{"system":"http://terminology.hl7.org/CodeSystem/condition-category","code":"problem-list-item"}]}],"code":{"coding":[{"system":"http://snomed.info/sct","code":"418290006"}]},"subject":{"reference":"Patient/08de439a-f897-4e2c-8d52-cd38602c6762"},"onsetDateTime":"2022-10-30T00:00:00+00:00"},"request":{"method":"POST","url":"Condition"}},{"fullUrl":"Condition/aec08572-9315-44ba-a016-33b8054b2b82","resource":{"resourceType":"Condition","id":"aec08572-9315-44ba-a016-33b8054b2b82","meta":{"profile":["http://hl7.org/fhir/us/core/StructureDefinition/us-core-condition"]},"clinicalStatus":{"coding":[{"system":"http://terminology.hl7.org/CodeSystem/condition-clinical","code":"active","display":"Active"}]},"category":[{"coding":[{"system":"http://terminology.hl7.org/CodeSystem/condition-category","code":"problem-list-item"}]}],"code":{"coding":[{"system":"http://snomed.info/sct","code":"418290006"}]},"subject":{"reference":"Patient/08de439a-f897-4e2c-8d52-cd38602c6762"},"onsetDateTime":"2022-07-21T00:00:00+00:00"},"request":{"method":"POST","url":"Condition"}},{"fullUrl":"Condition/0ff9161a-c775-423b-8a4f-e65ed74642c7","resource":{"resourceType":"Condition","id":"0ff9161a-c775-423b-8a4f-e65ed74642c7","meta":{"profile":["http://hl7.org/fhir/us/core/StructureDefinition/us-core-condition"]},"clinicalStatus":{"coding":[{"system":"http://terminology.hl7.org/CodeSystem/condition-clinical","code":"active","display":"Active"}]},"category":[{"coding":[{"system":"http://terminology.hl7.org/CodeSystem/condition-category","code":"problem-list-item"}]}],"code":{"coding":[{"system":"http://snomed.info/sct","code":"44882003"}]},"subject":{"reference":"Patient/08de439a-f897-4e2c-8d52-cd38602c6762"},"onsetDateTime":"2022-12-13T00:00:00+00:00"},"request":{"method":"POST","url":"Condition"}},{"fullUrl":"Condition/4eb5f52e-c81a-4897-9c8e-abe4b85c0671","resource":{"resourceType":"Condition","id":"4eb5f52e-c81a-4897-9c8e-abe4b85c0671","meta":{"profile":["http://hl7.org/fhir/us/core/StructureDefinition/us-core-condition"]},"clinicalStatus":{"coding":[{"system":"http://terminology.hl7.org/CodeSystem/condition-clinical","code":"active","display":"Active"}]},"category":[{"coding":[{"system":"http://terminology.hl7.org/CodeSystem/condition-category","code":"problem-list-item"}]}],"code":{"coding":[{"system":"http://snomed.info/sct","code":"44882003"}]},"subject":{"reference":"Patient/08de439a-f897-4e2c-8d52-cd38602c6762"},"onsetDateTime":"2022-01-02T00:00:00+00:00"},"request":{"method":"POST","url":"Condition"}},{"fullUrl":"Condition/295de00c-6a2e-4db2-9157-e7241cca8454","resource":{"resourceType":"Condition","id":"295de00c-6a2e-4db2-9157-e7241cca8454","meta":{"profile":["http://hl7.org/fhir/us/core/StructureDefinition/us-core-condition"]},"clinicalStatus":{"coding":[{"system":"http://terminology.hl7.org/CodeSystem/condition-clinical","code":"active","display":"Active"}]},"category":[{"coding":[{"system":"http://terminology.hl7.org/CodeSystem/condition-category","code":"problem-list-item"}]}],"code":{"coding":[{"system":"http://snomed.info/sct","code":"709977002"}]},"subject":{"reference":"Patient/08de439a-f897-4e2c-8d52-cd38602c6762"},"onsetDateTime":"2022-09-16T00:00:00+00:00"},"request":{"method":"POST","url":"Condition"}},{"fullUrl":"Observation/bc65bfe6-bda8-44b7-8633-2998bd33bea9","resource":{"resourceType":"Observation","id":"bc65bfe6-bda8-44b7-8633-2998bd33bea9","meta":{"profile":["http://hl7.org/fhir/us/core/StructureDefinition/us-core-observation-lab"]},"status":"final","category":[{"coding":[{"system":"http://terminology.hl7.org/CodeSystem/observation-category","code":"laboratory","display":"Laboratory"}]}],"code":{"coding":[{"system":"http://loinc.org","code":"49498-9"}]},"subject":{"reference":"Patient/08de439a-f897-4e2c-8d52-cd38602c6762"},"effectiveDateTime":"2022-10-14T00:00:00+00:00","valueQuantity":{"value":5.7}},"request":{"method":"POST","url":"Observation"}},{"fullUrl":"Observation/e2b83691-720d-4f09-8584-9620687e01fc","resource":{"resourceType":"Observation","id":"e2b83691-720d-4f09-8584-9620687e01fc","meta":{"profile":["http://hl7.org/fhir/us/core/StructureDefinition/us-core-observation-lab"]},"status":"final","category":[{"coding":[{"system":"http://terminology.hl7.org/CodeSystem/observation-category","code":"laboratory","display":"Laboratory"}]}],"code":{"coding":[{"system":"http://loinc.org","code":"26464-8"}]},"subject":{"reference":"Patient/08de439a-f897-4e2c-8d52-cd38602c6762"},"effectiveDateTime":"2022-08-22T00:00:00+00:00","valueQuantity":{"value":9}},"request":{"method":"POST","url":"Observation"}},{"fullUrl":"Observation/a64e812c-46f1-41be-9bee-8e67fb50ad5c","resource":{"resourceType":"Observation","id":"a64e812c-46f1-41be-9bee-8e67fb50ad5c","meta":{"profile":["http://hl7.org/fhir/us/core/StructureDefinition/us-core-bmi"]},"status":"final","category":[{"coding":[{"system":"http://terminology.hl7.org/CodeSystem/observation-category","code":"vital-signs","display":"Vital Signs"}]}],"code":{"coding":[{"system":"http://loinc.org","code":"39156-5"}]},"subject":{"reference":"Patient/08de439a-f897-4e2c-8d52-cd38602c6762"},"effectiveDateTime":"2022-12-10T00:00:00+00:00","valueQuantity":{"value":10.96,"unit":"kg/m2","system":"http://unitsofmeasure.org","code":"kg/m2"}},"request":{"method":"POST","url":"Observation"}},{"fullUrl":"Observation/41a229e4-6165-4193-a18c-2686346d1c37","resource":{"resourceType":"Observation","id":"41a229e4-6165-4193-a18c-2686346d1c37","meta":{"profile":["http://hl7.org/fhir/us/core/StructureDefinition/us-core-bmi"]},"status":"final","category":[{"coding":[{"system":"http://terminology.hl7.org/CodeSystem/observation-category","code":"vital-signs","display":"Vital Signs"}]}],"code":{"coding":[{"system":"http://loinc.org","code":"39156-5"}]},"subject":{"reference":"Patient/08de439a-f897-4e2c-8d52-cd38602c6762"},"effectiveDateTime":"2022-07-23T00:00:00+00:00","valueQuantity":{"value":17.51,"unit":"kg/m2","system":"http://unitsofmeasure.org","code":"kg/m2"}},"request":{"method":"POST","url":"Observation"}},{"fullUrl":"Observation/38180404-c885-4a3b-a308-a51b6021b7a9","resource":{"resourceType":"Observation","id":"38180404-c885-4a3b-a308-a51b6021b7a9","meta":{"profile":["http://hl7.org/fhir/us/core/StructureDefinition/us-core-head-circumference"]},"status":"final","category":[{"coding":[{"system":"http://terminology.hl7.org/CodeSystem/observation-category","code":"vital-signs","display":"Vital Signs"}]}],"code":{"coding":[{"system":"http://loinc.org","code":"9843-4"}]},"subject":{"reference":"Patient/08de439a-f897-4e2c-8d52-cd38602c6762"},"effectiveDateTime":"2022-12-29T00:00:00+00:00","valueQuantity":{"value":9.7,"unit":"Inch","system":"http://unitsofmeasure.org","code":"[in_i]"}},"request":{"method":"POST","url":"Observation"}},{"fullUrl":"Observation/8ef2b0d3-2ed0-4a82-9b36-9f3f269542aa","resource":{"resourceType":"Observation","id":"8ef2b0d3-2ed0-4a82-9b36-9f3f269542aa","meta":{"profile":["http://hl7.org/fhir/us/core/StructureDefinition/us-core-head-circumference"]},"status":"final","category":[{"coding":[{"system":"http://terminology.hl7.org/CodeSystem/observation-category","code":"vital-signs","display":"Vital Signs"}]}],"code":{"coding":[{"system":"http://loinc.org","code":"9843-4"}]},"subject":{"reference":"Patient/08de439a-f897-4e2c-8d52-cd38602c6762"},"effectiveDateTime":"2022-07-22T00:00:00+00:00","valueQuantity":{"value":3.6,"unit":"Inch","system":"http://unitsofmeasure.org","code":"[in_i]"}},"request":{"method":"POST","url":"Observation"}},{"fullUrl":"Observation/0a2f52f2-431c-4671-b72c-487b5108c31e","resource":{"resourceType":"Observation","id":"0a2f52f2-431c-4671-b72c-487b5108c31e","meta":{"profile":["http://hl7.org/fhir/us/core/StructureDefinition/us-core-body-height"]},"status":"final","category":[{"coding":[{"system":"http://terminology.hl7.org/CodeSystem/observation-category","code":"vital-signs","display":"Vital Signs"}]}],"code":{"coding":[{"system":"http://loinc.org","code":"8302-2"}]},"subject":{"reference":"Patient/08de439a-f897-4e2c-8d52-cd38602c6762"},"effectiveDateTime":"2022-11-01T00:00:00+00:00","valueQuantity":{"value":74.5,"unit":"Inch","system":"http://unitsofmeasure.org","code":"[in_i]"}},"request":{"method":"POST","url":"Observation"}},{"fullUrl":"Observation/2386c70f-9eae-4e95-add0-6c299f8f89c6","resource":{"resourceType":"Observation","id":"2386c70f-9eae-4e95-add0-6c299f8f89c6","meta":{"profile":["http://hl7.org/fhir/us/core/StructureDefinition/us-core-body-weight"]},"status":"final","category":[{"coding":[{"system":"http://terminology.hl7.org/CodeSystem/observation-category","code":"vital-signs","display":"Vital Signs"}]}],"code":{"coding":[{"system":"http://loinc.org","code":"29463-7"}]},"subject":{"reference":"Patient/08de439a-f897-4e2c-8d52-cd38602c6762"},"effectiveDateTime":"2022-03-08T00:00:00+00:00","valueQuantity":{"value":88.2,"unit":"kilogram","system":"http://unitsofmeasure.org","code":"kg"}},"request":{"method":"POST","url":"Observation"}},{"fullUrl":"Observation/8abdf214-44f3-4fea-bf6c-8c96c5538b4f","resource":{"resourceType":"Observation","id":"8abdf214-44f3-4fea-bf6c-8c96c5538b4f","meta":{"profile":["http://hl7.org/fhir/us/core/StructureDefinition/us-core-body-weight"]},"status":"final","category":[{"coding":[{"system":"http://terminology.hl7.org/CodeSystem/observation-category","code":"vital-signs","display":"Vital Signs"}]}],"code":{"coding":[{"system":"http://loinc.org","code":"29463-7"}]},"subject":{"reference":"Patient/08de439a-f897-4e2c-8d52-cd38602c6762"},"effectiveDateTime":"2022-12-31T00:00:00+00:00","valueQuantity":{"value":106,"unit":"kilogram","system":"http://unitsofmeasure.org","code":"kg"}},"request":{"method":"POST","url":"Observation"}},{"fullUrl":"Observation/e7fb79e2-8793-4139-bc57-705685d87499","resource":{"resourceType":"Observation","id":"e7fb79e2-8793-4139-bc57-705685d87499","meta":{"profile":["http://hl7.org/fhir/us/core/StructureDefinition/us-core-body-temperature"]},"status":"final","category":[{"coding":[{"system":"http://terminology.hl7.org/CodeSystem/observation-category","code":"vital-signs","display":"Vital Signs"}]}],"code":{"coding":[{"system":"http://loinc.org","code":"8310-5"}]},"subject":{"reference":"Patient/08de439a-f897-4e2c-8d52-cd38602c6762"},"effectiveDateTime":"2022-12-28T00:00:00+00:00","valueQuantity":{"value":129.33,"unit":"Degrees Fahrenheit","system":"http://unitsofmeasure.org","code":"[degF]"}},"request":{"method":"POST","url":"Observation"}},{"fullUrl":"Observation/65a2e60d-bad1-4f78-bc48-b07462f1eb07","resource":{"resourceType":"Observation","id":"65a2e60d-bad1-4f78-bc48-b07462f1eb07","meta":{"profile":["http://hl7.org/fhir/us/core/StructureDefinition/us-core-body-temperature"]},"status":"final","category":[{"coding":[{"system":"http://terminology.hl7.org/CodeSystem/observation-category","code":"vital-signs","display":"Vital Signs"}]}],"code":{"coding":[{"system":"http://loinc.org","code":"8310-5"}]},"subject":{"reference":"Patient/08de439a-f897-4e2c-8d52-cd38602c6762"},"effectiveDateTime":"2022-05-17T00:00:00+00:00","valueQuantity":{"value":94.78,"unit":"Degrees Fahrenheit","system":"http://unitsofmeasure.org","code":"[degF]"}},"request":{"method":"POST","url":"Observation"}},{"fullUrl":"Observation/f6904c47-b930-4cd7-8ad9-f570e1795716","resource":{"resourceType":"Observation","id":"f6904c47-b930-4cd7-8ad9-f570e1795716","meta":{"profile":["http://hl7.org/fhir/us/core/StructureDefinition/us-core-heart-rate"]},"status":"final","category":[{"coding":[{"system":"http://terminology.hl7.org/CodeSystem/observation-category","code":"vital-signs","display":"Vital Signs"}]}],"code":{"coding":[{"system":"http://loinc.org","code":"8867-4"}]},"subject":{"reference":"Patient/08de439a-f897-4e2c-8d52-cd38602c6762"},"effectiveDateTime":"2022-02-23T00:00:00+00:00","valueQuantity":{"value":98.9,"unit":"Per Minute","system":"http://unitsofmeasure.org","code":"/min"}},"request":{"method":"POST","url":"Observation"}}]}