{"resourceType":"Bundle","id":"30c1e569-27a2-477c-b88e-ca7a864a8e8b","type":"transaction","entry":[{"fullUrl":"Patient/6f3e34ad-e2a9-4fb5-a9c4-d783dc4beab6","resource":{"resourceType":"Patient","id":"6f3e34ad-e2a9-4fb5-a9c4-d783dc4beab6","identifier":[{"type":{"coding":[{"system":"http://terminology.hl7.org/CodeSystem/v2-0203","code":"MR"}]},"system":"urn:fhirgen:mrn","value":"730-29-7857"},{"system":"http://hl7.org/fhir/sid/us-ssn","value":"098-08-1809"}],"name":[{"use":"official","family":"Holland","given":["Robert"]},{"use":"maiden","family":"Gonzalez"}],"telecom":[{"system":"phone","value":"(238)302-4517","use":"work"},{"system":"email","value":"rebeccasandoval@gmail.com","use":"work"}],"gender":"male","birthDate":"1994-08-16","address":[{"use":"home","line":["619 Thomas Ferry"],"city":"Navarroport","state":"AZ","postalCode":"27733"},{"use":"old","line":["0376 Melissa Club Apt. 050"],"city":"South Crystal","state":"WY","postalCode":"41759"}],"maritalStatus":{"coding":[{"system":"http://terminology.hl7.org/CodeSystem/v3-MaritalStatus","code":"L","display":"Legally Separated"}]}},"request":{"method":"POST","url":"Patient"}},{"fullUrl":"Observation/e89eb120-b569-4222-a3d9-2b3d0aafd8e3","resource":{"resourceType":"Observation","id":"e89eb120-b569-4222-a3d9-2b3d0aafd8e3","status":"final","code":{"coding":[{"system":"http://loinc.org","code":"87925-4"}]},"subject":{"reference":"Patient/6f3e34ad-e2a9-4fb5-a9c4-d783dc4beab6"},"effectiveDateTime":"2022-07-19T00:00:00+00:00","valueRatio":{"numerator":{"value":1},"denominator":{"value":4}}},"request":{"method":"POST","url":"Observation"}},{"fullUrl":"Observation/41aeb5eb-634b-49a1-b74b-6df86efd94b6","resource":{"resourceType":"Observation","id":"41aeb5eb-634b-49a1-b74b-6df86efd94b6","status":"final","code":{"coding":[{"system":"http://loinc.org","code":"46203-6"}]},"subject":{"reference":"Patient/6f3e34ad-e2a9-4fb5-a9c4-d783dc4beab6"},"effectiveDateTime":"2022-12-05T00:00:00+00:00","valueRatio":{"numerator":{"value":1},"denominator":{"value":32}}},"request":{"method":"POST","url":"Observation"}},{"fullUrl":"Observation/41b963df-81ca-4d78-83d1-38afa151d761","resource":{"resourceType":"Observation","id":"41b963df-81ca-4d78-83d1-38afa151d761","status":"final","code":{"coding":[{"system":"http://loinc.org","code":"71793-4"}]},"subject":{"reference":"Patient/6f3e34ad-e2a9-4fb5-a9c4-d783dc4beab6"},"effectiveDateTime":"2022-06-14T00:00:00+00:00","valueRatio":{"numerator":{"value":1},"denominator":{"value":4}}},"request":{"method":"POST","url":"Observation"}},{"fullUrl":"Condition/b9f4247b-4b1f-4678-8737-0ee0f6036908","resource":{"resourceType":"Condition","id":"b9f4247b-4b1f-4678-8737-0ee0f6036908","code":{"coding":[{"system":"http://snomed.info/sct","code":"271939006"}]},"subject":{"reference":"Patient/6f3e34ad-e2a9-4fb5-a9c4-d783dc4beab6"},"onsetDateTime":"2022-07-15T00:00:00+00:00"},"request":{"method":"POST","url":"Condition"}},{"fullUrl":"Condition/5ee66699-c117-4526-8273-ba4643c54094","resource":{"resourceType":"Condition","id":"5ee66699-c117-4526-8273-ba4643c54094","code":{"coding":[{"system":"http://snomed.info/sct","code":"271807003"}]},"subject":{"reference":"Patient/6f3e34ad-e2a9-4fb5-a9c4-d783dc4beab6"},"onsetDateTime":"2022-09-13T00:00:00+00:00"},"request":{"method":"POST","url":"Condition"}},{"fullUrl":"Condition/2066389f-4ad6-4a35-91a8-7d422c088d81","resource":{"resourceType":"Condition","id":"2066389f-4ad6-4a35-91a8-7d422c088d81","code":{"coding":[{"system":"http://snomed.info/sct","code":"56317004"}]},"subject":{"reference":"Patient/6f3e34ad-e2a9-4fb5-a9c4-d783dc4beab6"},"onsetDateTime":"2022-11-05T00:00:00+00:00"},"request":{"method":"POST","url":"Condition"}},{"fullUrl":"Condition/640ac99f-f0e1-4d29-a895-885cb3cc7c2a","resource":{"resourceType":"Condition","id":"640ac99f-f0e1-4d29-a895-885cb3cc7c2a","code":{"coding":[{"system":"http://snomed.info/sct","code":"297123002"}]},"subject":{"reference":"Patient/6f3e34ad-e2a9-4fb5-a9c4-d783dc4beab6"},"onsetDateTime":"2022-04-10T00:00:00+00:00"},"request":{"method":"POST","url":"Condition"}},{"fullUrl":"Condition/cc9a219e-4469-44d3-b56c-b504a0331fc5","resource":{"resourceType":"Condition","id":"cc9a219e-4469-44d3-b56c-b504a0331fc5","code":{"coding":[{"system":"http://snomed.info/sct","code":"21522001"}]},"subject":{"reference":"Patient/6f3e34ad-e2a9-4fb5-a9c4-d783dc4beab6"},"onsetDateTime":"2022-12-05T00:00:00+00:00"},"request":{"method":"POST","url":"Condition"}},{"fullUrl":"Condition/5c139545-41a6-43bb-b309-1e50d9170418","resource":{"resourceType":"Condition","id":"5c139545-41a6-43bb-b309-1e50d9170418","code":{"coding":[{"system":"http://snomed.info/sct","code":"405737000"}]},"subject":{"reference":"Patient/6f3e34ad-e2a9-4fb5-a9c4-d783dc4beab6"},"onsetDateTime":"2022-03-30T00:00:00+00:00"},"request":{"method":"POST","url":"Condition"}},{"fullUrl":"Observation/a633d2ac-8c4a-453f-824a-34be23be1ea7","resource":{"resourceType":"Observation","id":"a633d2ac-8c4a-453f-824a-34be23be1ea7","status":"final","code":{"coding":[{"system":"http://loinc.org","code":"804-5"}]},"subject":{"reference":"Patient/6f3e34ad-e2a9-4fb5-a9c4-d783dc4beab6"},"effectiveDateTime":"2022-12-09T00:00:00+00:00","valueQuantity":{"value":4.9}},"request":{"method":"POST","url":"Observation"}},{"fullUrl":"Observation/cee72e9e-fc01-4b77-82c9-19bc4e8f60ec","resource":{"resourceType":"Observation","id":"cee72e9e-fc01-4b77-82c9-19bc4e8f60ec","status":"final","code":{"coding":[{"system":"http://loinc.org","code":"26464-8"}]},"subject":{"reference":"Patient/6f3e34ad-e2a9-4fb5-a9c4-d783dc4beab6"},"effectiveDateTime":"2022-07-26T00:00:00+00:00","valueQuantity":{"value":9.4}},"request":{"method":"POST","url":"Observation"}},{"fullUrl":"Observation/73cc6a2a-0621-4ff0-9a2b-477ac539ac15","resource":{"resourceType":"Observation","id":"73cc6a2a-0621-4ff0-9a2b-477ac539ac15","status":"final","code":{"coding":[{"system":"http://www.ama-assn.org/go/cpt","code":"85048"}]},"subject":{"reference":"Patient/6f3e34ad-e2a9-4fb5-a9c4-d783dc4beab6"},"effectiveDateTime":"2022-01-05T00:00:00+00:00","valueCodeableConcept":{"coding":[{"system":"snomed","code":"123456","display":"fake snomed"}]}},"request":{"method":"POST","url":"Observation"}},{"fullUrl":"Observation/7ba59c4c-0f54-48b3-9074-0dbac9c2b7de","resource":{"resourceType":"Observation","id":"7ba59c4c-0f54-48b3-9074-0dbac9c2b7de","status":"final","code":{"coding":[{"system":"http://www.ama-assn.org/go/cpt","code":"85048"}]},"subject":{"reference":"Patient/6f3e34ad-e2a9-4fb5-a9c4-d783dc4beab6"},"effectiveDateTime":"2022-02-10T00:00:00+00:00","valueCodeableConcept":{"coding":[{"system":"snomed","code":"123456","display":"fake snomed"}]}},"request":{"method":"POST","url":"Observation"}},{"fullUrl":"Observation/c29c4f3f-9488-4d56-b05d-4861926638ea","resource":{"resourceType":"Observation","id":"c29c4f3f-9488-4d56-b05d-4861926638ea","status":"final","code":{"coding":[{"system":"http://loinc.org","code":"49498-9"}]},"subject":{"reference":"Patient/6f3e34ad-e2a9-4fb5-a9c4-d783dc4beab6"},"effectiveDateTime":"2022-07-13T00:00:00+00:00"},"request":{"method":"POST","url":"Observation"}},{"fullUrl":"Observation/80f375b5-8761-4f3f-b864-f32d047a2554","resource":{"resourceType":"Observation","id":"80f375b5-8761-4f3f-b864-f32d047a2554","status":"final","code":{"coding":[{"system":"http://loinc.org","code":"49498-9"}]},"subject":{"reference":"Patient/6f3e34ad-e2a9-4fb5-a9c4-d783dc4beab6"},"effectiveDateTime":"2022-12-28T00:00:00+00:00"},"request":{"method":"POST","url":"Observation"}},{"fullUrl":"Procedure/1de93a14-cb0f-4238-84a7-b850cc2250cb","resource":{"resourceType":"Procedure","id":"1de93a14-cb0f-4238-84a7-b850cc2250cb","status":"completed","code":{"coding":[{"system":"http://snomed.info/sct","code":"647000"}]},"subject":{"reference":"Patient/6f3e34ad-e2a9-4fb5-a9c4-d783dc4beab6"},"performedDateTime":"2022-12-26T00:00:00+00:00"},"request":{"method":"POST","url":"Procedure"}},{"fullUrl":"Procedure/7e386dce-bf88-4727-a559-2654fc1da550","resource":{"resourceType":"Procedure","id":"7e386dce-bf88-4727-a559-2654fc1da550","status":"completed","code":{"coding":[{"system":"http://snomed.info/sct","code":"115006"}]},"subject":{"reference":"Patient/6f3e34ad-e2a9-4fb5-a9c4-d783dc4beab6"},"performedDateTime":"2022-11-14T00:00:00+00:00"},"request":{"method":"POST","url":"Procedure"}},{"fullUrl":"Procedure/fcaab3a3-0ad4-4441-9eff-89a577560179","resource":{"resourceType":"Procedure","id":"fcaab3a3-0ad4-4441-9eff-89a577560179","status":"completed","code":{"coding":[{"system":"http://snomed.info/sct","code":"115006"}]},"subject":{"reference":"Patient/6f3e34ad-e2a9-4fb5-a9c4-d783dc4beab6"},"performedDateTime":"2022-09-26T00:00:00+00:00"},"request":{"method":"POST","url":"Procedure"}},{"fullUrl":"MedicationStatement/52a341c5-59f4-4537-bc9f-4102c3854362","resource":{"resourceType":"MedicationStatement","id":"52a341c5-59f4-4537-bc9f-4102c3854362","status":"completed","medicationCodeableConcept":{"coding":[{"system":"http://www.nlm.nih.gov/research/umls/rxnorm","code":"8698"}]},"subject":{"reference":"Patient/6f3e34ad-e2a9-4fb5-a9c4-d783dc4beab6"},"effectiveDateTime":"2022-01-29T00:00:00+00:00","dosage":[{"doseAndRate":[{"doseQuantity":{"value":2,"unit":"TAB","system":"http://terminology.hl7.org/CodeSystem/v3-orderableDrugForm","code":"TAB"}}]}]},"request":{"method":"POST","url":"MedicationStatement"}},{"fullUrl":"MedicationStatement/eb817ed2-7ce5-40be-98cf-f2d74c53119d","resource":{"resourceType":"MedicationStatement","id":"eb817ed2-7ce5-40be-98cf-f2d74c53119d","status":"completed","medicationCodeableConcept":{"coding":[{"system":"http://www.nlm.nih.gov/research/umls/rxnorm","code":"3640"}]},"subject":{"reference":"Patient/6f3e34ad-e2a9-4fb5-a9c4-d783dc4beab6"},"effectiveDateTime":"2022-07-11T00:00:00+00:00","dosage":[{"doseAndRate":[{"doseQuantity":{"value":2,"unit":"TAB","system":"http://terminology.hl7.org/CodeSystem/v3-orderableDrugForm","code":"TAB"}}]}]},"request":{"method":"POST","url":"MedicationStatement"}},{"fullUrl":"MedicationStatement/de91552b-45df-4bf8-a622-814690b83640","resource":{"resourceType":"MedicationStatement","id":"de91552b-45df-4bf8-a622-814690b83640","status":"completed","medicationCodeableConcept":{"coding":[{"system":"http://www.nlm.nih.gov/research/umls/rxnorm","code":"3640"}]},"subject":{"reference":"Patient/6f3e34ad-e2a9-4fb5-a9c4-d783dc4beab6"},"effectiveDateTime":"2022-08-13T00:00:00+00:00","dosage":[{"doseAndRate":[{"doseQuantity":{"value":1,"unit":"TAB","system":"http://terminology.hl7.org/CodeSystem/v3-orderableDrugForm","code":"TAB"}}]}]},"request":{"method":"POST","url":"MedicationStatement"}},{"fullUrl":"MedicationStatement/87ff7cd1-ffad-4bde-978f-d15e90fd28ae","resource":{"resourceType":"MedicationStatement","id":"87ff7cd1-ffad-4bde-978f-d15e90fd28ae","status":"completed","medicationCodeableConcept":{"coding":[{"system":"http://www.nlm.nih.gov/research/umls/rxnorm","code":"7984"}]},"subject":{"reference":"Patient/6f3e34ad-e2a9-4fb5-a9c4-d783dc4beab6"},"effectiveDateTime":"2022-07-10T00:00:00+00:00","dosage":[{"doseAndRate":[{"doseQuantity":{"value":2,"unit":"TAB","system":"http://terminology.hl7.org/CodeSystem/v3-orderableDrugForm","code":"TAB"}}]}]},"request":{"method":"POST","url":"MedicationStatement"}},{"fullUrl":"MedicationStatement/06b567a0-5ac7-4359-a27e-9c258d9e0a92","resource":{"resourceType":"MedicationStatement","id":"06b567a0-5ac7-4359-a27e-9c258d9e0a92","status":"completed","medicationCodeableConcept":{"coding":[{"system":"http://www.nlm.nih.gov/research/umls/rxnorm","code":"8698"}]},"subject":{"reference":"Patient/6f3e34ad-e2a9-4fb5-a9c4-d783dc4beab6"},"effectiveDateTime":"2022-08-08T00:00:00+00:00","dosage":[{"doseAndRate":[{"doseQuantity":{"value":6.8,"unit":"TAB","system":"http://terminology.hl7.org/CodeSystem/v3-orderableDrugForm","code":"TAB"}}]}]},"request":{"method":"POST","url":"MedicationStatement"}},{"fullUrl":"Encounter/9c74a3bb-4a2e-4bfb-af12-6f0f6614a643","resource":{"resourceType":"Encounter","id":"9c74a3bb-4a2e-4bfb-af12-6f0f6614a643","status":"finished","class":{"system":"http://terminology.hl7.org/CodeSystem/v3-ActCode","code":"IMP","display":"inpatient encounter"},"type":[{"coding":[{"system":"http://terminology.hl7.org/CodeSystem/encounter-type","code":"OKI"}]}],"subject":{"reference":"Patient/6f3e34ad-e2a9-4fb5-a9c4-d783dc4beab6"},"period":{"start":"2022-08-27T00:00:00+00:00","end":"2022-08-27T00:00:00+00:00"}},"request":{"method":"POST","url":"Encounter"}},{"fullUrl":"Encounter/fbb8c84e-f775-4855-8888-cdd6df445cb0","resource":{"resourceType":"Encounter","id":"fbb8c84e-f775-4855-8888-cdd6df445cb0","status":"finished","class":{"system":"http://terminology.hl7.org/CodeSystem/v3-ActCode","code":"IMP","display":"inpatient encounter"},"type":[{"coding":[{"system":"http://terminology.hl7.org/CodeSystem/encounter-type","code":"ADMS"}]}],"subject":{"reference":"Patient/6f3e34ad-e2a9-4fb5-a9c4-d783dc4beab6"},"period":{"start":"2022-03-29T00:00:00+00:00","end":"2022-04-07T00:00:00+00:00"}},"request":{"method":"POST","url":"Encounter"}},{"fullUrl":"Encounter/f44f6307-df49-4576-8b84-8e3a34709441","resource":{"resourceType":"Encounter","id":"f44f6307-df49-4576-8b84-8e3a34709441","status":"finished","class":{"system":"http://terminology.hl7.org/CodeSystem/v3-ActCode","code":"IMP","display":"inpatient encounter"},"type":[{"coding":[{"system":"http://terminology.hl7.org/CodeSystem/encounter-type","code":"BD/BM-clin"}]}],"subject":{"reference":"Patient/6f3e34ad-e2a9-4fb5-a9c4-d783dc4beab6"},"period":{"start":"2022-04-11T00:00:00+00:00","end":"2022-04-18T00:00:00+00:00"}},"request":{"method":"POST","url":"Encounter"}},{"fullUrl":"Encounter/78f57498-5016-4345-923a-9d74c4b63153","resource":{"resourceType":"Encounter","id":"78f57498-5016-4345-923a-9d74c4b63153","status":"finished","class":{"system":"http://terminology.hl7.org/CodeSystem/v3-ActCode","code":"VR","display":"virtual"},"type":[{"coding":[{"system":"http://terminology.hl7.org/CodeSystem/encounter-type","code":"OKI"}]}],"subject":{"reference":"Patient/6f3e34ad-e2a9-4fb5-a9c4-d783dc4beab6"},"period":{"start":"2022-12-31T00:00:00+00:00","end":"2023-01-06T00:00:00+00:00"}},"request":{"method":"POST","url":"Encounter"}},{"fullUrl":"Encounter/3fac2a71-6ef3-4416-8612-9f289b3f7576","resource":{"resourceType":"Encounter","id":"3fac2a71-6ef3-4416-8612-9f289b3f7576","status":"finished","class":{"system":"http://terminology.hl7.org/CodeSystem/v3-ActCode","code":"ACUTE","display":"inpatient acute"},"type":[{"coding":[{"system":"http://terminology.hl7.org/CodeSystem/encounter-type","code":"CCS60"}]}],"subject":{"reference":"Patient/6f3e34ad-e2a9-4fb5-a9c4-d783dc4beab6"},"period":{"start":"2022-06-14T00:00:00+00:00","end":"2022-06-15T00:00:00+00:00"}},"request":{"method":"POST","url":"Encounter"}},{"fullUrl":"Encounter/0f24e9e5-b416-4b44-80ce-bb58ddc0ebd5","resource":{"resourceType":"Encounter","id":"0f24e9e5-b416-4b44-80ce-bb58ddc0ebd5","status":"finished","class":{"system":"http://terminology.hl7.org/CodeSystem/v3-ActCode","code":"FLD","display":"field"},"type":[{"coding":[{"system":"http://terminology.hl7.org/CodeSystem/encounter-type","code":"OKI"}]}],"subject":{"reference":"Patient/6f3e34ad-e2a9-4fb5-a9c4-d783dc4beab6"},"period":{"start":"2022-02-24T00:00:00+00:00","end":"2022-02-24T00:00:00+00:00"}},"request":{"method":"POST","url":"Encounter"}},{"fullUrl":"Location/f3df140e-b587-4311-9ae4-098c500b4d60","resource":{"resourceType":"Location","id":"f3df140e-b587-4311-9ae4-098c500b4d60","status":"active","name":"Spencer LLC","telecom":[{"system":"phone","value":"136.901.9221","use":"mobile"}],"address":{"use":"work","line":["688 Justin Knolls"],"city":"Amandaton","state":"WA","postalCode":"43220"}},"request":{"method":"POST","url":"Location"}},{"fullUrl":"Observation/fc264acf-c25b-4072-a20f-2da406fb1b90","resource":{"resourceType":"Observation","id":"fc264acf-c25b-4072-a20f-2da406fb1b90","status":"final","code":{"coding":[{"system":"http://loinc.org","code":"81956-5"}]},"subject":{"reference":"Patient/6f3e34ad-e2a9-4fb5-a9c4-d783dc4beab6"},"effectiveDateTime":"2022-03-06T00:00:00+00:00","valueDateTime":"2021-12-14T00:00:00+00:00"},"request":{"method":"POST","url":"Observation"}},{"fullUrl":"Patient/b86f6155-eeed-4c8c-97de-6fca71fd3438","resource":{"resourceType":"Patient","id":"b86f6155-eeed-4c8c-97de-6fca71fd3438","identifier":[{"type":{"coding":[{"system":"http://terminology.hl7.org/CodeSystem/v2-0203","code":"MR"}]},"system":"urn:fhirgen:mrn","value":"122-93-4305"},{"system":"http://hl7.org/fhir/sid/us-ssn","value":"751-14-3220"}],"name":[{"use":"official","family":"Vaughn","given":["Robert"]},{"use":"maiden","family":"Cox"}],"telecom":[{"system":"phone","value":"824.875.6184","use":"work"},{"system":"email","value":"brandonclark@yahoo.com","use":"work"}],"gender":"male","birthDate":"2003-03-11","address":[{"use":"home","line":["687 Leah Fall"],"city":"Michaelbury","state":"NE","postalCode":"83048"},{"use":"old","line":["84955 Gary Spring"],"city":"Port Richardland","state":"AR","postalCode":"74125"}],"maritalStatus":{"coding":[{"system":"http://terminology.hl7.org/CodeSystem/v3-MaritalStatus","code":"D","display":"Divorced"}]}},"request":{"method":"POST","url":"Patient"}},{"fullUrl":"Observation/aa29671d-5b61-4af6-a1d6-b51fa58276a8","resource":{"resourceType":"Observation","id":"aa29671d-5b61-4af6-a1d6-b51fa58276a8","status":"final","code":{"coding":[{"system":"http://loinc.org","code":"22590-4"}]},"subject":{"reference":"Patient/b86f6155-eeed-4c8c-97de-6fca71fd3438"},"effectiveDateTime":"2022-01-06T00:00:00+00:00","valueRatio":{"numerator":{"value":1},"denominator":{"value":32}}},"request":{"method":"POST","url":"Observation"}},{"fullUrl":"Observation/e02f9eb0-0fd5-43a6-9b6e-d952f624c3f3","resource":{"resourceType":"Observation","id":"e02f9eb0-0fd5-43a6-9b6e-d952f624c3f3","status":"final","code":{"coding":[{"system":"http://loinc.org","code":"47476-7"}]},"subject":{"reference":"Patient/b86f6155-eeed-4c8c-97de-6fca71fd3438"},"effectiveDateTime":"2022-06-07T00:00:00+00:00","valueRatio":{"numerator":{"value":1},"denominator":{"value":64}}},"request":{"method":"POST","url":"Observation"}},{"fullUrl":"Condition/19b0abf0-e3db-4073-b846-77de8758affb","resource":{"resourceType":"Condition","id":"19b0abf0-e3db-4073-b846-77de8758affb","code":{"coding":[{"system":"http://snomed.info/sct","code":"31070006"}]},"subject":{"reference":"Patient/b86f6155-eeed-4c8c-97de-6fca71fd3438"},"onsetDateTime":"2022-05-12T00:00:00+00:00"},"request":{"method":"POST","url":"Condition"}},{"fullUrl":"Condition/326423f7-e5e3-45d0-b7bc-73e3c4b37955","resource":{"resourceType":"Condition","id":"326423f7-e5e3-45d0-b7bc-73e3c4b37955","code":{"coding":[{"system":"http://snomed.info/sct","code":"91554004"}]},"subject":{"reference":"Patient/b86f6155-eeed-4c8c-97de-6fca71fd3438"},"onsetDateTime":"2022-07-22T00:00:00+00:00"},"request":{"method":"POST","url":"Condition"}},{"fullUrl":"Condition/ded27773-3cff-46e8-b123-696521883b52","resource":{"resourceType":"Condition","id":"ded27773-3cff-46e8-b123-696521883b52","code":{"coding":[{"system":"http://snomed.info/sct","code":"18165001"}]},"subject":{"reference":"Patient/b86f6155-eeed-4c8c-97de-6fca71fd3438"},"onsetDateTime":"2022-09-23T00:00:00+00:00"},"request":{"method":"POST","url":"Condition"}},{"fullUrl":"Condition/a4e9a361-f898-4061-aac5-e75fddf14675","resource":{"resourceType":"Condition","id":"a4e9a361-f898-4061-aac5-e75fddf14675","code":{"coding":[{"system":"http://snomed.info/sct","code":"198199009"}]},"subject":{"reference":"Patient/b86f6155-eeed-4c8c-97de-6fca71fd3438"},"onsetDateTime":"2022-07-15T00:00:00+00:00"},"request":{"method":"POST","url":"Condition"}},{"fullUrl":"Condition/4bb54fbd-4cfb-4bc5-969b-65672c4ac40b","resource":{"resourceType":"Condition","id":"4bb54fbd-4cfb-4bc5-969b-65672c4ac40b","code":{"coding":[{"system":"http://snomed.info/sct","code":"271939006"}]},"subject":{"reference":"Patient/b86f6155-eeed-4c8c-97de-6fca71fd3438"},"onsetDateTime":"2022-06-18T00:00:00+00:00"},"request":{"method":"POST","url":"Condition"}},{"fullUrl":"Condition/b8d38b0b-619b-4681-9cf1-9f99b0d50c82","resource":{"resourceType":"Condition","id":"b8d38b0b-619b-4681-9cf1-9f99b0d50c82","code":{"coding":[{"system":"http://snomed.info/sct","code":"297123002"}]},"subject":{"reference":"Patient/b86f6155-eeed-4c8c-97de-6fca71fd3438"},"onsetDateTime":"2022-08-29T00:00:00+00:00"},"request":{"method":"POST","url":"Condition"}},{"fullUrl":"Condition/64c23d87-dacd-47e7-b98c-b491f18402ef","resource":{"resourceType":"Condition","id":"64c23d87-dacd-47e7-b98c-b491f18402ef","code":{"coding":[{"system":"http://snomed.info/sct","code":"386661006"}]},"subject":{"reference":"Patient/b86f6155-eeed-4c8c-97de-6fca71fd3438"},"onsetDateTime":"2022-01-24T00:00:00+00:00"},"request":{"method":"POST","url":"Condition"}},{"fullUrl":"Observation/4aef49d0-79ce-4709-a927-5b1288c5521b","resource":{"resourceType":"Observation","id":"4aef49d0-79ce-4709-a927-5b1288c5521b","status":"final","code":{"coding":[{"system":"http://www.ama-assn.org/go/cpt","code":"85048"}]},"subject":{"reference":"Patient/b86f6155-eeed-4c8c-97de-6fca71fd3438"},"effectiveDateTime":"2022-04-02T00:00:00+00:00","valueQuantity":{"value":9.2}},"request":{"method":"POST","url":"Observation"}},{"fullUrl":"Observation/9fda4f89-3214-4f1d-b2e4-52715e3ce557","resource":{"resourceType":"Observation","id":"9fda4f89-3214-4f1d-b2e4-52715e3ce557","status":"final","code":{"coding":[{"system":"http://loinc.org","code":"804-5"}]},"subject":{"reference":"Patient/b86f6155-eeed-4c8c-97de-6fca71fd3438"},"effectiveDateTime":"2022-04-19T00:00:00+00:00","valueQuantity":{"value":10.8}},"request":{"method":"POST","url":"Observation"}},{"fullUrl":"Observation/1685cd7a-351e-4159-b26d-a390cc7ba019","resource":{"resourceType":"Observation","id":"1685cd7a-351e-4159-b26d-a390cc7ba019","status":"final","code":{"coding":[{"system":"http://loinc.org","code":"26464-8"}]},"subject":{"reference":"Patient/b86f6155-eeed-4c8c-97de-6fca71fd3438"},"effectiveDateTime":"2022-09-09T00:00:00+00:00","valueQuantity":{"value":4.7}},"request":{"method":"POST","url":"Observation"}},{"fullUrl":"Observation/6014b13d-149e-47d7-b26f-2db6b791831b","resource":{"resourceType":"Observation","id":"6014b13d-149e-47d7-b26f-2db6b791831b","status":"final","code":{"coding":[{"system":"http://www.ama-assn.org/go/cpt","code":"85048"}]},"subject":{"reference":"Patient/b86f6155-eeed-4c8c-97de-6fca71fd3438"},"effectiveDateTime":"2022-05-14T00:00:00+00:00","valueCodeableConcept":{"coding":[{"system":"snomed","code":"123456","display":"fake snomed"}]}},"request":{"method":"POST","url":"Observation"}},{"fullUrl":"Observation/597b95e0-ecaa-4216-a5e5-94133f83cc60","resource":{"resourceType":"Observation","id":"597b95e0-ecaa-4216-a5e5-94133f83cc60","status":"final","code":{"coding":[{"system":"http://www.ama-assn.org/go/cpt","code":"85048"}]},"subject":{"reference":"Patient/b86f6155-eeed-4c8c-97de-6fca71fd3438"},"effectiveDateTime":"2022-11-17T00:00:00+00:00","valueCodeableConcept":{"coding":[{"system":"snomed","code":"123456","display":"fake snomed"}]}},"request":{"method":"POST","url":"Observation"}},{"fullUrl":"Observation/3d2393da-17da-4805-9fa9-f2994c6ca562","resource":{"resourceType":"Observation","id":"3d2393da-17da-4805-9fa9-f2994c6ca562","status":"final","code":{"coding":[{"system":"http://loinc.org","code":"49498-9"}]},"subject":{"reference":"Patient/b86f6155-eeed-4c8c-97de-6fca71fd3438"},"effectiveDateTime":"2022-01-15T00:00:00+00:00"},"request":{"method":"POST","url":"Observation"}},{"fullUrl":"Observation/6097a2a8-0fc4-4620-a09e-1b656a068ec5","resource":{"resourceType":"Observation","id":"6097a2a8-0fc4-4620-a09e-1b656a068ec5","status":"final","code":{"coding":[{"system":"http://loinc.org","code":"49498-9"}]},"subject":{"reference":"Patient/b86f6155-eeed-4c8c-97de-6fca71fd3438"},"effectiveDateTime":"2022-07-01T00:00:00+00:00"},"request":{"method":"POST","url":"Observation"}},{"fullUrl":"Procedure/9e4a267d-5c87-4f63-a1fb-d30a7c3463b3","resource":{"resourceType":"Procedure","id":"9e4a267d-5c87-4f63-a1fb-d30a7c3463b3","status":"completed","code":{"coding":[{"system":"http://snomed.info/sct","code":"647000"}]},"subject":{"reference":"Patient/b86f6155-eeed-4c8c-97de-6fca71fd3438"},"performedDateTime":"2022-12-16T00:00:00+00:00"},"request":{"method":"POST","url":"Procedure"}},{"fullUrl":"Procedure/a8f92e99-9c87-444d-8560-2647543323bd","resource":{"resourceType":"Procedure","id":"a8f92e99-9c87-444d-8560-2647543323bd","status":"completed","code":{"coding":[{"system":"http://snomed.info/sct","code":"115006"}]},"subject":{"reference":"Patient/b86f6155-eeed-4c8c-97de-6fca71fd3438"},"performedDateTime":"2022-09-16T00:00:00+00:00"},"request":{"method":"POST","url":"Procedure"}},{"fullUrl":"Procedure/6d3cdbb4-ce4e-41ed-96b0-3e570eacc5eb","resource":{"resourceType":"Procedure","id":"6d3cdbb4-ce4e-41ed-96b0-3e570eacc5eb","status":"completed","code":{"coding":[{"system":"http://snomed.info/sct","code":"104001"}]},"subject":{"reference":"Patient/b86f6155-eeed-4c8c-97de-6fca71fd3438"},"performedDateTime":"2022-08-02T00:00:00+00:00"},"request":{"method":"POST","url":"Procedure"}},{"fullUrl":"MedicationStatement/38b3ee5d-6b06-47d8-b448-520689016ce0","resource":{"resourceType":"MedicationStatement","id":"38b3ee5d-6b06-47d8-b448-520689016ce0","status":"completed","medicationCodeableConcept":{"coding":[{"system":"http://www.nlm.nih.gov/research/umls/rxnorm","code":"7984"}]},"subject":{"reference":"Patient/b86f6155-eeed-4c8c-97de-6fca71fd3438"},"effectiveDateTime":"2022-10-23T00:00:00+00:00","dosage":[{"doseAndRate":[{"doseQuantity":{"value":2,"unit":"TAB","system":"http://terminology.hl7.org/CodeSystem/v3-orderableDrugForm","code":"TAB"}}]}]},"request":{"method":"POST","url":"MedicationStatement"}},{"fullUrl":"MedicationStatement/4d1614c5-864b-4721-bc6d-3a35b2170278","resource":{"resourceType":"MedicationStatement","id":"4d1614c5-864b-4721-bc6d-3a35b2170278","status":"completed","medicationCodeableConcept":{"coding":[{"system":"http://www.nlm.nih.gov/research/umls/rxnorm","code":"7984"}]},"subject":{"reference":"Patient/b86f6155-eeed-4c8c-97de-6fca71fd3438"},"effectiveDateTime":"2022-07-01T00:00:00+00:00","dosage":[{"doseAndRate":[{"doseQuantity":{"value":2,"unit":"TAB","system":"http://terminology.hl7.org/CodeSystem/v3-orderableDrugForm","code":"TAB"}}]}]},"request":{"method":"POST","url":"MedicationStatement"}},{"fullUrl":"MedicationStatement/d59e09d3-f05d-4cd3-95cf-c634bfe6034a","resource":{"resourceType":"MedicationStatement","id":"d59e09d3-f05d-4cd3-95cf-c634bfe6034a","status":"completed","medicationCodeableConcept":{"coding":[{"system":"http://www.nlm.nih.gov/research/umls/rxnorm","code":"10395"}]},"subject":{"reference":"Patient/b86f6155-eeed-4c8c-97de-6fca71fd3438"},"effectiveDateTime":"2022-07-29T00:00:00+00:00","dosage":[{"doseAndRate":[{"doseQuantity":{"value":1,"unit":"TAB","system":"http://terminology.hl7.org/CodeSystem/v3-orderableDrugForm","code":"TAB"}}]}]},"request":{"method":"POST","url":"MedicationStatement"}},{"fullUrl":"MedicationStatement/f653c07d-78b8-45f0-8e2d-572e0b4ab855","resource":{"resourceType":"MedicationStatement","id":"f653c07d-78b8-45f0-8e2d-572e0b4ab855","status":"completed","medicationCodeableConcept":{"coding":[{"system":"http://www.nlm.nih.gov/research/umls/rxnorm","code":"8698"}]},"subject":{"reference":"Patient/b86f6155-eeed-4c8c-97de-6fca71fd3438"},"effectiveDateTime":"2022-01-20T00:00:00+00:00","dosage":[{"doseAndRate":[{"doseQuantity":{"value":2,"unit":"TAB","system":"http://terminology.hl7.org/CodeSystem/v3-orderableDrugForm","code":"TAB"}}]}]},"request":{"method":"POST","url":"MedicationStatement"}},{"fullUrl":"MedicationStatement/7244a946-dc66-47a8-9591-619f7cb0e6e1","resource":{"resourceType":"MedicationStatement","id":"7244a946-dc66-47a8-9591-619f7cb0e6e1","status":"completed","medicationCodeableConcept":{"coding":[{"system":"http://www.nlm.nih.gov/research/umls/rxnorm","code":"8698"}]},"subject":{"reference":"Patient/b86f6155-eeed-4c8c-97de-6fca71fd3438"},"effectiveDateTime":"2022-03-23T00:00:00+00:00","dosage":[{"doseAndRate":[{"doseQuantity":{"value":2,"unit":"TAB","system":"http://terminology.hl7.org/CodeSystem/v3-orderableDrugForm","code":"TAB"}}]}]},"request":{"method":"POST","url":"MedicationStatement"}},{"fullUrl":"MedicationStatement/52aff60f-daf9-4148-a0a8-40d62a54495d","resource":{"resourceType":"MedicationStatement","id":"52aff60f-daf9-4148-a0a8-40d62a54495d","status":"completed","medicationCodeableConcept":{"coding":[{"system":"http://www.nlm.nih.gov/research/umls/rxnorm","code":"8698"}]},"subject":{"reference":"Patient/b86f6155-eeed-4c8c-97de-6fca71fd3438"},"effectiveDateTime":"2022-09-05T00:00:00+00:00","dosage":[{"doseAndRate":[{"doseQuantity":{"value":1,"unit":"TAB","system":"http://terminology.hl7.org/CodeSystem/v3-orderableDrugForm","code":"TAB"}}]}]},"request":{"method":"POST","url":"MedicationStatement"}},{"fullUrl":"MedicationStatement/2ce11eeb-e4bc-4daa-961f-6f29a463398a","resource":{"resourceType":"MedicationStatement","id":"2ce11eeb-e4bc-4daa-961f-6f29a463398a","status":"completed","medicationCodeableConcept":{"coding":[{"system":"http://www.nlm.nih.gov/research/umls/rxnorm","code":"7984"}]},"subject":{"reference":"Patient/b86f6155-eeed-4c8c-97de-6fca71fd3438"},"effectiveDateTime":"2022-02-19T00:00:00+00:00","dosage":[{"doseAndRate":[{"doseQuantity":{"value":2,"unit":"TAB","system":"http://terminology.hl7.org/CodeSystem/v3-orderableDrugForm","code":"TAB"}}]}]},"request":{"method":"POST","url":"MedicationStatement"}},{"fullUrl":"MedicationStatement/efde8677-1061-429a-b7ee-1ade73c5c1ff","resource":{"resourceType":"MedicationStatement","id":"efde8677-1061-429a-b7ee-1ade73c5c1ff","status":"completed","medicationCodeableConcept":{"coding":[{"system":"http://www.nlm.nih.gov/research/umls/rxnorm","code":"10395"}]},"subject":{"reference":"Patient/b86f6155-eeed-4c8c-97de-6fca71fd3438"},"effectiveDateTime":"2022-11-26T00:00:00+00:00","dosage":[{"doseAndRate":[{"doseQuantity":{"value":5.7,"unit":"TAB","system":"http://terminology.hl7.org/CodeSystem/v3-orderableDrugForm","code":"TAB"}}]}]},"request":{"method":"POST","url":"MedicationStatement"}},{"fullUrl":"MedicationStatement/92733de3-c547-4077-a3f7-6c8b91b96939","resource":{"resourceType":"MedicationStatement","id":"92733de3-c547-4077-a3f7-6c8b91b96939","status":"completed","medicationCodeableConcept":{"coding":[{"system":"http://www.nlm.nih.gov/research/umls/rxnorm","code":"10395"}]},"subject":{"reference":"Patient/b86f6155-eeed-4c8c-97de-6fca71fd3438"},"effectiveDateTime":"2022-11-21T00:00:00+00:00","dosage":[{"doseAndRate":[{"doseQuantity":{"value":6.7,"unit":"TAB","system":"http://terminology.hl7.org/CodeSystem/v3-orderableDrugForm","code":"TAB"}}]}]},"request":{"method":"POST","url":"MedicationStatement"}},{"fullUrl":"MedicationStatement/1e8c7054-4122-4804-b431-0117ebdd2e7d","resource":{"resourceType":"MedicationStatement","id":"1e8c7054-4122-4804-b431-0117ebdd2e7d","status":"completed","medicationCodeableConcept":{"coding":[{"system":"http://www.nlm.nih.gov/research/umls/rxnorm","code":"18631"}]},"subject":{"reference":"Patient/b86f6155-eeed-4c8c-97de-6fca71fd3438"},"effectiveDateTime":"2022-06-12T00:00:00+00:00","dosage":[{"doseAndRate":[{"doseQuantity":{"value":6.5,"unit":"TAB","system":"http://terminology.hl7.org/CodeSystem/v3-orderableDrugForm","code":"TAB"}}]}]},"request":{"method":"POST","url":"MedicationStatement"}},{"fullUrl":"MedicationStatement/29435dbd-29e6-4386-97a4-596e99ca53d5","resource":{"resourceType":"MedicationStatement","id":"29435dbd-29e6-4386-97a4-596e99ca53d5","status":"completed","medicationCodeableConcept":{"coding":[{"system":"http://www.nlm.nih.gov/research/umls/rxnorm","code":"3640"}]},"subject":{"reference":"Patient/b86f6155-eeed-4c8c-97de-6fca71fd3438"},"effectiveDateTime":"2022-11-17T00:00:00+00:00","dosage":[{"doseAndRate":[{"doseQuantity":{"value":4.5,"unit":"TAB","system":"http://terminology.hl7.org/CodeSystem/v3-orderableDrugForm","code":"TAB"}}]}]},"request":{"method":"POST","url":"MedicationStatement"}},{"fullUrl":"MedicationStatement/d9a3c1e5-8653-4a28-bcb1-3476bb6240bc","resource":{"resourceType":"MedicationStatement","id":"d9a3c1e5-8653-4a28-bcb1-3476bb6240bc","status":"completed","medicationCodeableConcept":{"coding":[{"system":"http://www.nlm.nih.gov/research/umls/rxnorm","code":"7980"}]},"subject":{"reference":"Patient/b86f6155-eeed-4c8c-97de-6fca71fd3438"},"effectiveDateTime":"2022-10-11T00:00:00+00:00","dosage":[{"doseAndRate":[{"doseQuantity":{"value":3.1,"unit":"TAB","system":"http://terminology.hl7.org/CodeSystem/v3-orderableDrugForm","code":"TAB"}}]}]},"request":{"method":"POST","url":"MedicationStatement"}},{"fullUrl":"MedicationStatement/e0ca5c1f-6704-4cfa-add8-7b231d97534e","resource":{"resourceType":"MedicationStatement","id":"e0ca5c1f-6704-4cfa-add8-7b231d97534e","status":"completed","medicationCodeableConcept":{"coding":[{"system":"http://www.nlm.nih.gov/research/umls/rxnorm","code":"8698"}]},"subject":{"reference":"Patient/b86f6155-eeed-4c8c-97de-6fca71fd3438"},"effectiveDateTime":"2022-08-23T00:00:00+00:00","dosage":[{"doseAndRate":[{"doseQuantity":{"value":4.8,"unit":"TAB","system":"http://terminology.hl7.org/CodeSystem/v3-orderableDrugForm","code":"TAB"}}]}]},"request":{"method":"POST","url":"MedicationStatement"}},{"fullUrl":"MedicationStatement/5e82b4e7-b275-44ad-b42c-e3e2d962114a","resource":{"resourceType":"MedicationStatement","id":"5e82b4e7-b275-44ad-b42c-e3e2d962114a","status":"completed","medicationCodeableConcept":{"coding":[{"system":"http://www.nlm.nih.gov/research/umls/rxnorm","code":"7984"}]},"subject":{"reference":"Patient/b86f6155-eeed-4c8c-97de-6fca71fd3438"},"effectiveDateTime":"2022-03-30T00:00:00+00:00","dosage":[{"doseAndRate":[{"doseQuantity":{"value":3.1,"unit":"TAB","system":"http://terminology.hl7.org/CodeSystem/v3-orderableDrugForm","code":"TAB"}}]}]},"request":{"method":"POST","url":"MedicationStatement"}},{"fullUrl":"MedicationStatement/a87c8ade-725e-4791-a824-eabb33dcd4a3","resource":{"resourceType":"MedicationStatement","id":"a87c8ade-725e-4791-a824-eabb33dcd4a3","status":"completed","medicationCodeableConcept":{"coding":[{"system":"http://www.nlm.nih.gov/research/umls/rxnorm","code":"2193"}]},"subject":{"reference":"Patient/b86f6155-eeed-4c8c-97de-6fca71fd3438"},"effectiveDateTime":"2022-11-30T00:00:00+00:00","dosage":[{"doseAndRate":[{"doseQuantity":{"value":7,"unit":"TAB","system":"http://terminology.hl7.org/CodeSystem/v3-orderableDrugForm","code":"TAB"}}]}]},"request":{"method":"POST","url":"MedicationStatement"}},{"fullUrl":"Encounter/a795edc4-adae-4c40-9aef-663266af2a6c","resource":{"resourceType":"Encounter","id":"a795edc4-adae-4c40-9aef-663266af2a6c","status":"finished","class":{"system":"http://terminology.hl7.org/CodeSystem/v3-ActCode","code":"IMP","display":"inpatient encounter"},"type":[{"coding":[{"system":"http://terminology.hl7.org/CodeSystem/encounter-type","code":"CCS60"}]}],"subject":{"reference":"Patient/b86f6155-eeed-4c8c-97de-6fca71fd3438"},"period":{"start":"2022-02-05T00:00:00+00:00","end":"2022-02-11T00:00:00+00:00"}},"request":{"method":"POST","url":"Encounter"}},{"fullUrl":"Encounter/00597c1d-d0c2-4fda-8d8f-89b4a07fd3ba","resource":{"resourceType":"Encounter","id":"00597c1d-d0c2-4fda-8d8f-89b4a07fd3ba","status":"finished","class":{"system":"http://terminology.hl7.org/CodeSystem/v3-ActCode","code":"IMP","display":"inpatient encounter"},"type":[{"coding":[{"system":"http://terminology.hl7.org/CodeSystem/encounter-type","code":"ADMS"}]}],"subject":{"reference":"Patient/b86f6155-eeed-4c8c-97de-6fca71fd3438"},"period":{"start":"2022-04-04T00:00:00+00:00","end":"2022-04-04T00:00:00+00:00"}},"request":{"method":"POST","url":"Encounter"}},{"fullUrl":"Encounter/7024a88d-e0c7-419e-ae49-eb1c05c5720c","resource":{"resourceType":"Encounter","id":"7024a88d-e0c7-419e-ae49-eb1c05c5720c","status":"finished","class":{"system":"http://terminology.hl7.org/CodeSystem/v3-ActCode","code":"IMP","display":"inpatient encounter"},"type":[{"coding":[{"system":"http://terminology.hl7.org/CodeSystem/encounter-type","code":"CCS60"}]}],"subject":{"reference":"Patient/b86f6155-eeed-4c8c-97de-6fca71fd3438"},"period":{"start":"2022-03-07T00:00:00+00:00","end":"2022-03-07T00:00:00+00:00"}},"request":{"method":"POST","url":"Encounter"}},{"fullUrl":"Encounter/ed37248a-aaa4-44d6-9eae-6cc3ab049a40","resource":{"resourceType":"Encounter","id":"ed37248a-aaa4-44d6-9eae-6cc3ab049a40","status":"finished","class":{"system":"http://terminology.hl7.org/CodeSystem/v3-ActCode","code":"IMP","display":"inpatient encounter"},"type":[{"coding":[{"system":"http://terminology.hl7.org/CodeSystem/encounter-type","code":"CCS60"}]}],"subject":{"reference":"Patient/b86f6155-eeed-4c8c-97de-6fca71fd3438"},"period":{"start":"2022-12-29T00:00:00+00:00","end":"2023-01-03T00:00:00+00:00"}},"request":{"method":"POST","url":"Encounter"}},{"fullUrl":"Encounter/69543836-207f-4a28-bb0c-1e0d4b4cb2a7","resource":{"resourceType":"Encounter","id":"69543836-207f-4a28-bb0c-1e0d4b4cb2a7","status":"finished","class":{"system":"http://terminology.hl7.org/CodeSystem/v3-ActCode","code":"IMP","display":"inpatient encounter"},"type":[{"coding":[{"system":"http://terminology.hl7.org/CodeSystem/encounter-type","code":"OKI"}]}],"subject":{"reference":"Patient/b86f6155-eeed-4c8c-97de-6fca71fd3438"},"period":{"start":"2022-02-22T00:00:00+00:00","end":"2022-02-28T00:00:00+00:00"}},"request":{"method":"POST","url":"Encounter"}},{"fullUrl":"Encounter/1c6083c6-7ae0-4a46-a334-ea2972fbf5c2","resource":{"resourceType":"Encounter","id":"1c6083c6-7ae0-4a46-a334-ea2972fbf5c2","status":"finished","class":{"system":"http://terminology.hl7.org/CodeSystem/v3-ActCode","code":"ACUTE","display":"inpatient acute"},"type":[{"coding":[{"system":"http://terminology.hl7.org/CodeSystem/encounter-type","code":"CCS60"}]}],"subject":{"reference":"Patient/b86f6155-eeed-4c8c-97de-6fca71fd3438"},"period":{"start":"2022-10-05T00:00:00+00:00","end":"2022-10-07T00:00:00+00:00"}},"request":{"method":"POST","url":"Encounter"}},{"fullUrl":"Location/ed1ef863-59f4-4357-b06b-05b023bcc5b8","resource":{"resourceType":"Location","id":"ed1ef863-59f4-4357-b06b-05b023bcc5b8","status":"active","name":"Wilkinson, Hayes and Moore","telecom":[{"system":"phone","value":"001-357-699-5605","use":"home"}],"address":{"use":"work","line":["429 Megan Greens Apt. 754"],"city":"Karenfort","state":"MT","postalCode":"33423"}},"request":{"method":"POST","url":"Location"}},{"fullUrl":"Observation/75d3281f-99c5-4cde-8925-079e4e4c9250","resource":{"resourceType":"Observation","id":"75d3281f-99c5-4cde-8925-079e4e4c9250","status":"final","code":{"coding":[{"system":"http://loinc.org","code":"81956-5"}]},"subject":{"reference":"Patient/b86f6155-eeed-4c8c-97de-6fca71fd3438"},"effectiveDateTime":"2022-07-21T00:00:00+00:00","valueDateTime":"2022-04-18T00:00:00+00:00"},"request":{"method":"POST","url":"Observation"}},{"fullUrl":"Patient/1ae534db-a7bb-404b-9743-f0016051ee8f","resource":{"resourceType":"Patient","id":"1ae534db-a7bb-404b-9743-f0016051ee8f","identifier":[{"type":{"coding":[{"system":"http://terminology.hl7.org/CodeSystem/v2-0203","code":"MR"}]},"system":"urn:fhirgen:mrn","value":"477-80-8416"},{"system":"http://hl7.org/fhir/sid/us-ssn","value":"325-86-6649"}],"name":[{"use":"official","family":"Lee","given":["Kelly"]},{"use":"maiden","family":"Gomez"}],"telecom":[{"system":"phone","value":"881-219-8962","use":"work"},{"system":"email","value":"collinscharles@hotmail.com","use":"home"}],"gender":"female","birthDate":"1982-12-02","address":[{"use":"home","line":["4545 Shawn Stream Apt. 154"],"city":"Hamiltonshire","state":"CA","postalCode":"43643"},{"use":"old","line":["68250 Victoria Common"],"city":"Port Dale","state":"CA","postalCode":"32789"}],"maritalStatus":{"coding":[{"system":"http://terminology.hl7.org/CodeSystem/v3-MaritalStatus","code":"M","display":"Married"}]}},"request":{"method":"POST","url":"Patient"}},{"fullUrl":"Observation/75b0f4b2-2037-4be8-b8f3-5bb3690fdb21","resource":{"resourceType":"Observation","id":"75b0f4b2-2037-4be8-b8f3-5bb3690fdb21","status":"final","code":{"coding":[{"system":"http://loinc.org","code":"22590-4"}]},"subject":{"reference":"Patient/1ae534db-a7bb-404b-9743-f0016051ee8f"},"effectiveDateTime":"2022-08-07T00:00:00+00:00","valueRatio":{"numerator":{"value":1},"denominator":{"value":64}}},"request":{"method":"POST","url":"Observation"}},{"fullUrl":"Observation/03301ab6-a69b-40e4-b337-27fdd1467854","resource":{"resourceType":"Observation","id":"03301ab6-a69b-40e4-b337-27fdd1467854","status":"final","code":{"coding":[{"system":"http://loinc.org","code":"31147-2"}]},"subject":{"reference":"Patient/1ae534db-a7bb-404b-9743-f0016051ee8f"},"effectiveDateTime":"2022-05-03T00:00:00+00:00","valueRatio":{"numerator":{"value":1},"denominator":{"value":4}}},"request":{"method":"POST","url":"Observation"}},{"fullUrl":"Observation/900f510e-fc3e-4ee5-b433-a4fa52026069","resource":{"resourceType":"Observation","id":"900f510e-fc3e-4ee5-b433-a4fa52026069","status":"final","code":{"coding":[{"system":"http://loinc.org","code":"31146-4"}]},"subject":{"reference":"Patient/1ae534db-a7bb-404b-9743-f0016051ee8f"},"effectiveDateTime":"2022-02-08T00:00:00+00:00","valueRatio":{"numerator":{"value":1},"denominator":{"value":4}}},"request":{"method":"POST","url":"Observation"}},{"fullUrl":"Condition/b5fae023-6f0e-40ac-a2d7-2278d0edf472","resource":{"resourceType":"Condition","id":"b5fae023-6f0e-40ac-a2d7-2278d0edf472","code":{"coding":[{"system":"http://snomed.info/sct","code":"30746006"}]},"subject":{"reference":"Patient/1ae534db-a7bb-404b-9743-f0016051ee8f"},"onsetDateTime":"2022-08-23T00:00:00+00:00"},"request":{"method":"POST","url":"Condition"}},{"fullUrl":"Condition/9f3bb1f0-6f5a-42e2-96a8-afa503ae171d","resource":{"resourceType":"Condition","id":"9f3bb1f0-6f5a-42e2-96a8-afa503ae171d","code":{"coding":[{"system":"http://snomed.info/sct","code":"91554004"}]},"subject":{"reference":"Patient/1ae534db-a7bb-404b-9743-f0016051ee8f"},"onsetDateTime":"2022-11-29T00:00:00+00:00"},"request":{"method":"POST","url":"Condition"}},{"fullUrl":"Condition/a909de2f-9c05-495a-b733-6d9b770ca39f","resource":{"resourceType":"Condition","id":"a909de2f-9c05-495a-b733-6d9b770ca39f","code":{"coding":[{"system":"http://snomed.info/sct","code":"71315007"}]},"subject":{"reference":"Patient/1ae534db-a7bb-404b-9743-f0016051ee8f"},"onsetDateTime":"2022-05-27T00:00:00+00:00"},"request":{"method":"POST","url":"Condition"}},{"fullUrl":"Condition/38acfa43-e255-49d5-81d4-7f302eceea31","resource":{"resourceType":"Condition","id":"38acfa43-e255-49d5-81d4-7f302eceea31","code":{"coding":[{"system":"http://snomed.info/sct","code":"709977002"}]},"subject":{"reference":"Patient/1ae534db-a7bb-404b-9743-f0016051ee8f"},"onsetDateTime":"2022-11-22T00:00:00+00:00"},"request":{"method":"POST","url":"Condition"}},{"fullUrl":"Condition/6eb29173-08dd-48a5-9146-68615a559f7d","resource":{"resourceType":"Condition","id":"6eb29173-08dd-48a5-9146-68615a559f7d","code":{"coding":[{"system":"http://snomed.info/sct","code":"91554004"}]},"subject":{"reference":"Patient/1ae534db-a7bb-404b-9743-f0016051ee8f"},"onsetDateTime":"2022-01-25T00:00:00+00:00"},"request":{"method":"POST","url":"Condition"}},{"fullUrl":"Condition/b7326e7e-0848-40c5-8f22-af48a3ee4525","resource":{"resourceType":"Condition","id":"b7326e7e-0848-40c5-8f22-af48a3ee4525","code":{"coding":[{"system":"http://snomed.info/sct","code":"248980004"}]},"subject":{"reference":"Patient/1ae534db-a7bb-404b-9743-f0016051ee8f"},"onsetDateTime":"2022-09-07T00:00:00+00:00"},"request":{"method":"POST","url":"Condition"}},{"fullUrl":"Condition/f2ddf957-cdc3-44b2-bddb-502fefaa1717","resource":{"resourceType":"Condition","id":"f2ddf957-cdc3-44b2-bddb-502fefaa1717","code":{"coding":[{"system":"http://snomed.info/sct","code":"56317004"}]},"subject":{"reference":"Patient/1ae534db-a7bb-404b-9743-f0016051ee8f"},"onsetDateTime":"2022-12-02T00:00:00+00:00"},"request":{"method":"POST","url":"Condition"}},{"fullUrl":"Observation/e1049dfb-d2b0-48c2-91a1-31c78c47fc42","resource":{"resourceType":"Observation","id":"e1049dfb-d2b0-48c2-91a1-31c78c47fc42","status":"final","code":{"coding":[{"system":"http://loinc.org","code":"26464-8"}]},"subject":{"reference":"Patient/1ae534db-a7bb-404b-9743-f0016051ee8f"},"effectiveDateTime":"2022-08-05T00:00:00+00:00","valueQuantity":{"value":4.2}},"request":{"method":"POST","url":"Observation"}},{"fullUrl":"Observation/f8e76fd1-f8fb-4860-9a2f-eff0515715c9","resource":{"resourceType":"Observation","id":"f8e76fd1-f8fb-4860-9a2f-eff0515715c9","status":"final","code":{"coding":[{"system":"http://loinc.org","code":"804-5"}]},"subject":{"reference":"Patient/1ae534db-a7bb-404b-9743-f0016051ee8f"},"effectiveDateTime":"2022-12-12T00:00:00+00:00","valueQuantity":{"value":10.5}},"request":{"method":"POST","url":"Observation"}},{"fullUrl":"Observation/3d8b0ae7-ae3f-49bc-b22e-0dc5d5da7338","resource":{"resourceType":"Observation","id":"3d8b0ae7-ae3f-49bc-b22e-0dc5d5da7338","status":"final","code":{"coding":[{"system":"http://www.ama-assn.org/go/cpt","code":"85048"}]},"subject":{"reference":"Patient/1ae534db-a7bb-404b-9743-f0016051ee8f"},"effectiveDateTime":"2022-07-08T00:00:00+00:00","valueQuantity":{"value":5.4}},"request":{"method":"POST","url":"Observation"}},{"fullUrl":"Observation/0c9be5af-57dc-48d0-944c-b9f74ab72636","resource":{"resourceType":"Observation","id":"0c9be5af-57dc-48d0-944c-b9f74ab72636","status":"final","code":{"coding":[{"system":"http://loinc.org","code":"49498-9"}]},"subject":{"reference":"Patient/1ae534db-a7bb-404b-9743-f0016051ee8f"},"effectiveDateTime":"2022-03-09T00:00:00+00:00","valueCodeableConcept":{"coding":[{"system":"snomed","code":"123456","display":"fake snomed"}]}},"request":{"method":"POST","url":"Observation"}},{"fullUrl":"Observation/02a97fa9-5ca1-4025-a9bd-3539a8318106","resource":{"resourceType":"Observation","id":"02a97fa9-5ca1-4025-a9bd-3539a8318106","status":"final","code":{"coding":[{"system":"http://loinc.org","code":"804-5"}]},"subject":{"reference":"Patient/1ae534db-a7bb-404b-9743-f0016051ee8f"},"effectiveDateTime":"2022-03-06T00:00:00+00:00","valueCodeableConcept":{"coding":[{"system":"snomed","code":"123456","display":"fake snomed"}]}},"request":{"method":"POST","url":"Observation"}},{"fullUrl":"Observation/57ae0288-ee89-4274-ae1c-f868f5381657","resource":{"resourceType":"Observation","id":"57ae0288-ee89-4274-ae1c-f868f5381657","status":"final","code":{"coding":[{"system":"http://loinc.org","code":"26464-8"}]},"subject":{"reference":"Patient/1ae534db-a7bb-404b-9743-f0016051ee8f"},"effectiveDateTime":"2022-06-20T00:00:00+00:00","valueCodeableConcept":{"coding":[{"system":"snomed","code":"123456","display":"fake snomed"}]}},"request":{"method":"POST","url":"Observation"}},{"fullUrl":"Observation/c07f3eed-c294-4805-9fdb-46ccff51276d","resource":{"resourceType":"Observation","id":"c07f3eed-c294-4805-9fdb-46ccff51276d","status":"final","code":{"coding":[{"system":"http://loinc.org","code":"49498-9"}]},"subject":{"reference":"Patient/1ae534db-a7bb-404b-9743-f0016051ee8f"},"effectiveDateTime":"2022-03-19T00:00:00+00:00"},"request":{"method":"POST","url":"Observation"}},{"fullUrl":"Observation/5824fd39-5714-4a1d-b647-77fe0d0e2ca3","resource":{"resourceType":"Observation","id":"5824fd39-5714-4a1d-b647-77fe0d0e2ca3","status":"final","code":{"coding":[{"system":"http://loinc.org","code":"49498-9"}]},"subject":{"reference":"Patient/1ae534db-a7bb-404b-9743-f0016051ee8f"},"effectiveDateTime":"2022-11-03T00:00:00+00:00"},"request":{"method":"POST","url":"Observation"}},{"fullUrl":"Procedure/a07c187f-07e5-4d85-a9ef-25c9cdb16fb9","resource":{"resourceType":"Procedure","id":"a07c187f-07e5-4d85-a9ef-25c9cdb16fb9","status":"completed","code":{"coding":[{"system":"http://snomed.info/sct","code":"115006"}]},"subject":{"reference":"Patient/1ae534db-a7bb-404b-9743-f0016051ee8f"},"performedDateTime":"2022-08-28T00:00:00+00:00"},"request":{"method":"POST","url":"Procedure"}},{"fullUrl":"Procedure/aaa6aa29-e4b1-48ab-812a-2ecd68c1af99","resource":{"resourceType":"Procedure","id":"aaa6aa29-e4b1-48ab-812a-2ecd68c1af99","status":"completed","code":{"coding":[{"system":"http://snomed.info/sct","code":"115006"}]},"subject":{"reference":"Patient/1ae534db-a7bb-404b-9743-f0016051ee8f"},"performedDateTime":"2022-08-21T00:00:00+00:00"},"request":{"method":"POST","url":"Procedure"}},{"fullUrl":"Procedure/2d1beae7-c250-4eab-a641-93f16476dfb6","resource":{"resourceType":"Procedure","id":"2d1beae7-c250-4eab-a641-93f16476dfb6","status":"completed","code":{"coding":[{"system":"http://snomed.info/sct","code":"115006"}]},"subject":{"reference":"Patient/1ae534db-a7bb-404b-9743-f0016051ee8f"},"performedDateTime":"2022-06-10T00:00:00+00:00"},"request":{"method":"POST","url":"Procedure"}},{"fullUrl":"MedicationStatement/62d88d08-d1c1-4b03-9231-5b00339091f1","resource":{"resourceType":"MedicationStatement","id":"62d88d08-d1c1-4b03-9231-5b00339091f1","status":"completed","medicationCodeableConcept":{"coding":[{"system":"http://www.nlm.nih.gov/research/umls/rxnorm","code":"3640"}]},"subject":{"reference":"Patient/1ae534db-a7bb-404b-9743-f0016051ee8f"},"effectiveDateTime":"2022-10-04T00:00:00+00:00","dosage":[{"doseAndRate":[{"doseQuantity":{"value":2,"unit":"TAB","system":"http://terminology.hl7.org/CodeSystem/v3-orderableDrugForm","code":"TAB"}}]}]},"request":{"method":"POST","url":"MedicationStatement"}},{"fullUrl":"MedicationStatement/f6780ea6-1c76-4af4-846f-d905d2a35b25","resource":{"resourceType":"MedicationStatement","id":"f6780ea6-1c76-4af4-846f-d905d2a35b25","status":"completed","medicationCodeableConcept":{"coding":[{"system":"http://www.nlm.nih.gov/research/umls/rxnorm","code":"7980"}]},"subject":{"reference":"Patient/1ae534db-a7bb-404b-9743-f0016051ee8f"},"effectiveDateTime":"2022-01-29T00:00:00+00:00","dosage":[{"doseAndRate":[{"doseQuantity":{"value":6.3,"unit":"TAB","system":"http://terminology.hl7.org/CodeSystem/v3-orderableDrugForm","code":"TAB"}}]}]},"request":{"method":"POST","url":"MedicationStatement"}},{"fullUrl":"MedicationStatement/7668b19f-f262-4823-85f7-ea70f457be32","resource":{"resourceType":"MedicationStatement","id":"7668b19f-f262-4823-85f7-ea70f457be32","status":"completed","medicationCodeableConcept":{"coding":[{"system":"http://www.nlm.nih.gov/research/umls/rxnorm","code":"18631"}]},"subject":{"reference":"Patient/1ae534db-a7bb-404b-9743-f0016051ee8f"},"effectiveDateTime":"2022-06-04T00:00:00+00:00","dosage":[{"doseAndRate":[{"doseQuantity":{"value":5,"unit":"TAB","system":"http://terminology.hl7.org/CodeSystem/v3-orderableDrugForm","code":"TAB"}}]}]},"request":{"method":"POST","url":"MedicationStatement"}},{"fullUrl":"MedicationStatement/77b68c80-cadd-43b6-a7d9-32da251ab87c","resource":{"resourceType":"MedicationStatement","id":"77b68c80-cadd-43b6-a7d9-32da251ab87c","status":"completed","medicationCodeableConcept":{"coding":[{"system":"http://www.nlm.nih.gov/research/umls/rxnorm","code":"7984"}]},"subject":{"reference":"Patient/1ae534db-a7bb-404b-9743-f0016051ee8f"},"effectiveDateTime":"2022-11-11T00:00:00+00:00","dosage":[{"doseAndRate":[{"doseQuantity":{"value":4.7,"unit":"TAB","system":"http://terminology.hl7.org/CodeSystem/v3-orderableDrugForm","code":"TAB"}}]}]},"request":{"method":"POST","url":"MedicationStatement"}},{"fullUrl":"MedicationStatement/8a6c23a0-002d-498d-a972-b7f000a961c1","resource":{"resourceType":"MedicationStatement","id":"8a6c23a0-002d-498d-a972-b7f000a961c1","status":"completed","medicationCodeableConcept":{"coding":[{"system":"http://www.nlm.nih.gov/research/umls/rxnorm","code":"7980"}]},"subject":{"reference":"Patient/1ae534db-a7bb-404b-9743-f0016051ee8f"},"effectiveDateTime":"2022-08-15T00:00:00+00:00","dosage":[{"doseAndRate":[{"doseQuantity":{"value":3.6,"unit":"TAB","system":"http://terminology.hl7.org/CodeSystem/v3-orderableDrugForm","code":"TAB"}}]}]},"request":{"method":"POST","url":"MedicationStatement"}},{"fullUrl":"MedicationStatement/4edc144c-a7f8-485b-adb9-086dc373b134","resource":{"resourceType":"MedicationStatement","id":"4edc144c-a7f8-485b-adb9-086dc373b134","status":"completed","medicationCodeableConcept":{"coding":[{"system":"http://www.nlm.nih.gov/research/umls/rxnorm","code":"3640"}]},"subject":{"reference":"Patient/1ae534db-a7bb-404b-9743-f0016051ee8f"},"effectiveDateTime":"2022-01-27T00:00:00+00:00","dosage":[{"doseAndRate":[{"doseQuantity":{"value":7,"unit":"TAB","system":"http://terminology.hl7.org/CodeSystem/v3-orderableDrugForm","code":"TAB"}}]}]},"request":{"method":"POST","url":"MedicationStatement"}},{"fullUrl":"MedicationStatement/3a480bc4-0a6b-45b5-90e3-9a1c0dfcf72c","resource":{"resourceType":"MedicationStatement","id":"3a480bc4-0a6b-45b5-90e3-9a1c0dfcf72c","status":"completed","medicationCodeableConcept":{"coding":[{"system":"http://www.nlm.nih.gov/research/umls/rxnorm","code":"3640"}]},"subject":{"reference":"Patient/1ae534db-a7bb-404b-9743-f0016051ee8f"},"effectiveDateTime":"2022-08-15T00:00:00+00:00","dosage":[{"doseAndRate":[{"doseQuantity":{"value":4.7,"unit":"TAB","system":"http://terminology.hl7.org/CodeSystem/v3-orderableDrugForm","code":"TAB"}}]}]},"request":{"method":"POST","url":"MedicationStatement"}},{"fullUrl":"MedicationStatement/36649207-0c27-4cf4-8778-e1acbaf253bc","resource":{"resourceType":"MedicationStatement","id":"36649207-0c27-4cf4-8778-e1acbaf253bc","status":"completed","medicationCodeableConcept":{"coding":[{"system":"http://www.nlm.nih.gov/research/umls/rxnorm","code":"18631"}]},"subject":{"reference":"Patient/1ae534db-a7bb-404b-9743-f0016051ee8f"},"effectiveDateTime":"2022-12-30T00:00:00+00:00","dosage":[{"doseAndRate":[{"doseQuantity":{"value":6.1,"unit":"TAB","system":"http://terminology.hl7.org/CodeSystem/v3-orderableDrugForm","code":"TAB"}}]}]},"request":{"method":"POST","url":"MedicationStatement"}},{"fullUrl":"MedicationStatement/7eafc3dd-989a-46b3-aacf-950475933e63","resource":{"resourceType":"MedicationStatement","id":"7eafc3dd-989a-46b3-aacf-950475933e63","status":"completed","medicationCodeableConcept":{"coding":[{"system":"http://www.nlm.nih.gov/research/umls/rxnorm","code":"18631"}]},"subject":{"reference":"Patient/1ae534db-a7bb-404b-9743-f0016051ee8f"},"effectiveDateTime":"2022-05-10T00:00:00+00:00","dosage":[{"doseAndRate":[{"doseQuantity":{"value":4.3,"unit":"TAB","system":"http://terminology.hl7.org/CodeSystem/v3-orderableDrugForm","code":"TAB"}}]}]},"request":{"method":"POST","url":"MedicationStatement"}},{"fullUrl":"Encounter/fdc00871-f5d2-4ad5-a752-103ddae714a1","resource":{"resourceType":"Encounter","id":"fdc00871-f5d2-4ad5-a752-103ddae714a1","status":"finished","class":{"system":"http://terminology.hl7.org/CodeSystem/v3-ActCode","code":"IMP","display":"inpatient encounter"},"type":[{"coding":[{"system":"http://terminology.hl7.org/CodeSystem/encounter-type","code":"ADMS"}]}],"subject":{"reference":"Patient/1ae534db-a7bb-404b-9743-f0016051ee8f"},"period":{"start":"2022-04-16T00:00:00+00:00","end":"2022-04-25T00:00:00+00:00"}},"request":{"method":"POST","url":"Encounter"}},{"fullUrl":"Encounter/b4c8b894-75d8-42ac-ab7c-da9b4b024124","resource":{"resourceType":"Encounter","id":"b4c8b894-75d8-42ac-ab7c-da9b4b024124","status":"finished","class":{"system":"http://terminology.hl7.org/CodeSystem/v3-ActCode","code":"IMP","display":"inpatient encounter"},"type":[{"coding":[{"system":"http://terminology.hl7.org/CodeSystem/encounter-type","code":"BD/BM-clin"}]}],"subject":{"reference":"Patient/1ae534db-a7bb-404b-9743-f0016051ee8f"},"period":{"start":"2022-07-31T00:00:00+00:00","end":"2022-08-07T00:00:00+00:00"}},"request":{"method":"POST","url":"Encounter"}},{"fullUrl":"Encounter/ce3e4ddb-1b0c-42e6-a2f1-c0ff55df52b7","resource":{"resourceType":"Encounter","id":"ce3e4ddb-1b0c-42e6-a2f1-c0ff55df52b7","status":"finished","class":{"system":"http://terminology.hl7.org/CodeSystem/v3-ActCode","code":"IMP","display":"inpatient encounter"},"type":[{"coding":[{"system":"http://terminology.hl7.org/CodeSystem/encounter-type","code":"CCS60"}]}],"subject":{"reference":"Patient/1ae534db-a7bb-404b-9743-f0016051ee8f"},"period":{"start":"2022-01-27T00:00:00+00:00","end":"2022-02-02T00:00:00+00:00"}},"request":{"method":"POST","url":"Encounter"}},{"fullUrl":"Encounter/f0798122-2e22-4c62-b4a0-22f487d28ca0","resource":{"resourceType":"Encounter","id":"f0798122-2e22-4c62-b4a0-22f487d28ca0","status":"finished","class":{"system":"http://terminology.hl7.org/CodeSystem/v3-ActCode","code":"IMP","display":"inpatient encounter"},"type":[{"coding":[{"system":"http://terminology.hl7.org/CodeSystem/encounter-type","code":"OKI"}]}],"subject":{"reference":"Patient/1ae534db-a7bb-404b-9743-f0016051ee8f"},"period":{"start":"2022-03-20T00:00:00+00:00","end":"2022-03-23T00:00:00+00:00"}},"request":{"method":"POST","url":"Encounter"}},{"fullUrl":"Encounter/a6a6b07b-b2ff-455d-95ea-f82b1ca5a9eb","resource":{"resourceType":"Encounter","id":"a6a6b07b-b2ff-455d-95ea-f82b1ca5a9eb","status":"finished","class":{"system":"http://terminology.hl7.org/CodeSystem/v3-ActCode","code":"IMP","display":"inpatient encounter"},"type":[{"coding":[{"system":"http://terminology.hl7.org/CodeSystem/encounter-type","code":"CCS60"}]}],"subject":{"reference":"Patient/1ae534db-a7bb-404b-9743-f0016051ee8f"},"period":{"start":"2022-09-02T00:00:00+00:00","end":"2022-09-11T00:00:00+00:00"}},"request":{"method":"POST","url":"Encounter"}},{"fullUrl":"Encounter/06ec8dd1-8845-4c0f-b36d-e5ddd2ff802a","resource":{"resourceType":"Encounter","id":"06ec8dd1-8845-4c0f-b36d-e5ddd2ff802a","status":"finished","class":{"system":"http://terminology.hl7.org/CodeSystem/v3-ActCode","code":"SS","display":"short-stay"},"type":[{"coding":[{"system":"http://terminology.hl7.org/CodeSystem/encounter-type","code":"CCS60"}]}],"subject":{"reference":"Patient/1ae534db-a7bb-404b-9743-f0016051ee8f"},"period":{"start":"2022-12-29T00:00:00+00:00","end":"2023-01-04T00:00:00+00:00"}},"request":{"method":"POST","url":"Encounter"}},{"fullUrl":"Location/2bf55ed6-9108-461d-9f4f-46f5f6858eb6","resource":{"resourceType":"Location","id":"2bf55ed6-9108-461d-9f4f-46f5f6858eb6","status":"active","name":"Wright, Rice and Carrillo","telecom":[{"system":"phone","value":"(609)886-9759x3631","use":"mobile"}],"address":{"use":"work","line":["19773 Richard Ramp Suite 991"],"city":"Stephaniechester","state":"FL","postalCode":"51155"}},"request":{"method":"POST","url":"Location"}},{"fullUrl":"Observation/28e6f816-5ae3-4c97-9560-5eba78c4ae8c","resource":{"resourceType":"Observation","id":"28e6f816-5ae3-4c97-9560-5eba78c4ae8c","status":"final","code":{"coding":[{"system":"http://loinc.org","code":"81956-5"}]},"subject":{"reference":"Patient/1ae534db-a7bb-404b-9743-f0016051ee8f"},"effectiveDateTime":"2022-07-17T00:00:00+00:00","valueDateTime":"2022-05-14T00:00:00+00:00"},"request":{"method":"POST","url":"Observation"}},{"fullUrl":"Patient/b4cf7299-5a5e-4185-9cdf-cd4a40ff2ad8","resource":{"resourceType":"Patient","id":"b4cf7299-5a5e-4185-9cdf-cd4a40ff2ad8","identifier":[{"type":{"coding":[{"system":"http://terminology.hl7.org/CodeSystem/v2-0203","code":"MR"}]},"system":"urn:fhirgen:mrn","value":"757-87-6171"},{"system":"http://hl7.org/fhir/sid/us-ssn","value":"639-47-7284"}],"name":[{"use":"official","family":"Coleman","given":["April"]},{"use":"maiden","family":"Wong"}],"telecom":[{"system":"phone","value":"8263896253","use":"work"},{"system":"email","value":"seth34@hotmail.com","use":"work"}],"gender":"female","birthDate":"1972-11-21","address":[{"use":"home","line":["812 Bell Road"],"city":"New Angela","state":"MS","postalCode":"35635"},{"use":"old","line":["511 Danielle Haven"],"city":"Emilychester","state":"CA","postalCode":"91234"}],"maritalStatus":{"coding":[{"system":"http://terminology.hl7.org/CodeSystem/v3-MaritalStatus","code":"I","display":"Interlocutory"}]}},"request":{"method":"POST","url":"Patient"}},{"fullUrl":"Observation/4884fcd6-d6e1-463b-951e-1707f7c0cf4b","resource":{"resourceType":"Observation","id":"4884fcd6-d6e1-463b-951e-1707f7c0cf4b","status":"final","code":{"coding":[{"system":"http://loinc.org","code":"5394-2"}]},"subject":{"reference":"Patient/b4cf7299-5a5e-4185-9cdf-cd4a40ff2ad8"},"effectiveDateTime":"2022-02-15T00:00:00+00:00","valueRatio":{"numerator":{"value":1},"denominator":{"value":4}}},"request":{"method":"POST","url":"Observation"}},{"fullUrl":"Observation/ed39b80e-9fcb-4afa-8f76-2f722cf1c99d","resource":{"resourceType":"Observation","id":"ed39b80e-9fcb-4afa-8f76-2f722cf1c99d","status":"final","code":{"coding":[{"system":"http://loinc.org","code":"26009-1"}]},"subject":{"reference":"Patient/b4cf7299-5a5e-4185-9cdf-cd4a40ff2ad8"},"effectiveDateTime":"2022-05-16T00:00:00+00:00","valueRatio":{"numerator":{"value":1},"denominator":{"value":32}}},"request":{"method":"POST","url":"Observation"}},{"fullUrl":"Condition/aeec24eb-6741-43c8-a7a8-3ec4364bbaae","resource":{"resourceType":"Condition","id":"aeec24eb-6741-43c8-a7a8-3ec4364bbaae","code":{"coding":[{"system":"http://snomed.info/sct","code":"21522001"}]},"subject":{"reference":"Patient/b4cf7299-5a5e-4185-9cdf-cd4a40ff2ad8"},"onsetDateTime":"2022-03-17T00:00:00+00:00"},"request":{"method":"POST","url":"Condition"}},{"fullUrl":"Condition/4539dc40-d88b-4deb-8341-0eeb00123624","resource":{"resourceType":"Condition","id":"4539dc40-d88b-4deb-8341-0eeb00123624","code":{"coding":[{"system":"http://snomed.info/sct","code":"709977002"}]},"subject":{"reference":"Patient/b4cf7299-5a5e-4185-9cdf-cd4a40ff2ad8"},"onsetDateTime":"2022-03-08T00:00:00+00:00"},"request":{"method":"POST","url":"Condition"}},{"fullUrl":"Condition/86d25319-6089-4558-abcb-d29451565cfc","resource":{"resourceType":"Condition","id":"86d25319-6089-4558-abcb-d29451565cfc","code":{"coding":[{"system":"http://snomed.info/sct","code":"21522001"}]},"subject":{"reference":"Patient/b4cf7299-5a5e-4185-9cdf-cd4a40ff2ad8"},"onsetDateTime":"2022-12-14T00:00:00+00:00"},"request":{"method":"POST","url":"Condition"}},{"fullUrl":"Condition/9b40d36c-b327-4b51-a47a-53df450243f7","resource":{"resourceType":"Condition","id":"9b40d36c-b327-4b51-a47a-53df450243f7","code":{"coding":[{"system":"http://snomed.info/sct","code":"30746006"}]},"subject":{"reference":"Patient/b4cf7299-5a5e-4185-9cdf-cd4a40ff2ad8"},"onsetDateTime":"2022-08-11T00:00:00+00:00"},"request":{"method":"POST","url":"Condition"}},{"fullUrl":"Condition/77de8fa5-de84-4604-b21d-507695fa84ef","resource":{"resourceType":"Condition","id":"77de8fa5-de84-4604-b21d-507695fa84ef","code":{"coding":[{"system":"http://snomed.info/sct","code":"79342006"}]},"subject":{"reference":"Patient/b4cf7299-5a5e-4185-9cdf-cd4a40ff2ad8"},"onsetDateTime":"2022-11-17T00:00:00+00:00"},"request":{"method":"POST","url":"Condition"}},{"fullUrl":"Condition/5436f2a0-76e5-4dfc-b83b-1737065d1600","resource":{"resourceType":"Condition","id":"5436f2a0-76e5-4dfc-b83b-1737065d1600","code":{"coding":[{"system":"http://snomed.info/sct","code":"736686006"}]},"subject":{"reference":"Patient/b4cf7299-5a5e-4185-9cdf-cd4a40ff2ad8"},"onsetDateTime":"2022-04-02T00:00:00+00:00"},"request":{"method":"POST","url":"Condition"}},{"fullUrl":"Condition/24f492f7-f8fd-4093-8296-78681f7eeb6a","resource":{"resourceType":"Condition","id":"24f492f7-f8fd-4093-8296-78681f7eeb6a","code":{"coding":[{"system":"http://snomed.info/sct","code":"21522001"}]},"subject":{"reference":"Patient/b4cf7299-5a5e-4185-9cdf-cd4a40ff2ad8"},"onsetDateTime":"2022-08-21T00:00:00+00:00"},"request":{"method":"POST","url":"Condition"}},{"fullUrl":"Observation/df4b81f0-7832-4924-ab5a-d42aea201a07","resource":{"resourceType":"Observation","id":"df4b81f0-7832-4924-ab5a-d42aea201a07","status":"final","code":{"coding":[{"system":"http://loinc.org","code":"26464-8"}]},"subject":{"reference":"Patient/b4cf7299-5a5e-4185-9cdf-cd4a40ff2ad8"},"effectiveDateTime":"2022-08-14T00:00:00+00:00","valueQuantity":{"value":4.4}},"request":{"method":"POST","url":"Observation"}},{"fullUrl":"Observation/abf242c0-3ed6-4e32-8de1-4912bb4fd672","resource":{"resourceType":"Observation","id":"abf242c0-3ed6-4e32-8de1-4912bb4fd672","status":"final","code":{"coding":[{"system":"http://www.ama-assn.org/go/cpt","code":"85048"}]},"subject":{"reference":"Patient/b4cf7299-5a5e-4185-9cdf-cd4a40ff2ad8"},"effectiveDateTime":"2022-07-20T00:00:00+00:00","valueQuantity":{"value":4.5}},"request":{"method":"POST","url":"Observation"}},{"fullUrl":"Observation/f6fa7432-7592-400c-a67d-699b162cde89","resource":{"resourceType":"Observation","id":"f6fa7432-7592-400c-a67d-699b162cde89","status":"final","code":{"coding":[{"system":"http://loinc.org","code":"49498-9"}]},"subject":{"reference":"Patient/b4cf7299-5a5e-4185-9cdf-cd4a40ff2ad8"},"effectiveDateTime":"2022-02-08T00:00:00+00:00","valueCodeableConcept":{"coding":[{"system":"snomed","code":"123456","display":"fake snomed"}]}},"request":{"method":"POST","url":"Observation"}},{"fullUrl":"Observation/b5c258d7-84e9-4cdc-b896-409bf2da254c","resource":{"resourceType":"Observation","id":"b5c258d7-84e9-4cdc-b896-409bf2da254c","status":"final","code":{"coding":[{"system":"http://loinc.org","code":"49498-9"}]},"subject":{"reference":"Patient/b4cf7299-5a5e-4185-9cdf-cd4a40ff2ad8"},"effectiveDateTime":"2022-06-23T00:00:00+00:00","valueCodeableConcept":{"coding":[{"system":"snomed","code":"123456","display":"fake snomed"}]}},"request":{"method":"POST","url":"Observation"}},{"fullUrl":"Observation/64e44116-6dd9-4505-a08c-2b939cd88bab","resource":{"resourceType":"Observation","id":"64e44116-6dd9-4505-a08c-2b939cd88bab","status":"final","code":{"coding":[{"system":"http://www.ama-assn.org/go/cpt","code":"85048"}]},"subject":{"reference":"Patient/b4cf7299-5a5e-4185-9cdf-cd4a40ff2ad8"},"effectiveDateTime":"2022-12-31T00:00:00+00:00","valueCodeableConcept":{"coding":[{"system":"snomed","code":"123456","display":"fake snomed"}]}},"request":{"method":"POST","url":"Observation"}},{"fullUrl":"Observation/c36e047a-3301-4df7-ad94-cbca938f3ee3","resource":{"resourceType":"Observation","id":"c36e047a-3301-4df7-ad94-cbca938f3ee3","status":"final","code":{"coding":[{"system":"http://loinc.org","code":"49498-9"}]},"subject":{"reference":"Patient/b4cf7299-5a5e-4185-9cdf-cd4a40ff2ad8"},"effectiveDateTime":"2022-11-03T00:00:00+00:00"},"request":{"method":"POST","url":"Observation"}},{"fullUrl":"Observation/83bffa60-5b4b-49d5-bf9e-74c68a19e8c1","resource":{"resourceType":"Observation","id":"83bffa60-5b4b-49d5-bf9e-74c68a19e8c1","status":"final","code":{"coding":[{"system":"http://loinc.org","code":"49498-9"}]},"subject":{"reference":"Patient/b4cf7299-5a5e-4185-9cdf-cd4a40ff2ad8"},"effectiveDateTime":"2022-07-09T00:00:00+00:00"},"request":{"method":"POST","url":"Observation"}},{"fullUrl":"Observation/443aedda-b017-4fb6-8b4c-794a143bb733","resource":{"resourceType":"Observation","id":"443aedda-b017-4fb6-8b4c-794a143bb733","status":"final","code":{"coding":[{"system":"http://loinc.org","code":"49498-9"}]},"subject":{"reference":"Patient/b4cf7299-5a5e-4185-9cdf-cd4a40ff2ad8"},"effectiveDateTime":"2022-11-01T00:00:00+00:00"},"request":{"method":"POST","url":"Observation"}},{"fullUrl":"Procedure/0679128c-efe4-4f79-8be5-17febd06ee7f","resource":{"resourceType":"Procedure","id":"0679128c-efe4-4f79-8be5-17febd06ee7f","status":"completed","code":{"coding":[{"system":"http://snomed.info/sct","code":"104001"}]},"subject":{"reference":"Patient/b4cf7299-5a5e-4185-9cdf-cd4a40ff2ad8"},"performedDateTime":"2022-03-01T00:00:00+00:00"},"request":{"method":"POST","url":"Procedure"}},{"fullUrl":"Procedure/9673a437-0c25-4b8f-b4b9-27f2eb7ab54b","resource":{"resourceType":"Procedure","id":"9673a437-0c25-4b8f-b4b9-27f2eb7ab54b","status":"completed","code":{"coding":[{"system":"http://snomed.info/sct","code":"104001"}]},"subject":{"reference":"Patient/b4cf7299-5a5e-4185-9cdf-cd4a40ff2ad8"},"performedDateTime":"2022-10-12T00:00:00+00:00"},"request":{"method":"POST","url":"Procedure"}},{"fullUrl":"Procedure/eba44049-4941-4788-ab62-ab09b0607061","resource":{"resourceType":"Procedure","id":"eba44049-4941-4788-ab62-ab09b0607061","status":"completed","code":{"coding":[{"system":"http://snomed.info/sct","code":"647000"}]},"subject":{"reference":"Patient/b4cf7299-5a5e-4185-9cdf-cd4a40ff2ad8"},"performedDateTime":"2022-07-25T00:00:00+00:00"},"request":{"method":"POST","url":"Procedure"}},{"fullUrl":"MedicationStatement/f5e3db29-effa-4176-be20-ff2abdc8bb60","resource":{"resourceType":"MedicationStatement","id":"f5e3db29-effa-4176-be20-ff2abdc8bb60","status":"completed","medicationCodeableConcept":{"coding":[{"system":"http://www.nlm.nih.gov/research/umls/rxnorm","code":"18631"}]},"subject":{"reference":"Patient/b4cf7299-5a5e-4185-9cdf-cd4a40ff2ad8"},"effectiveDateTime":"2022-02-15T00:00:00+00:00","dosage":[{"doseAndRate":[{"doseQuantity":{"value":1,"unit":"TAB","system":"http://terminology.hl7.org/CodeSystem/v3-orderableDrugForm","code":"TAB"}}]}]},"request":{"method":"POST","url":"MedicationStatement"}},{"fullUrl":"MedicationStatement/7cbf2fe2-b61c-4b46-b572-016edf5e3255","resource":{"resourceType":"MedicationStatement","id":"7cbf2fe2-b61c-4b46-b572-016edf5e3255","status":"completed","medicationCodeableConcept":{"coding":[{"system":"http://www.nlm.nih.gov/research/umls/rxnorm","code":"7980"}]},"subject":{"reference":"Patient/b4cf7299-5a5e-4185-9cdf-cd4a40ff2ad8"},"effectiveDateTime":"2022-11-01T00:00:00+00:00","dosage":[{"doseAndRate":[{"doseQuantity":{"value":1,"unit":"TAB","system":"http://terminology.hl7.org/CodeSystem/v3-orderableDrugForm","code":"TAB"}}]}]},"request":{"method":"POST","url":"MedicationStatement"}},{"fullUrl":"MedicationStatement/6bc7f01b-ebb7-4fd3-99cd-f4f3b985400e","resource":{"resourceType":"MedicationStatement","id":"6bc7f01b-ebb7-4fd3-99cd-f4f3b985400e","status":"completed","medicationCodeableConcept":{"coding":[{"system":"http://www.nlm.nih.gov/research/umls/rxnorm","code":"8698"}]},"subject":{"reference":"Patient/b4cf7299-5a5e-4185-9cdf-cd4a40ff2ad8"},"effectiveDateTime":"2022-09-16T00:00:00+00:00","dosage":[{"doseAndRate":[{"doseQuantity":{"value":2,"unit":"TAB","system":"http://terminology.hl7.org/CodeSystem/v3-orderableDrugForm","code":"TAB"}}]}]},"request":{"method":"POST","url":"MedicationStatement"}},{"fullUrl":"MedicationStatement/e93ea464-67e5-440b-b4c0-1ac06fefe0ac","resource":{"resourceType":"MedicationStatement","id":"e93ea464-67e5-440b-b4c0-1ac06fefe0ac","status":"completed","medicationCodeableConcept":{"coding":[{"system":"http://www.nlm.nih.gov/research/umls/rxnorm","code":"10395"}]},"subject":{"reference":"Patient/b4cf7299-5a5e-4185-9cdf-cd4a40ff2ad8"},"effectiveDateTime":"2022-05-07T00:00:00+00:00","dosage":[{"doseAndRate":[{"doseQuantity":{"value":1,"unit":"TAB","system":"http://terminology.hl7.org/CodeSystem/v3-orderableDrugForm","code":"TAB"}}]}]},"request":{"method":"POST","url":"MedicationStatement"}},{"fullUrl":"MedicationStatement/a1e54303-0e0f-48c5-a2f9-b74b41381fa4","resource":{"resourceType":"MedicationStatement","id":"a1e54303-0e0f-48c5-a2f9-b74b41381fa4","status":"completed","medicationCodeableConcept":{"coding":[{"system":"http://www.nlm.nih.gov/research/umls/rxnorm","code":"3640"}]},"subject":{"reference":"Patient/b4cf7299-5a5e-4185-9cdf-cd4a40ff2ad8"},"effectiveDateTime":"2022-03-10T00:00:00+00:00","dosage":[{"doseAndRate":[{"doseQuantity":{"value":1,"unit":"TAB","system":"http://terminology.hl7.org/CodeSystem/v3-orderableDrugForm","code":"TAB"}}]}]},"request":{"method":"POST","url":"MedicationStatement"}},{"fullUrl":"MedicationStatement/c97eef36-aebe-48be-82ed-2ff702d8b669","resource":{"resourceType":"MedicationStatement","id":"c97eef36-aebe-48be-82ed-2ff702d8b669","status":"completed","medicationCodeableConcept":{"coding":[{"system":"http://www.nlm.nih.gov/research/umls/rxnorm","code":"8698"}]},"subject":{"reference":"Patient/b4cf7299-5a5e-4185-9cdf-cd4a40ff2ad8"},"effectiveDateTime":"2022-10-25T00:00:00+00:00","dosage":[{"doseAndRate":[{"doseQuantity":{"value":2,"unit":"TAB","system":"http://terminology.hl7.org/CodeSystem/v3-orderableDrugForm","code":"TAB"}}]}]},"request":{"method":"POST","url":"MedicationStatement"}},{"fullUrl":"MedicationStatement/65f9b5c2-3600-4fff-890d-4adb657586d3","resource":{"resourceType":"MedicationStatement","id":"65f9b5c2-3600-4fff-890d-4adb657586d3","status":"completed","medicationCodeableConcept":{"coding":[{"system":"http://www.nlm.nih.gov/research/umls/rxnorm","code":"7984"}]},"subject":{"reference":"Patient/b4cf7299-5a5e-4185-9cdf-cd4a40ff2ad8"},"effectiveDateTime":"2022-03-21T00:00:00+00:00","dosage":[{"doseAndRate":[{"doseQuantity":{"value":6.2,"unit":"TAB","system":"http://terminology.hl7.org/CodeSystem/v3-orderableDrugForm","code":"TAB"}}]}]},"request":{"method":"POST","url":"MedicationStatement"}},{"fullUrl":"Encounter/3710d6b9-abdc-4838-ac13-d808b78a9cbb","resource":{"resourceType":"Encounter","id":"3710d6b9-abdc-4838-ac13-d808b78a9cbb","status":"finished","class":{"system":"http://terminology.hl7.org/CodeSystem/v3-ActCode","code":"IMP","display":"inpatient encounter"},"type":[{"coding":[{"system":"http://terminology.hl7.org/CodeSystem/encounter-type","code":"OKI"}]}],"subject":{"reference":"Patient/b4cf7299-5a5e-4185-9cdf-cd4a40ff2ad8"},"period":{"start":"2022-08-04T00:00:00+00:00","end":"2022-08-04T00:00:00+00:00"}},"request":{"method":"POST","url":"Encounter"}},{"fullUrl":"Encounter/d0ed18d6-020f-404c-ace5-99d50d135553","resource":{"resourceType":"Encounter","id":"d0ed18d6-020f-404c-ace5-99d50d135553","status":"finished","class":{"system":"http://terminology.hl7.org/CodeSystem/v3-ActCode","code":"IMP","display":"inpatient encounter"},"type":[{"coding":[{"system":"http://terminology.hl7.org/CodeSystem/encounter-type","code":"ADMS"}]}],"subject":{"reference":"Patient/b4cf7299-5a5e-4185-9cdf-cd4a40ff2ad8"},"period":{"start":"2022-12-09T00:00:00+00:00","end":"2022-12-17T00:00:00+00:00"}},"request":{"method":"POST","url":"Encounter"}},{"fullUrl":"Encounter/92baa0d9-8750-49af-8199-64da2f00b927","resource":{"resourceType":"Encounter","id":"92baa0d9-8750-49af-8199-64da2f00b927","status":"finished","class":{"system":"http://terminology.hl7.org/CodeSystem/v3-ActCode","code":"FLD","display":"field"},"type":[{"coding":[{"system":"http://terminology.hl7.org/CodeSystem/encounter-type","code":"BD/BM-clin"}]}],"subject":{"reference":"Patient/b4cf7299-5a5e-4185-9cdf-cd4a40ff2ad8"},"period":{"start":"2022-05-16T00:00:00+00:00","end":"2022-05-20T00:00:00+00:00"}},"request":{"method":"POST","url":"Encounter"}},{"fullUrl":"Encounter/f6859b92-ed43-4838-9b48-03ee5598e55c","resource":{"resourceType":"Encounter","id":"f6859b92-ed43-4838-9b48-03ee5598e55c","status":"finished","class":{"system":"http://terminology.hl7.org/CodeSystem/v3-ActCode","code":"AMB","display":"ambulatory"},"type":[{"coding":[{"system":"http://terminology.hl7.org/CodeSystem/encounter-type","code":"OKI"}]}],"subject":{"reference":"Patient/b4cf7299-5a5e-4185-9cdf-cd4a40ff2ad8"},"period":{"start":"2022-01-23T00:00:00+00:00","end":"2022-01-23T00:00:00+00:00"}},"request":{"method":"POST","url":"Encounter"}},{"fullUrl":"Location/19e43e19-8657-4c4c-9d7e-3fef709b8d4f","resource":{"resourceType":"Location","id":"19e43e19-8657-4c4c-9d7e-3fef709b8d4f","status":"active","name":"Harris and Sons","telecom":[{"system":"phone","value":"+1-597-858-2651x339","use":"work"}],"address":{"use":"work","line":["34578 Phillips Cliff Suite 265"],"city":"East James","state":"TX","postalCode":"76322"}},"request":{"method":"POST","url":"Location"}},{"fullUrl":"Observation/b885fa70-5752-49cc-b829-74f9b8ca8e92","resource":{"resourceType":"Observation","id":"b885fa70-5752-49cc-b829-74f9b8ca8e92","status":"final","code":{"coding":[{"system":"http://loinc.org","code":"81956-5"}]},"subject":{"reference":"Patient/b4cf7299-5a5e-4185-9cdf-cd4a40ff2ad8"},"effectiveDateTime":"2022-10-02T00:00:00+00:00","valueDateTime":"2022-09-29T00:00:00+00:00"},"request":{"method":"POST","url":"Observation"}},{"fullUrl":"Patient/a19262a5-2f26-4e08-a8fb-a1b4826cd77b","resource":{"resourceType":"Patient","id":"a19262a5-2f26-4e08-a8fb-a1b4826cd77b","identifier":[{"type":{"coding":[{"system":"http://terminology.hl7.org/CodeSystem/v2-0203","code":"MR"}]},"system":"urn:fhirgen:mrn","value":"116-94-5761"},{"system":"http://hl7.org/fhir/sid/us-ssn","value":"505-96-4861"}],"name":[{"use":"official","family":"Mckinney","given":["James"]},{"use":"maiden","family":"Jackson"}],"telecom":[{"system":"phone","value":"(022)203-3791","use":"work"},{"system":"email","value":"brianrivera@yahoo.com","use":"mobile"}],"gender":"other","birthDate":"1972-03-18","address":[{"use":"home","line":["0885 Jones Lake"],"city":"North Kennethchester","state":"SC","postalCode":"44727"},{"use":"old","line":["1930 Johnson Garden Apt. 464"],"city":"Paynemouth","state":"NJ","postalCode":"11084"}],"maritalStatus":{"coding":[{"system":"http://terminology.hl7.org/CodeSystem/v3-MaritalStatus","code":"A","display":"Annulled"}]}},"request":{"method":"POST","url":"Patient"}},{"fullUrl":"Observation/9bdd436e-c957-4c63-8a61-26369129372d","resource":{"resourceType":"Observation","id":"9bdd436e-c957-4c63-8a61-26369129372d","status":"final","code":{"coding":[{"system":"http://loinc.org","code":"31146-4"}]},"subject":{"reference":"Patient/a19262a5-2f26-4e08-a8fb-a1b4826cd77b"},"effectiveDateTime":"2022-04-28T00:00:00+00:00","valueRatio":{"numerator":{"value":1},"denominator":{"value":32}}},"request":{"method":"POST","url":"Observation"}},{"fullUrl":"Observation/ae6ebb3b-8f2c-4884-bc58-70f49acf3436","resource":{"resourceType":"Observation","id":"ae6ebb3b-8f2c-4884-bc58-70f49acf3436","status":"final","code":{"coding":[{"system":"http://loinc.org","code":"50695-6"}]},"subject":{"reference":"Patient/a19262a5-2f26-4e08-a8fb-a1b4826cd77b"},"effectiveDateTime":"2022-01-17T00:00:00+00:00","valueRatio":{"numerator":{"value":1},"denominator":{"value":4}}},"request":{"method":"POST","url":"Observation"}},{"fullUrl":"Condition/c8c33a86-b793-47c4-8abb-fe9856094ae6","resource":{"resourceType":"Condition","id":"c8c33a86-b793-47c4-8abb-fe9856094ae6","code":{"coding":[{"system":"http://snomed.info/sct","code":"271807003"}]},"subject":{"reference":"Patient/a19262a5-2f26-4e08-a8fb-a1b4826cd77b"},"onsetDateTime":"2022-02-03T00:00:00+00:00"},"request":{"method":"POST","url":"Condition"}},{"fullUrl":"Condition/fc1f9465-70ff-4f87-b62e-3f3e73eb8afd","resource":{"resourceType":"Condition","id":"fc1f9465-70ff-4f87-b62e-3f3e73eb8afd","code":{"coding":[{"system":"http://snomed.info/sct","code":"736686006"}]},"subject":{"reference":"Patient/a19262a5-2f26-4e08-a8fb-a1b4826cd77b"},"onsetDateTime":"2022-08-28T00:00:00+00:00"},"request":{"method":"POST","url":"Condition"}},{"fullUrl":"Condition/b740b7c6-8827-4940-9e62-9e18831cc276","resource":{"resourceType":"Condition","id":"b740b7c6-8827-4940-9e62-9e18831cc276","code":{"coding":[{"system":"http://snomed.info/sct","code":"91554004"}]},"subject":{"reference":"Patient/a19262a5-2f26-4e08-a8fb-a1b4826cd77b"},"onsetDateTime":"2022-02-17T00:00:00+00:00"},"request":{"method":"POST","url":"Condition"}},{"fullUrl":"Condition/50058256-14b0-44df-8330-fe286210e053","resource":{"resourceType":"Condition","id":"50058256-14b0-44df-8330-fe286210e053","code":{"coding":[{"system":"http://snomed.info/sct","code":"3951002"}]},"subject":{"reference":"Patient/a19262a5-2f26-4e08-a8fb-a1b4826cd77b"},"onsetDateTime":"2022-10-25T00:00:00+00:00"},"request":{"method":"POST","url":"Condition"}},{"fullUrl":"Condition/8f1beb5f-7c63-4372-8244-903befb712bb","resource":{"resourceType":"Condition","id":"8f1beb5f-7c63-4372-8244-903befb712bb","code":{"coding":[{"system":"http://snomed.info/sct","code":"21522001"}]},"subject":{"reference":"Patient/a19262a5-2f26-4e08-a8fb-a1b4826cd77b"},"onsetDateTime":"2022-07-17T00:00:00+00:00"},"request":{"method":"POST","url":"Condition"}},{"fullUrl":"Condition/5cf8dbbc-7913-4e03-91c6-868a1f47d355","resource":{"resourceType":"Condition","id":"5cf8dbbc-7913-4e03-91c6-868a1f47d355","code":{"coding":[{"system":"http://snomed.info/sct","code":"31070006"}]},"subject":{"reference":"Patient/a19262a5-2f26-4e08-a8fb-a1b4826cd77b"},"onsetDateTime":"2022-12-22T00:00:00+00:00"},"request":{"method":"POST","url":"Condition"}},{"fullUrl":"Condition/98211318-379a-428d-988d-3a726c24d901","resource":{"resourceType":"Condition","id":"98211318-379a-428d-988d-3a726c24d901","code":{"coding":[{"system":"http://snomed.info/sct","code":"709977002"}]},"subject":{"reference":"Patient/a19262a5-2f26-4e08-a8fb-a1b4826cd77b"},"onsetDateTime":"2022-10-13T00:00:00+00:00"},"request":{"method":"POST","url":"Condition"}},{"fullUrl":"Observation/54f0fe5d-847f-4246-b3f9-4514c15a4316","resource":{"resourceType":"Observation","id":"54f0fe5d-847f-4246-b3f9-4514c15a4316","status":"final","code":{"coding":[{"system":"http://loinc.org","code":"26464-8"}]},"subject":{"reference":"Patient/a19262a5-2f26-4e08-a8fb-a1b4826cd77b"},"effectiveDateTime":"2022-05-22T00:00:00+00:00","valueQuantity":{"value":4.6}},"request":{"method":"POST","url":"Observation"}},{"fullUrl":"Observation/7b163abd-2e84-41e1-9460-4b06b01dc650","resource":{"resourceType":"Observation","id":"7b163abd-2e84-41e1-9460-4b06b01dc650","status":"final","code":{"coding":[{"system":"http://loinc.org","code":"26464-8"}]},"subject":{"reference":"Patient/a19262a5-2f26-4e08-a8fb-a1b4826cd77b"},"effectiveDateTime":"2022-08-06T00:00:00+00:00","valueQuantity":{"value":5.3}},"request":{"method":"POST","url":"Observation"}},{"fullUrl":"Observation/ec1af382-3979-4657-bc90-7587ec6e8ecc","resource":{"resourceType":"Observation","id":"ec1af382-3979-4657-bc90-7587ec6e8ecc","status":"final","code":{"coding":[{"system":"http://loinc.org","code":"804-5"}]},"subject":{"reference":"Patient/a19262a5-2f26-4e08-a8fb-a1b4826cd77b"},"effectiveDateTime":"2022-06-13T00:00:00+00:00","valueCodeableConcept":{"coding":[{"system":"snomed","code":"123456","display":"fake snomed"}]}},"request":{"method":"POST","url":"Observation"}},{"fullUrl":"Observation/7720207c-51b3-458e-8cc4-6f1b97255db1","resource":{"resourceType":"Observation","id":"7720207c-51b3-458e-8cc4-6f1b97255db1","status":"final","code":{"coding":[{"system":"http://loinc.org","code":"804-5"}]},"subject":{"reference":"Patient/a19262a5-2f26-4e08-a8fb-a1b4826cd77b"},"effectiveDateTime":"2022-06-10T00:00:00+00:00","valueCodeableConcept":{"coding":[{"system":"snomed","code":"123456","display":"fake snomed"}]}},"request":{"method":"POST","url":"Observation"}},{"fullUrl":"Observation/e57ef654-cb72-437a-a91e-d0bf1d54dae5","resource":{"resourceType":"Observation","id":"e57ef654-cb72-437a-a91e-d0bf1d54dae5","status":"final","code":{"coding":[{"system":"http://www.ama-assn.org/go/cpt","code":"85048"}]},"subject":{"reference":"Patient/a19262a5-2f26-4e08-a8fb-a1b4826cd77b"},"effectiveDateTime":"2022-07-08T00:00:00+00:00","valueCodeableConcept":{"coding":[{"system":"snomed","code":"123456","display":"fake snomed"}]}},"request":{"method":"POST","url":"Observation"}},{"fullUrl":"Observation/5f2535c0-f70c-4468-8e9b-043b76252487","resource":{"resourceType":"Observation","id":"5f2535c0-f70c-4468-8e9b-043b76252487","status":"final","code":{"coding":[{"system":"http://loinc.org","code":"49498-9"}]},"subject":{"reference":"Patient/a19262a5-2f26-4e08-a8fb-a1b4826cd77b"},"effectiveDateTime":"2022-08-27T00:00:00+00:00"},"request":{"method":"POST","url":"Observation"}},{"fullUrl":"Observation/4b45fe52-8f94-4c09-97f7-4b4238a46a7e","resource":{"resourceType":"Observation","id":"4b45fe52-8f94-4c09-97f7-4b4238a46a7e","status":"final","code":{"coding":[{"system":"http://loinc.org","code":"49498-9"}]},"subject":{"reference":"Patient/a19262a5-2f26-4e08-a8fb-a1b4826cd77b"},"effectiveDateTime":"2022-06-26T00:00:00+00:00"},"request":{"method":"POST","url":"Observation"}},{"fullUrl":"Observation/ba15d065-781d-4989-a1d7-08c3c195cd32","resource":{"resourceType":"Observation","id":"ba15d065-781d-4989-a1d7-08c3c195cd32","status":"final","code":{"coding":[{"system":"http://loinc.org","code":"49498-9"}]},"subject":{"reference":"Patient/a19262a5-2f26-4e08-a8fb-a1b4826cd77b"},"effectiveDateTime":"2022-07-09T00:00:00+00:00"},"request":{"method":"POST","url":"Observation"}},{"fullUrl":"Procedure/27b08039-ffad-4fcc-837e-4733fe78219e","resource":{"resourceType":"Procedure","id":"27b08039-ffad-4fcc-837e-4733fe78219e","status":"completed","code":{"coding":[{"system":"http://snomed.info/sct","code":"115006"}]},"subject":{"reference":"Patient/a19262a5-2f26-4e08-a8fb-a1b4826cd77b"},"performedDateTime":"2022-11-24T00:00:00+00:00"},"request":{"method":"POST","url":"Procedure"}},{"fullUrl":"Procedure/7ba574e2-04fc-45f3-97ad-e62a503ecc6e","resource":{"resourceType":"Procedure","id":"7ba574e2-04fc-45f3-97ad-e62a503ecc6e","status":"completed","code":{"coding":[{"system":"http://snomed.info/sct","code":"146005"}]},"subject":{"reference":"Patient/a19262a5-2f26-4e08-a8fb-a1b4826cd77b"},"performedDateTime":"2022-03-26T00:00:00+00:00"},"request":{"method":"POST","url":"Procedure"}},{"fullUrl":"Procedure/31f62955-0c73-43f7-b0e8-b44d459ee322","resource":{"resourceType":"Procedure","id":"31f62955-0c73-43f7-b0e8-b44d459ee322","status":"completed","code":{"coding":[{"system":"http://snomed.info/sct","code":"104001"}]},"subject":{"reference":"Patient/a19262a5-2f26-4e08-a8fb-a1b4826cd77b"},"performedDateTime":"2022-06-30T00:00:00+00:00"},"request":{"method":"POST","url":"Procedure"}},{"fullUrl":"MedicationStatement/f909e818-d164-474e-9af7-a10524796825","resource":{"resourceType":"MedicationStatement","id":"f909e818-d164-474e-9af7-a10524796825","status":"completed","medicationCodeableConcept":{"coding":[{"system":"http://www.nlm.nih.gov/research/umls/rxnorm","code":"10395"}]},"subject":{"reference":"Patient/a19262a5-2f26-4e08-a8fb-a1b4826cd77b"},"effectiveDateTime":"2022-03-25T00:00:00+00:00","dosage":[{"doseAndRate":[{"doseQuantity":{"value":2,"unit":"TAB","system":"http://terminology.hl7.org/CodeSystem/v3-orderableDrugForm","code":"TAB"}}]}]},"request":{"method":"POST","url":"MedicationStatement"}},{"fullUrl":"MedicationStatement/4d05af68-d6d5-4c5f-98df-2a9d0f24db54","resource":{"resourceType":"MedicationStatement","id":"4d05af68-d6d5-4c5f-98df-2a9d0f24db54","status":"completed","medicationCodeableConcept":{"coding":[{"system":"http://www.nlm.nih.gov/research/umls/rxnorm","code":"7984"}]},"subject":{"reference":"Patient/a19262a5-2f26-4e08-a8fb-a1b4826cd77b"},"effectiveDateTime":"2022-08-22T00:00:00+00:00","dosage":[{"doseAndRate":[{"doseQuantity":{"value":3.3,"unit":"TAB","system":"http://terminology.hl7.org/CodeSystem/v3-orderableDrugForm","code":"TAB"}}]}]},"request":{"method":"POST","url":"MedicationStatement"}},{"fullUrl":"MedicationStatement/08556f28-fbe7-45c6-b5ce-fbb634bda508","resource":{"resourceType":"MedicationStatement","id":"08556f28-fbe7-45c6-b5ce-fbb634bda508","status":"completed","medicationCodeableConcept":{"coding":[{"system":"http://www.nlm.nih.gov/research/umls/rxnorm","code":"7984"}]},"subject":{"reference":"Patient/a19262a5-2f26-4e08-a8fb-a1b4826cd77b"},"effectiveDateTime":"2022-02-09T00:00:00+00:00","dosage":[{"doseAndRate":[{"doseQuantity":{"value":4.5,"unit":"TAB","system":"http://terminology.hl7.org/CodeSystem/v3-orderableDrugForm","code":"TAB"}}]}]},"request":{"method":"POST","url":"MedicationStatement"}},{"fullUrl":"MedicationStatement/6b322849-19ba-4bc7-970d-513efcfa2e80","resource":{"resourceType":"MedicationStatement","id":"6b322849-19ba-4bc7-970d-513efcfa2e80","status":"completed","medicationCodeableConcept":{"coding":[{"system":"http://www.nlm.nih.gov/research/umls/rxnorm","code":"7980"}]},"subject":{"reference":"Patient/a19262a5-2f26-4e08-a8fb-a1b4826cd77b"},"effectiveDateTime":"2022-12-10T00:00:00+00:00","dosage":[{"doseAndRate":[{"doseQuantity":{"value":5.1,"unit":"TAB","system":"http://terminology.hl7.org/CodeSystem/v3-orderableDrugForm","code":"TAB"}}]}]},"request":{"method":"POST","url":"MedicationStatement"}},{"fullUrl":"MedicationStatement/361995d1-d79d-45fb-b312-739c7093bdbb","resource":{"resourceType":"MedicationStatement","id":"361995d1-d79d-45fb-b312-739c7093bdbb","status":"completed","medicationCodeableConcept":{"coding":[{"system":"http://www.nlm.nih.gov/research/umls/rxnorm","code":"8698"}]},"subject":{"reference":"Patient/a19262a5-2f26-4e08-a8fb-a1b4826cd77b"},"effectiveDateTime":"2022-08-01T00:00:00+00:00","dosage":[{"doseAndRate":[{"doseQuantity":{"value":3,"unit":"TAB","system":"http://terminology.hl7.org/CodeSystem/v3-orderableDrugForm","code":"TAB"}}]}]},"request":{"method":"POST","url":"MedicationStatement"}},{"fullUrl":"MedicationStatement/8b9ebc27-fe6c-4e9b-b4a8-8d7957bf9507","resource":{"resourceType":"MedicationStatement","id":"8b9ebc27-fe6c-4e9b-b4a8-8d7957bf9507","status":"completed","medicationCodeableConcept":{"coding":[{"system":"http://www.nlm.nih.gov/research/umls/rxnorm","code":"7984"}]},"subject":{"reference":"Patient/a19262a5-2f26-4e08-a8fb-a1b4826cd77b"},"effectiveDateTime":"2022-10-21T00:00:00+00:00","dosage":[{"doseAndRate":[{"doseQuantity":{"value":4.8,"unit":"TAB","system":"http://terminology.hl7.org/CodeSystem/v3-orderableDrugForm","code":"TAB"}}]}]},"request":{"method":"POST","url":"MedicationStatement"}},{"fullUrl":"Encounter/4deb6a57-645b-4db3-b87e-c72d2ce1dddc","resource":{"resourceType":"Encounter","id":"4deb6a57-645b-4db3-b87e-c72d2ce1dddc","status":"finished","class":{"system":"http://terminology.hl7.org/CodeSystem/v3-ActCode","code":"IMP","display":"inpatient encounter"},"type":[{"coding":[{"system":"http://terminology.hl7.org/CodeSystem/encounter-type","code":"OKI"}]}],"subject":{"reference":"Patient/a19262a5-2f26-4e08-a8fb-a1b4826cd77b"},"period":{"start":"2022-06-10T00:00:00+00:00","end":"2022-06-17T00:00:00+00:00"}},"request":{"method":"POST","url":"Encounter"}},{"fullUrl":"Encounter/5a4df37e-0541-4b9e-bb74-bda7fca81866","resource":{"resourceType":"Encounter","id":"5a4df37e-0541-4b9e-bb74-bda7fca81866","status":"finished","class":{"system":"http://terminology.hl7.org/CodeSystem/v3-ActCode","code":"IMP","display":"inpatient encounter"},"type":[{"coding":[{"system":"http://terminology.hl7.org/CodeSystem/encounter-type","code":"CCS60"}]}],"subject":{"reference":"Patient/a19262a5-2f26-4e08-a8fb-a1b4826cd77b"},"period":{"start":"2022-07-10T00:00:00+00:00","end":"2022-07-12T00:00:00+00:00"}},"request":{"method":"POST","url":"Encounter"}},{"fullUrl":"Encounter/bfdd9700-5419-4bcb-9641-00be9cd38f48","resource":{"resourceType":"Encounter","id":"bfdd9700-5419-4bcb-9641-00be9cd38f48","status":"finished","class":{"system":"http://terminology.hl7.org/CodeSystem/v3-ActCode","code":"IMP","display":"inpatient encounter"},"type":[{"coding":[{"system":"http://terminology.hl7.org/CodeSystem/encounter-type","code":"BD/BM-clin"}]}],"subject":{"reference":"Patient/a19262a5-2f26-4e08-a8fb-a1b4826cd77b"},"period":{"start":"2022-07-13T00:00:00+00:00","end":"2022-07-13T00:00:00+00:00"}},"request":{"method":"POST","url":"Encounter"}},{"fullUrl":"Encounter/f2c4322b-4f09-4997-92fc-b4a1defd39ae","resource":{"resourceType":"Encounter","id":"f2c4322b-4f09-4997-92fc-b4a1defd39ae","status":"finished","class":{"system":"http://terminology.hl7.org/CodeSystem/v3-ActCode","code":"HH","display":"home health"},"type":[{"coding":[{"system":"http://terminology.hl7.org/CodeSystem/encounter-type","code":"CCS60"}]}],"subject":{"reference":"Patient/a19262a5-2f26-4e08-a8fb-a1b4826cd77b"},"period":{"start":"2022-08-06T00:00:00+00:00","end":"2022-08-08T00:00:00+00:00"}},"request":{"method":"POST","url":"Encounter"}},{"fullUrl":"Encounter/b2a5066d-debf-4bbc-8fe7-20dd71478451","resource":{"resourceType":"Encounter","id":"b2a5066d-debf-4bbc-8fe7-20dd71478451","status":"finished","class":{"system":"http://terminology.hl7.org/CodeSystem/v3-ActCode","code":"ACUTE","display":"inpatient acute"},"type":[{"coding":[{"system":"http://terminology.hl7.org/CodeSystem/encounter-type","code":"OKI"}]}],"subject":{"reference":"Patient/a19262a5-2f26-4e08-a8fb-a1b4826cd77b"},"period":{"start":"2022-08-26T00:00:00+00:00","end":"2022-08-30T00:00:00+00:00"}},"request":{"method":"POST","url":"Encounter"}},{"fullUrl":"Location/dd75e3d2-e80f-492a-80b8-11d8947a4da6","resource":{"resourceType":"Location","id":"dd75e3d2-e80f-492a-80b8-11d8947a4da6","status":"active","name":"Baker, Coleman and Richardson","telecom":[{"system":"phone","value":"227.415.3996","use":"home"}],"address":{"use":"work","line":["297 Decker Mill Suite 231"],"city":"Cochranland","state":"IA","postalCode":"46098"}},"request":{"method":"POST","url":"Location"}},{"fullUrl":"Observation/0eff1aa7-1885-4866-915d-e60c0abe99ea","resource":{"resourceType":"Observation","id":"0eff1aa7-1885-4866-915d-e60c0abe99ea","status":"final","code":{"coding":[{"system":"http://loinc.org","code":"81956-5"}]},"subject":{"reference":"Patient/a19262a5-2f26-4e08-a8fb-a1b4826cd77b"},"effectiveDateTime":"2022-08-16T00:00:00+00:00","valueDateTime":"2022-08-07T00:00:00+00:00"},"request":{"method":"POST","url":"Observation"}}]}