{
    "resourceType": "Bundle",
    "id": "e577f97d-c30f-4d08-8a63-897bf57d7d63",
    "type": "collection",
    "entry": [{
            "fullUrl": "Patient/02f020e9-0ff6-4d19-ae8e-04344c52b9e7",
            "resource": {
                "resourceType": "Patient",
                "id": "02f020e9-0ff6-4d19-ae8e-04344c52b9e7",
                "meta": {
                    "profile": [
                        "http://hl7.org/fhir/us/core/StructureDefinition/us-core-patient"
                    ]
                },
                "extension": [{
                        "extension": [{
                                "url": "ombCategory",
                                "valueCoding": {
                                    "system": "http://terminology.hl7.org/CodeSystem/v3-NullFlavor",
                                    "code": "UNK",
                                    "display": "unknown"
                                }
                            },
                            {
                                "url": "text",
                                "valueString": "unknown"
                            }
                        ],
                        "url": "http://hl7.org/fhir/us/core/StructureDefinition/us-core-race"
                    },
                    {
                        "extension": [{
                                "url": "ombCategory",
                                "valueCoding": {
                                    "system": "urn:oid:2.16.840.1.113883.6.238",
                                    "code": "2135-2",
                                    "display": "Hispanic or Latino"
                                }
                            },
                            {
                                "url": "text",
                                "valueString": "Hispanic or Latino"
                            }
                        ],
                        "url": "http://hl7.org/fhir/us/core/StructureDefinition/us-core-ethnicity"
                    }
                ],
                "identifier": [{
                    "type": {
                        "coding": [{
                            "system": "http://terminology.hl7.org/CodeSystem/v2-0203",
                            "code": "MR"
                        }]
                    },
                    "system": "urn:fhirgen:mrn",
                    "value": "759-54-3022"
                }],
                "name": [{
                    "family": "Murphy",
                    "given": [
                        "Anthony"
                    ]
                }],
                "telecom": [{
                    "system": "phone",
                    "value": "473-091-4354",
                    "use": "home"
                }],
                "gender": "male",
                "birthDate": "1983-01-04",
                "address": [{
                    "line": [
                        "598 Stephen Tunnel"
                    ],
                    "city": "Lamberg",
                    "state": "WY",
                    "postalCode": "99717"
                }]
            }
        },
        {
            "fullUrl": "Observation/274e7d08-bff7-4b98-be1d-0ae84f8fed74",
            "resource": {
                "resourceType": "Observation",
                "id": "274e7d08-bff7-4b98-be1d-0ae84f8fed74",
                "meta": {
                    "profile": [
                        "http://hl7.org/fhir/us/core/StructureDefinition/us-core-observation-lab"
                    ]
                },
                "status": "final",
                "category": [{
                    "coding": [{
                        "system": "http://terminology.hl7.org/CodeSystem/observation-category",
                        "code": "laboratory",
                        "display": "Laboratory"
                    }]
                }],
                "code": {
                    "coding": [{
                        "system": "http://loinc.org",
                        "code": "31147-2"
                    }]
                },
                "subject": {
                    "reference": "Patient/02f020e9-0ff6-4d19-ae8e-04344c52b9e7"
                },
                "effectiveDateTime": "2022-07-10T00:00:00+00:00",
                "valueRatio": {
                    "numerator": {
                        "value": 1
                    },
                    "denominator": {
                        "value": 4
                    }
                }
            }
        },
        {
            "fullUrl": "Observation/89da0da1-da69-4863-8106-fbd2166b2cb3",
            "resource": {
                "resourceType": "Observation",
                "id": "89da0da1-da69-4863-8106-fbd2166b2cb3",
                "meta": {
                    "profile": [
                        "http://hl7.org/fhir/us/core/StructureDefinition/us-core-observation-lab"
                    ]
                },
                "status": "final",
                "category": [{
                    "coding": [{
                        "system": "http://terminology.hl7.org/CodeSystem/observation-category",
                        "code": "laboratory",
                        "display": "Laboratory"
                    }]
                }],
                "code": {
                    "coding": [{
                        "system": "http://loinc.org",
                        "code": "5394-2"
                    }]
                },
                "subject": {
                    "reference": "Patient/02f020e9-0ff6-4d19-ae8e-04344c52b9e7"
                },
                "effectiveDateTime": "2022-10-24T00:00:00+00:00",
                "valueRatio": {
                    "numerator": {
                        "value": 1
                    },
                    "denominator": {
                        "value": 32
                    }
                }
            }
        },
        {
            "fullUrl": "Condition/0940b6d8-8039-462c-9731-923ce7be7b54",
            "resource": {
                "resourceType": "Condition",
                "id": "0940b6d8-8039-462c-9731-923ce7be7b54",
                "meta": {
                    "profile": [
                        "http://hl7.org/fhir/us/core/StructureDefinition/us-core-condition"
                    ]
                },
                "clinicalStatus": {
                    "coding": [{
                        "system": "http://terminology.hl7.org/CodeSystem/condition-clinical",
                        "code": "active",
                        "display": "Active"
                    }]
                },
                "category": [{
                    "coding": [{
                        "system": "http://terminology.hl7.org/CodeSystem/condition-category",
                        "code": "problem-list-item"
                    }]
                }],
                "code": {
                    "coding": [{
                        "system": "http://snomed.info/sct",
                        "code": "709977002"
                    }]
                },
                "subject": {
                    "reference": "Patient/02f020e9-0ff6-4d19-ae8e-04344c52b9e7"
                },
                "onsetDateTime": "2022-05-10T00:00:00+00:00"
            }
        },
        {
            "fullUrl": "Condition/410b6bdb-ddb7-495c-9e84-17b2bb00762e",
            "resource": {
                "resourceType": "Condition",
                "id": "410b6bdb-ddb7-495c-9e84-17b2bb00762e",
                "meta": {
                    "profile": [
                        "http://hl7.org/fhir/us/core/StructureDefinition/us-core-condition"
                    ]
                },
                "clinicalStatus": {
                    "coding": [{
                        "system": "http://terminology.hl7.org/CodeSystem/condition-clinical",
                        "code": "active",
                        "display": "Active"
                    }]
                },
                "category": [{
                    "coding": [{
                        "system": "http://terminology.hl7.org/CodeSystem/condition-category",
                        "code": "problem-list-item"
                    }]
                }],
                "code": {
                    "coding": [{
                        "system": "http://snomed.info/sct",
                        "code": "44882003"
                    }]
                },
                "subject": {
                    "reference": "Patient/02f020e9-0ff6-4d19-ae8e-04344c52b9e7"
                },
                "onsetDateTime": "2022-06-09T00:00:00+00:00"
            }
        },
        {
            "fullUrl": "Condition/169d458a-4be0-4cb5-a2aa-56979256fe28",
            "resource": {
                "resourceType": "Condition",
                "id": "169d458a-4be0-4cb5-a2aa-56979256fe28",
                "meta": {
                    "profile": [
                        "http://hl7.org/fhir/us/core/StructureDefinition/us-core-condition"
                    ]
                },
                "clinicalStatus": {
                    "coding": [{
                        "system": "http://terminology.hl7.org/CodeSystem/condition-clinical",
                        "code": "active",
                        "display": "Active"
                    }]
                },
                "category": [{
                    "coding": [{
                        "system": "http://terminology.hl7.org/CodeSystem/condition-category",
                        "code": "problem-list-item"
                    }]
                }],
                "code": {
                    "coding": [{
                        "system": "http://snomed.info/sct",
                        "code": "44882003"
                    }]
                },
                "subject": {
                    "reference": "Patient/02f020e9-0ff6-4d19-ae8e-04344c52b9e7"
                },
                "onsetDateTime": "2022-06-18T00:00:00+00:00"
            }
        },
        {
            "fullUrl": "Observation/ac49c92e-8006-49cb-9467-b084345dbeed",
            "resource": {
                "resourceType": "Observation",
                "id": "ac49c92e-8006-49cb-9467-b084345dbeed",
                "meta": {
                    "profile": [
                        "http://hl7.org/fhir/us/core/StructureDefinition/us-core-observation-lab"
                    ]
                },
                "status": "final",
                "category": [{
                    "coding": [{
                        "system": "http://terminology.hl7.org/CodeSystem/observation-category",
                        "code": "laboratory",
                        "display": "Laboratory"
                    }]
                }],
                "code": {
                    "coding": [{
                        "system": "http://loinc.org",
                        "code": "804-5"
                    }]
                },
                "subject": {
                    "reference": "Patient/02f020e9-0ff6-4d19-ae8e-04344c52b9e7"
                },
                "effectiveDateTime": "2022-09-19T00:00:00+00:00",
                "valueQuantity": {
                    "value": 10.2
                }
            }
        },
        {
            "fullUrl": "Observation/96f54126-3825-4e68-ac4c-2ddf4481d334",
            "resource": {
                "resourceType": "Observation",
                "id": "96f54126-3825-4e68-ac4c-2ddf4481d334",
                "meta": {
                    "profile": [
                        "http://hl7.org/fhir/us/core/StructureDefinition/us-core-observation-lab"
                    ]
                },
                "status": "final",
                "category": [{
                    "coding": [{
                        "system": "http://terminology.hl7.org/CodeSystem/observation-category",
                        "code": "laboratory",
                        "display": "Laboratory"
                    }]
                }],
                "code": {
                    "coding": [{
                        "system": "http://loinc.org",
                        "code": "804-5"
                    }]
                },
                "subject": {
                    "reference": "Patient/02f020e9-0ff6-4d19-ae8e-04344c52b9e7"
                },
                "effectiveDateTime": "2022-11-16T00:00:00+00:00",
                "valueQuantity": {
                    "value": 8.5
                }
            }
        },
        {
            "fullUrl": "Observation/c20d7ca4-404a-47d9-a53d-c4012ffe7693",
            "resource": {
                "resourceType": "Observation",
                "id": "c20d7ca4-404a-47d9-a53d-c4012ffe7693",
                "meta": {
                    "profile": [
                        "http://hl7.org/fhir/us/core/StructureDefinition/us-core-observation-lab"
                    ]
                },
                "status": "final",
                "category": [{
                    "coding": [{
                        "system": "http://terminology.hl7.org/CodeSystem/observation-category",
                        "code": "laboratory",
                        "display": "Laboratory"
                    }]
                }],
                "code": {
                    "coding": [{
                        "system": "http://loinc.org",
                        "code": "26464-8"
                    }]
                },
                "subject": {
                    "reference": "Patient/02f020e9-0ff6-4d19-ae8e-04344c52b9e7"
                },
                "effectiveDateTime": "2022-10-28T00:00:00+00:00",
                "valueQuantity": {
                    "value": 7.5
                }
            }
        },
        {
            "fullUrl": "Observation/0a60022e-cea2-42d4-81e6-48b7ab3d67a3",
            "resource": {
                "resourceType": "Observation",
                "id": "0a60022e-cea2-42d4-81e6-48b7ab3d67a3",
                "meta": {
                    "profile": [
                        "http://hl7.org/fhir/us/core/StructureDefinition/us-core-bmi"
                    ]
                },
                "status": "final",
                "category": [{
                    "coding": [{
                        "system": "http://terminology.hl7.org/CodeSystem/observation-category",
                        "code": "vital-signs",
                        "display": "Vital Signs"
                    }]
                }],
                "code": {
                    "coding": [{
                        "system": "http://loinc.org",
                        "code": "39156-5"
                    }]
                },
                "subject": {
                    "reference": "Patient/02f020e9-0ff6-4d19-ae8e-04344c52b9e7"
                },
                "effectiveDateTime": "2022-07-12T00:00:00+00:00",
                "valueQuantity": {
                    "value": 20.52,
                    "unit": "kg/m2",
                    "system": "http://unitsofmeasure.org",
                    "code": "kg/m2"
                }
            }
        },
        {
            "fullUrl": "Observation/f4160d06-034e-429d-b250-22ca750837e0",
            "resource": {
                "resourceType": "Observation",
                "id": "f4160d06-034e-429d-b250-22ca750837e0",
                "meta": {
                    "profile": [
                        "http://hl7.org/fhir/us/core/StructureDefinition/us-core-head-circumference"
                    ]
                },
                "status": "final",
                "category": [{
                    "coding": [{
                        "system": "http://terminology.hl7.org/CodeSystem/observation-category",
                        "code": "vital-signs",
                        "display": "Vital Signs"
                    }]
                }],
                "code": {
                    "coding": [{
                        "system": "http://loinc.org",
                        "code": "9843-4"
                    }]
                },
                "subject": {
                    "reference": "Patient/02f020e9-0ff6-4d19-ae8e-04344c52b9e7"
                },
                "effectiveDateTime": "2022-09-11T00:00:00+00:00",
                "valueQuantity": {
                    "value": 8.4,
                    "unit": "Inch",
                    "system": "http://unitsofmeasure.org",
                    "code": "[in_i]"
                }
            }
        },
        {
            "fullUrl": "Observation/ae17f0bc-7cb9-4c80-8b76-28eb0a7e34db",
            "resource": {
                "resourceType": "Observation",
                "id": "ae17f0bc-7cb9-4c80-8b76-28eb0a7e34db",
                "meta": {
                    "profile": [
                        "http://hl7.org/fhir/us/core/StructureDefinition/us-core-body-height"
                    ]
                },
                "status": "final",
                "category": [{
                    "coding": [{
                        "system": "http://terminology.hl7.org/CodeSystem/observation-category",
                        "code": "vital-signs",
                        "display": "Vital Signs"
                    }]
                }],
                "code": {
                    "coding": [{
                        "system": "http://loinc.org",
                        "code": "8302-2"
                    }]
                },
                "subject": {
                    "reference": "Patient/02f020e9-0ff6-4d19-ae8e-04344c52b9e7"
                },
                "effectiveDateTime": "2022-05-22T00:00:00+00:00",
                "valueQuantity": {
                    "value": 82.3,
                    "unit": "Inch",
                    "system": "http://unitsofmeasure.org",
                    "code": "[in_i]"
                }
            }
        },
        {
            "fullUrl": "Observation/b5c15db2-0aed-4e54-88c7-b22043531bab",
            "resource": {
                "resourceType": "Observation",
                "id": "b5c15db2-0aed-4e54-88c7-b22043531bab",
                "meta": {
                    "profile": [
                        "http://hl7.org/fhir/us/core/StructureDefinition/us-core-body-weight"
                    ]
                },
                "status": "final",
                "category": [{
                    "coding": [{
                        "system": "http://terminology.hl7.org/CodeSystem/observation-category",
                        "code": "vital-signs",
                        "display": "Vital Signs"
                    }]
                }],
                "code": {
                    "coding": [{
                        "system": "http://loinc.org",
                        "code": "29463-7"
                    }]
                },
                "subject": {
                    "reference": "Patient/02f020e9-0ff6-4d19-ae8e-04344c52b9e7"
                },
                "effectiveDateTime": "2022-12-05T00:00:00+00:00",
                "valueQuantity": {
                    "value": 58.16,
                    "unit": "kilogram",
                    "system": "http://unitsofmeasure.org",
                    "code": "kg"
                }
            }
        },
        {
            "fullUrl": "Observation/4e7abc9c-0130-4d95-85b4-ac03aae2b2c1",
            "resource": {
                "resourceType": "Observation",
                "id": "4e7abc9c-0130-4d95-85b4-ac03aae2b2c1",
                "meta": {
                    "profile": [
                        "http://hl7.org/fhir/us/core/StructureDefinition/us-core-body-temperature"
                    ]
                },
                "status": "final",
                "category": [{
                    "coding": [{
                        "system": "http://terminology.hl7.org/CodeSystem/observation-category",
                        "code": "vital-signs",
                        "display": "Vital Signs"
                    }]
                }],
                "code": {
                    "coding": [{
                        "system": "http://loinc.org",
                        "code": "8310-5"
                    }]
                },
                "subject": {
                    "reference": "Patient/02f020e9-0ff6-4d19-ae8e-04344c52b9e7"
                },
                "effectiveDateTime": "2022-04-14T00:00:00+00:00",
                "valueQuantity": {
                    "value": 81.59,
                    "unit": "Degrees Fahrenheit",
                    "system": "http://unitsofmeasure.org",
                    "code": "[degF]"
                }
            }
        },
        {
            "fullUrl": "Observation/30c2def7-7dd4-4d71-8299-6e776c63cdba",
            "resource": {
                "resourceType": "Observation",
                "id": "30c2def7-7dd4-4d71-8299-6e776c63cdba",
                "meta": {
                    "profile": [
                        "http://hl7.org/fhir/us/core/StructureDefinition/us-core-heart-rate"
                    ]
                },
                "status": "final",
                "category": [{
                    "coding": [{
                        "system": "http://terminology.hl7.org/CodeSystem/observation-category",
                        "code": "vital-signs",
                        "display": "Vital Signs"
                    }]
                }],
                "code": {
                    "coding": [{
                        "system": "http://loinc.org",
                        "code": "8867-4"
                    }]
                },
                "subject": {
                    "reference": "Patient/02f020e9-0ff6-4d19-ae8e-04344c52b9e7"
                },
                "effectiveDateTime": "2022-05-20T00:00:00+00:00",
                "valueQuantity": {
                    "value": 99.9,
                    "unit": "Per Minute",
                    "system": "http://unitsofmeasure.org",
                    "code": "/min"
                }
            }
        },
        {
            "fullUrl": "Observation/1bf41c8e-4af2-4549-8da5-9afe2c1e3fdc",
            "resource": {
                "resourceType": "Observation",
                "id": "1bf41c8e-4af2-4549-8da5-9afe2c1e3fdc",
                "meta": {
                    "profile": [
                        "http://hl7.org/fhir/us/core/StructureDefinition/us-core-heart-rate"
                    ]
                },
                "status": "final",
                "category": [{
                    "coding": [{
                        "system": "http://terminology.hl7.org/CodeSystem/observation-category",
                        "code": "vital-signs",
                        "display": "Vital Signs"
                    }]
                }],
                "code": {
                    "coding": [{
                        "system": "http://loinc.org",
                        "code": "8867-4"
                    }]
                },
                "subject": {
                    "reference": "Patient/02f020e9-0ff6-4d19-ae8e-04344c52b9e7"
                },
                "effectiveDateTime": "2022-10-16T00:00:00+00:00",
                "valueQuantity": {
                    "value": 98.1,
                    "unit": "Per Minute",
                    "system": "http://unitsofmeasure.org",
                    "code": "/min"
                }
            }
        },
        {
            "fullUrl": "Patient/76a8d672-f0a5-4e5b-8f64-708a5592dc02",
            "resource": {
                "resourceType": "Patient",
                "id": "76a8d672-f0a5-4e5b-8f64-708a5592dc02",
                "meta": {
                    "profile": [
                        "http://hl7.org/fhir/us/core/StructureDefinition/us-core-patient"
                    ]
                },
                "extension": [{
                        "extension": [{
                                "url": "ombCategory",
                                "valueCoding": {
                                    "system": "urn:oid:2.16.840.1.113883.6.238",
                                    "code": "1002-5",
                                    "display": "American Indian or Alaska Native"
                                }
                            },
                            {
                                "url": "text",
                                "valueString": "American Indian or Alaska Native"
                            }
                        ],
                        "url": "http://hl7.org/fhir/us/core/StructureDefinition/us-core-race"
                    },
                    {
                        "extension": [{
                                "url": "ombCategory",
                                "valueCoding": {
                                    "system": "urn:oid:2.16.840.1.113883.6.238",
                                    "code": "2135-2",
                                    "display": "Hispanic or Latino"
                                }
                            },
                            {
                                "url": "text",
                                "valueString": "Hispanic or Latino"
                            }
                        ],
                        "url": "http://hl7.org/fhir/us/core/StructureDefinition/us-core-ethnicity"
                    }
                ],
                "identifier": [{
                    "type": {
                        "coding": [{
                            "system": "http://terminology.hl7.org/CodeSystem/v2-0203",
                            "code": "MR"
                        }]
                    },
                    "system": "urn:fhirgen:mrn",
                    "value": "193-41-8922"
                }],
                "name": [{
                    "family": "Watts",
                    "given": [
                        "Michael"
                    ]
                }],
                "telecom": [{
                    "system": "phone",
                    "value": "200-091-8926x399",
                    "use": "home"
                }],
                "gender": "male",
                "birthDate": "2000-12-21",
                "address": [{
                    "line": [
                        "43258 Gates Orchard Apt. 104"
                    ],
                    "city": "Port David",
                    "state": "PA",
                    "postalCode": "00716"
                }]
            }
        },
        {
            "fullUrl": "Observation/3c328221-c2c8-4ce2-ab7d-32f3352cd2c5",
            "resource": {
                "resourceType": "Observation",
                "id": "3c328221-c2c8-4ce2-ab7d-32f3352cd2c5",
                "meta": {
                    "profile": [
                        "http://hl7.org/fhir/us/core/StructureDefinition/us-core-observation-lab"
                    ]
                },
                "status": "final",
                "category": [{
                    "coding": [{
                        "system": "http://terminology.hl7.org/CodeSystem/observation-category",
                        "code": "laboratory",
                        "display": "Laboratory"
                    }]
                }],
                "code": {
                    "coding": [{
                        "system": "http://loinc.org",
                        "code": "31147-2"
                    }]
                },
                "subject": {
                    "reference": "Patient/76a8d672-f0a5-4e5b-8f64-708a5592dc02"
                },
                "effectiveDateTime": "2022-09-17T00:00:00+00:00",
                "valueRatio": {
                    "numerator": {
                        "value": 1
                    },
                    "denominator": {
                        "value": 32
                    }
                }
            }
        },
        {
            "fullUrl": "Observation/8d07f70a-3db0-4189-b4b7-6dfad5eff11b",
            "resource": {
                "resourceType": "Observation",
                "id": "8d07f70a-3db0-4189-b4b7-6dfad5eff11b",
                "meta": {
                    "profile": [
                        "http://hl7.org/fhir/us/core/StructureDefinition/us-core-observation-lab"
                    ]
                },
                "status": "final",
                "category": [{
                    "coding": [{
                        "system": "http://terminology.hl7.org/CodeSystem/observation-category",
                        "code": "laboratory",
                        "display": "Laboratory"
                    }]
                }],
                "code": {
                    "coding": [{
                        "system": "http://loinc.org",
                        "code": "50695-6"
                    }]
                },
                "subject": {
                    "reference": "Patient/76a8d672-f0a5-4e5b-8f64-708a5592dc02"
                },
                "effectiveDateTime": "2022-12-23T00:00:00+00:00",
                "valueRatio": {
                    "numerator": {
                        "value": 1
                    },
                    "denominator": {
                        "value": 4
                    }
                }
            }
        },
        {
            "fullUrl": "Condition/4507a33e-fc56-4aa0-b574-4fbbbe185a8b",
            "resource": {
                "resourceType": "Condition",
                "id": "4507a33e-fc56-4aa0-b574-4fbbbe185a8b",
                "meta": {
                    "profile": [
                        "http://hl7.org/fhir/us/core/StructureDefinition/us-core-condition"
                    ]
                },
                "clinicalStatus": {
                    "coding": [{
                        "system": "http://terminology.hl7.org/CodeSystem/condition-clinical",
                        "code": "active",
                        "display": "Active"
                    }]
                },
                "category": [{
                    "coding": [{
                        "system": "http://terminology.hl7.org/CodeSystem/condition-category",
                        "code": "problem-list-item"
                    }]
                }],
                "code": {
                    "coding": [{
                        "system": "http://snomed.info/sct",
                        "code": "709977002"
                    }]
                },
                "subject": {
                    "reference": "Patient/76a8d672-f0a5-4e5b-8f64-708a5592dc02"
                },
                "onsetDateTime": "2022-06-20T00:00:00+00:00"
            }
        },
        {
            "fullUrl": "Condition/afc38b56-8adf-49d9-86bc-d1924311b266",
            "resource": {
                "resourceType": "Condition",
                "id": "afc38b56-8adf-49d9-86bc-d1924311b266",
                "meta": {
                    "profile": [
                        "http://hl7.org/fhir/us/core/StructureDefinition/us-core-condition"
                    ]
                },
                "clinicalStatus": {
                    "coding": [{
                        "system": "http://terminology.hl7.org/CodeSystem/condition-clinical",
                        "code": "active",
                        "display": "Active"
                    }]
                },
                "category": [{
                    "coding": [{
                        "system": "http://terminology.hl7.org/CodeSystem/condition-category",
                        "code": "problem-list-item"
                    }]
                }],
                "code": {
                    "coding": [{
                        "system": "http://snomed.info/sct",
                        "code": "44882003"
                    }]
                },
                "subject": {
                    "reference": "Patient/76a8d672-f0a5-4e5b-8f64-708a5592dc02"
                },
                "onsetDateTime": "2022-03-06T00:00:00+00:00"
            }
        },
        {
            "fullUrl": "Condition/5a067aea-ecd8-42dd-a119-33d4f3a5ffa4",
            "resource": {
                "resourceType": "Condition",
                "id": "5a067aea-ecd8-42dd-a119-33d4f3a5ffa4",
                "meta": {
                    "profile": [
                        "http://hl7.org/fhir/us/core/StructureDefinition/us-core-condition"
                    ]
                },
                "clinicalStatus": {
                    "coding": [{
                        "system": "http://terminology.hl7.org/CodeSystem/condition-clinical",
                        "code": "active",
                        "display": "Active"
                    }]
                },
                "category": [{
                    "coding": [{
                        "system": "http://terminology.hl7.org/CodeSystem/condition-category",
                        "code": "problem-list-item"
                    }]
                }],
                "code": {
                    "coding": [{
                        "system": "http://snomed.info/sct",
                        "code": "44882003"
                    }]
                },
                "subject": {
                    "reference": "Patient/76a8d672-f0a5-4e5b-8f64-708a5592dc02"
                },
                "onsetDateTime": "2022-12-26T00:00:00+00:00"
            }
        },
        {
            "fullUrl": "Condition/e8ee3357-176e-4197-83f2-a18eb5da1d68",
            "resource": {
                "resourceType": "Condition",
                "id": "e8ee3357-176e-4197-83f2-a18eb5da1d68",
                "meta": {
                    "profile": [
                        "http://hl7.org/fhir/us/core/StructureDefinition/us-core-condition"
                    ]
                },
                "clinicalStatus": {
                    "coding": [{
                        "system": "http://terminology.hl7.org/CodeSystem/condition-clinical",
                        "code": "active",
                        "display": "Active"
                    }]
                },
                "category": [{
                    "coding": [{
                        "system": "http://terminology.hl7.org/CodeSystem/condition-category",
                        "code": "problem-list-item"
                    }]
                }],
                "code": {
                    "coding": [{
                        "system": "http://snomed.info/sct",
                        "code": "418290006"
                    }]
                },
                "subject": {
                    "reference": "Patient/76a8d672-f0a5-4e5b-8f64-708a5592dc02"
                },
                "onsetDateTime": "2022-01-13T00:00:00+00:00"
            }
        },
        {
            "fullUrl": "Observation/7b8aad55-4606-4250-a735-0a019608dc2b",
            "resource": {
                "resourceType": "Observation",
                "id": "7b8aad55-4606-4250-a735-0a019608dc2b",
                "meta": {
                    "profile": [
                        "http://hl7.org/fhir/us/core/StructureDefinition/us-core-observation-lab"
                    ]
                },
                "status": "final",
                "category": [{
                    "coding": [{
                        "system": "http://terminology.hl7.org/CodeSystem/observation-category",
                        "code": "laboratory",
                        "display": "Laboratory"
                    }]
                }],
                "code": {
                    "coding": [{
                        "system": "http://loinc.org",
                        "code": "49498-9"
                    }]
                },
                "subject": {
                    "reference": "Patient/76a8d672-f0a5-4e5b-8f64-708a5592dc02"
                },
                "effectiveDateTime": "2022-07-24T00:00:00+00:00",
                "valueQuantity": {
                    "value": 7.7
                }
            }
        },
        {
            "fullUrl": "Observation/5240f2bc-8d36-4f6b-acf4-1b7c671a2c89",
            "resource": {
                "resourceType": "Observation",
                "id": "5240f2bc-8d36-4f6b-acf4-1b7c671a2c89",
                "meta": {
                    "profile": [
                        "http://hl7.org/fhir/us/core/StructureDefinition/us-core-observation-lab"
                    ]
                },
                "status": "final",
                "category": [{
                    "coding": [{
                        "system": "http://terminology.hl7.org/CodeSystem/observation-category",
                        "code": "laboratory",
                        "display": "Laboratory"
                    }]
                }],
                "code": {
                    "coding": [{
                        "system": "http://loinc.org",
                        "code": "49498-9"
                    }]
                },
                "subject": {
                    "reference": "Patient/76a8d672-f0a5-4e5b-8f64-708a5592dc02"
                },
                "effectiveDateTime": "2022-11-28T00:00:00+00:00",
                "valueQuantity": {
                    "value": 10.6
                }
            }
        },
        {
            "fullUrl": "Observation/dc9126eb-d22b-458b-b332-fdd0943df792",
            "resource": {
                "resourceType": "Observation",
                "id": "dc9126eb-d22b-458b-b332-fdd0943df792",
                "meta": {
                    "profile": [
                        "http://hl7.org/fhir/us/core/StructureDefinition/us-core-bmi"
                    ]
                },
                "status": "final",
                "category": [{
                    "coding": [{
                        "system": "http://terminology.hl7.org/CodeSystem/observation-category",
                        "code": "vital-signs",
                        "display": "Vital Signs"
                    }]
                }],
                "code": {
                    "coding": [{
                        "system": "http://loinc.org",
                        "code": "39156-5"
                    }]
                },
                "subject": {
                    "reference": "Patient/76a8d672-f0a5-4e5b-8f64-708a5592dc02"
                },
                "effectiveDateTime": "2022-12-15T00:00:00+00:00",
                "valueQuantity": {
                    "value": 14.79,
                    "unit": "kg/m2",
                    "system": "http://unitsofmeasure.org",
                    "code": "kg/m2"
                }
            }
        },
        {
            "fullUrl": "Observation/39b7ca4d-ff92-4a33-be95-94d3df769dab",
            "resource": {
                "resourceType": "Observation",
                "id": "39b7ca4d-ff92-4a33-be95-94d3df769dab",
                "meta": {
                    "profile": [
                        "http://hl7.org/fhir/us/core/StructureDefinition/us-core-head-circumference"
                    ]
                },
                "status": "final",
                "category": [{
                    "coding": [{
                        "system": "http://terminology.hl7.org/CodeSystem/observation-category",
                        "code": "vital-signs",
                        "display": "Vital Signs"
                    }]
                }],
                "code": {
                    "coding": [{
                        "system": "http://loinc.org",
                        "code": "9843-4"
                    }]
                },
                "subject": {
                    "reference": "Patient/76a8d672-f0a5-4e5b-8f64-708a5592dc02"
                },
                "effectiveDateTime": "2022-09-14T00:00:00+00:00",
                "valueQuantity": {
                    "value": 8.6,
                    "unit": "Inch",
                    "system": "http://unitsofmeasure.org",
                    "code": "[in_i]"
                }
            }
        },
        {
            "fullUrl": "Observation/f0c6db70-8f79-4fd0-b976-d821878cd1b2",
            "resource": {
                "resourceType": "Observation",
                "id": "f0c6db70-8f79-4fd0-b976-d821878cd1b2",
                "meta": {
                    "profile": [
                        "http://hl7.org/fhir/us/core/StructureDefinition/us-core-body-height"
                    ]
                },
                "status": "final",
                "category": [{
                    "coding": [{
                        "system": "http://terminology.hl7.org/CodeSystem/observation-category",
                        "code": "vital-signs",
                        "display": "Vital Signs"
                    }]
                }],
                "code": {
                    "coding": [{
                        "system": "http://loinc.org",
                        "code": "8302-2"
                    }]
                },
                "subject": {
                    "reference": "Patient/76a8d672-f0a5-4e5b-8f64-708a5592dc02"
                },
                "effectiveDateTime": "2022-02-07T00:00:00+00:00",
                "valueQuantity": {
                    "value": 74.4,
                    "unit": "Inch",
                    "system": "http://unitsofmeasure.org",
                    "code": "[in_i]"
                }
            }
        },
        {
            "fullUrl": "Observation/8e2e4efe-6de8-450a-85d9-1afb84258229",
            "resource": {
                "resourceType": "Observation",
                "id": "8e2e4efe-6de8-450a-85d9-1afb84258229",
                "meta": {
                    "profile": [
                        "http://hl7.org/fhir/us/core/StructureDefinition/us-core-body-weight"
                    ]
                },
                "status": "final",
                "category": [{
                    "coding": [{
                        "system": "http://terminology.hl7.org/CodeSystem/observation-category",
                        "code": "vital-signs",
                        "display": "Vital Signs"
                    }]
                }],
                "code": {
                    "coding": [{
                        "system": "http://loinc.org",
                        "code": "29463-7"
                    }]
                },
                "subject": {
                    "reference": "Patient/76a8d672-f0a5-4e5b-8f64-708a5592dc02"
                },
                "effectiveDateTime": "2022-05-12T00:00:00+00:00",
                "valueQuantity": {
                    "value": 88.9,
                    "unit": "kilogram",
                    "system": "http://unitsofmeasure.org",
                    "code": "kg"
                }
            }
        },
        {
            "fullUrl": "Observation/7a80fcc3-e58c-4785-a3c9-f9e3c549fd2f",
            "resource": {
                "resourceType": "Observation",
                "id": "7a80fcc3-e58c-4785-a3c9-f9e3c549fd2f",
                "meta": {
                    "profile": [
                        "http://hl7.org/fhir/us/core/StructureDefinition/us-core-body-temperature"
                    ]
                },
                "status": "final",
                "category": [{
                    "coding": [{
                        "system": "http://terminology.hl7.org/CodeSystem/observation-category",
                        "code": "vital-signs",
                        "display": "Vital Signs"
                    }]
                }],
                "code": {
                    "coding": [{
                        "system": "http://loinc.org",
                        "code": "8310-5"
                    }]
                },
                "subject": {
                    "reference": "Patient/76a8d672-f0a5-4e5b-8f64-708a5592dc02"
                },
                "effectiveDateTime": "2022-06-06T00:00:00+00:00",
                "valueQuantity": {
                    "value": 47.55,
                    "unit": "Degrees Fahrenheit",
                    "system": "http://unitsofmeasure.org",
                    "code": "[degF]"
                }
            }
        },
        {
            "fullUrl": "Observation/3f4af9c3-7b6c-4404-96a6-788cb722623d",
            "resource": {
                "resourceType": "Observation",
                "id": "3f4af9c3-7b6c-4404-96a6-788cb722623d",
                "meta": {
                    "profile": [
                        "http://hl7.org/fhir/us/core/StructureDefinition/us-core-body-temperature"
                    ]
                },
                "status": "final",
                "category": [{
                    "coding": [{
                        "system": "http://terminology.hl7.org/CodeSystem/observation-category",
                        "code": "vital-signs",
                        "display": "Vital Signs"
                    }]
                }],
                "code": {
                    "coding": [{
                        "system": "http://loinc.org",
                        "code": "8310-5"
                    }]
                },
                "subject": {
                    "reference": "Patient/76a8d672-f0a5-4e5b-8f64-708a5592dc02"
                },
                "effectiveDateTime": "2022-12-05T00:00:00+00:00",
                "valueQuantity": {
                    "value": 131.44,
                    "unit": "Degrees Fahrenheit",
                    "system": "http://unitsofmeasure.org",
                    "code": "[degF]"
                }
            }
        },
        {
            "fullUrl": "Observation/13a07de4-3b58-421d-906a-f8a60656a764",
            "resource": {
                "resourceType": "Observation",
                "id": "13a07de4-3b58-421d-906a-f8a60656a764",
                "meta": {
                    "profile": [
                        "http://hl7.org/fhir/us/core/StructureDefinition/us-core-heart-rate"
                    ]
                },
                "status": "final",
                "category": [{
                    "coding": [{
                        "system": "http://terminology.hl7.org/CodeSystem/observation-category",
                        "code": "vital-signs",
                        "display": "Vital Signs"
                    }]
                }],
                "code": {
                    "coding": [{
                        "system": "http://loinc.org",
                        "code": "8867-4"
                    }]
                },
                "subject": {
                    "reference": "Patient/76a8d672-f0a5-4e5b-8f64-708a5592dc02"
                },
                "effectiveDateTime": "2022-07-14T00:00:00+00:00",
                "valueQuantity": {
                    "value": 99.9,
                    "unit": "Per Minute",
                    "system": "http://unitsofmeasure.org",
                    "code": "/min"
                }
            }
        },
        {
            "fullUrl": "Patient/2954a798-3f2d-466e-9c25-13e7af5919ee",
            "resource": {
                "resourceType": "Patient",
                "id": "2954a798-3f2d-466e-9c25-13e7af5919ee",
                "meta": {
                    "profile": [
                        "http://hl7.org/fhir/us/core/StructureDefinition/us-core-patient"
                    ]
                },
                "extension": [{
                        "extension": [{
                                "url": "ombCategory",
                                "valueCoding": {
                                    "system": "urn:oid:2.16.840.1.113883.6.238",
                                    "code": "2028-9",
                                    "display": "Asian"
                                }
                            },
                            {
                                "url": "text",
                                "valueString": "Asian"
                            }
                        ],
                        "url": "http://hl7.org/fhir/us/core/StructureDefinition/us-core-race"
                    },
                    {
                        "extension": [{
                                "url": "ombCategory",
                                "valueCoding": {
                                    "system": "urn:oid:2.16.840.1.113883.6.238",
                                    "code": "2135-2",
                                    "display": "Hispanic or Latino"
                                }
                            },
                            {
                                "url": "text",
                                "valueString": "Hispanic or Latino"
                            }
                        ],
                        "url": "http://hl7.org/fhir/us/core/StructureDefinition/us-core-ethnicity"
                    }
                ],
                "identifier": [{
                    "type": {
                        "coding": [{
                            "system": "http://terminology.hl7.org/CodeSystem/v2-0203",
                            "code": "MR"
                        }]
                    },
                    "system": "urn:fhirgen:mrn",
                    "value": "094-02-5782"
                }],
                "name": [{
                    "family": "Anderson",
                    "given": [
                        "Robin"
                    ]
                }],
                "telecom": [{
                    "system": "phone",
                    "value": "661.104.8090x588",
                    "use": "home"
                }],
                "gender": "female",
                "birthDate": "1983-01-11",
                "address": [{
                    "line": [
                        "8788 James Loop Apt. 495"
                    ],
                    "city": "South Jeromeport",
                    "state": "LA",
                    "postalCode": "74795"
                }]
            }
        },
        {
            "fullUrl": "Observation/b0d366ac-9538-41ba-abb3-82683dddc607",
            "resource": {
                "resourceType": "Observation",
                "id": "b0d366ac-9538-41ba-abb3-82683dddc607",
                "meta": {
                    "profile": [
                        "http://hl7.org/fhir/us/core/StructureDefinition/us-core-observation-lab"
                    ]
                },
                "status": "final",
                "category": [{
                    "coding": [{
                        "system": "http://terminology.hl7.org/CodeSystem/observation-category",
                        "code": "laboratory",
                        "display": "Laboratory"
                    }]
                }],
                "code": {
                    "coding": [{
                        "system": "http://loinc.org",
                        "code": "51475-2"
                    }]
                },
                "subject": {
                    "reference": "Patient/2954a798-3f2d-466e-9c25-13e7af5919ee"
                },
                "effectiveDateTime": "2022-01-19T00:00:00+00:00",
                "valueRatio": {
                    "numerator": {
                        "value": 1
                    },
                    "denominator": {
                        "value": 4
                    }
                }
            }
        },
        {
            "fullUrl": "Observation/cb54b8e9-7929-4687-a3f0-e09626dc8f8b",
            "resource": {
                "resourceType": "Observation",
                "id": "cb54b8e9-7929-4687-a3f0-e09626dc8f8b",
                "meta": {
                    "profile": [
                        "http://hl7.org/fhir/us/core/StructureDefinition/us-core-observation-lab"
                    ]
                },
                "status": "final",
                "category": [{
                    "coding": [{
                        "system": "http://terminology.hl7.org/CodeSystem/observation-category",
                        "code": "laboratory",
                        "display": "Laboratory"
                    }]
                }],
                "code": {
                    "coding": [{
                        "system": "http://loinc.org",
                        "code": "26009-1"
                    }]
                },
                "subject": {
                    "reference": "Patient/2954a798-3f2d-466e-9c25-13e7af5919ee"
                },
                "effectiveDateTime": "2022-12-14T00:00:00+00:00",
                "valueRatio": {
                    "numerator": {
                        "value": 1
                    },
                    "denominator": {
                        "value": 64
                    }
                }
            }
        },
        {
            "fullUrl": "Observation/18def914-94ac-4721-a9ef-e35001355713",
            "resource": {
                "resourceType": "Observation",
                "id": "18def914-94ac-4721-a9ef-e35001355713",
                "meta": {
                    "profile": [
                        "http://hl7.org/fhir/us/core/StructureDefinition/us-core-observation-lab"
                    ]
                },
                "status": "final",
                "category": [{
                    "coding": [{
                        "system": "http://terminology.hl7.org/CodeSystem/observation-category",
                        "code": "laboratory",
                        "display": "Laboratory"
                    }]
                }],
                "code": {
                    "coding": [{
                        "system": "http://loinc.org",
                        "code": "31146-4"
                    }]
                },
                "subject": {
                    "reference": "Patient/2954a798-3f2d-466e-9c25-13e7af5919ee"
                },
                "effectiveDateTime": "2022-06-23T00:00:00+00:00",
                "valueRatio": {
                    "numerator": {
                        "value": 1
                    },
                    "denominator": {
                        "value": 32
                    }
                }
            }
        },
        {
            "fullUrl": "Condition/ec88f6e7-953e-4faf-98ee-646fa107bc31",
            "resource": {
                "resourceType": "Condition",
                "id": "ec88f6e7-953e-4faf-98ee-646fa107bc31",
                "meta": {
                    "profile": [
                        "http://hl7.org/fhir/us/core/StructureDefinition/us-core-condition"
                    ]
                },
                "clinicalStatus": {
                    "coding": [{
                        "system": "http://terminology.hl7.org/CodeSystem/condition-clinical",
                        "code": "active",
                        "display": "Active"
                    }]
                },
                "category": [{
                    "coding": [{
                        "system": "http://terminology.hl7.org/CodeSystem/condition-category",
                        "code": "problem-list-item"
                    }]
                }],
                "code": {
                    "coding": [{
                        "system": "http://snomed.info/sct",
                        "code": "418290006"
                    }]
                },
                "subject": {
                    "reference": "Patient/2954a798-3f2d-466e-9c25-13e7af5919ee"
                },
                "onsetDateTime": "2022-04-07T00:00:00+00:00"
            }
        },
        {
            "fullUrl": "Condition/986cad2e-288a-44cc-9b1a-645210994ce3",
            "resource": {
                "resourceType": "Condition",
                "id": "986cad2e-288a-44cc-9b1a-645210994ce3",
                "meta": {
                    "profile": [
                        "http://hl7.org/fhir/us/core/StructureDefinition/us-core-condition"
                    ]
                },
                "clinicalStatus": {
                    "coding": [{
                        "system": "http://terminology.hl7.org/CodeSystem/condition-clinical",
                        "code": "active",
                        "display": "Active"
                    }]
                },
                "category": [{
                    "coding": [{
                        "system": "http://terminology.hl7.org/CodeSystem/condition-category",
                        "code": "problem-list-item"
                    }]
                }],
                "code": {
                    "coding": [{
                        "system": "http://snomed.info/sct",
                        "code": "44882003"
                    }]
                },
                "subject": {
                    "reference": "Patient/2954a798-3f2d-466e-9c25-13e7af5919ee"
                },
                "onsetDateTime": "2022-06-12T00:00:00+00:00"
            }
        },
        {
            "fullUrl": "Condition/00c15c5a-99d1-435f-8821-d99a7f5eee01",
            "resource": {
                "resourceType": "Condition",
                "id": "00c15c5a-99d1-435f-8821-d99a7f5eee01",
                "meta": {
                    "profile": [
                        "http://hl7.org/fhir/us/core/StructureDefinition/us-core-condition"
                    ]
                },
                "clinicalStatus": {
                    "coding": [{
                        "system": "http://terminology.hl7.org/CodeSystem/condition-clinical",
                        "code": "active",
                        "display": "Active"
                    }]
                },
                "category": [{
                    "coding": [{
                        "system": "http://terminology.hl7.org/CodeSystem/condition-category",
                        "code": "problem-list-item"
                    }]
                }],
                "code": {
                    "coding": [{
                        "system": "http://snomed.info/sct",
                        "code": "709977002"
                    }]
                },
                "subject": {
                    "reference": "Patient/2954a798-3f2d-466e-9c25-13e7af5919ee"
                },
                "onsetDateTime": "2022-12-16T00:00:00+00:00"
            }
        },
        {
            "fullUrl": "Observation/5fbf93e4-36af-493b-ae76-b202390ed9b8",
            "resource": {
                "resourceType": "Observation",
                "id": "5fbf93e4-36af-493b-ae76-b202390ed9b8",
                "meta": {
                    "profile": [
                        "http://hl7.org/fhir/us/core/StructureDefinition/us-core-observation-lab"
                    ]
                },
                "status": "final",
                "category": [{
                    "coding": [{
                        "system": "http://terminology.hl7.org/CodeSystem/observation-category",
                        "code": "laboratory",
                        "display": "Laboratory"
                    }]
                }],
                "code": {
                    "coding": [{
                        "system": "http://loinc.org",
                        "code": "804-5"
                    }]
                },
                "subject": {
                    "reference": "Patient/2954a798-3f2d-466e-9c25-13e7af5919ee"
                },
                "effectiveDateTime": "2022-11-09T00:00:00+00:00",
                "valueQuantity": {
                    "value": 8.6
                }
            }
        },
        {
            "fullUrl": "Observation/834fa3f7-dfd8-46cb-babe-c4ee562d0c59",
            "resource": {
                "resourceType": "Observation",
                "id": "834fa3f7-dfd8-46cb-babe-c4ee562d0c59",
                "meta": {
                    "profile": [
                        "http://hl7.org/fhir/us/core/StructureDefinition/us-core-observation-lab"
                    ]
                },
                "status": "final",
                "category": [{
                    "coding": [{
                        "system": "http://terminology.hl7.org/CodeSystem/observation-category",
                        "code": "laboratory",
                        "display": "Laboratory"
                    }]
                }],
                "code": {
                    "coding": [{
                        "system": "http://loinc.org",
                        "code": "49498-9"
                    }]
                },
                "subject": {
                    "reference": "Patient/2954a798-3f2d-466e-9c25-13e7af5919ee"
                },
                "effectiveDateTime": "2022-03-23T00:00:00+00:00",
                "valueQuantity": {
                    "value": 8.5
                }
            }
        },
        {
            "fullUrl": "Observation/203dfb52-4563-4cb4-b078-ad487a539f2f",
            "resource": {
                "resourceType": "Observation",
                "id": "203dfb52-4563-4cb4-b078-ad487a539f2f",
                "meta": {
                    "profile": [
                        "http://hl7.org/fhir/us/core/StructureDefinition/us-core-bmi"
                    ]
                },
                "status": "final",
                "category": [{
                    "coding": [{
                        "system": "http://terminology.hl7.org/CodeSystem/observation-category",
                        "code": "vital-signs",
                        "display": "Vital Signs"
                    }]
                }],
                "code": {
                    "coding": [{
                        "system": "http://loinc.org",
                        "code": "39156-5"
                    }]
                },
                "subject": {
                    "reference": "Patient/2954a798-3f2d-466e-9c25-13e7af5919ee"
                },
                "effectiveDateTime": "2022-08-10T00:00:00+00:00",
                "valueQuantity": {
                    "value": 12.85,
                    "unit": "kg/m2",
                    "system": "http://unitsofmeasure.org",
                    "code": "kg/m2"
                }
            }
        },
        {
            "fullUrl": "Observation/c4475414-d6a6-4b87-9c92-8694171f8ab2",
            "resource": {
                "resourceType": "Observation",
                "id": "c4475414-d6a6-4b87-9c92-8694171f8ab2",
                "meta": {
                    "profile": [
                        "http://hl7.org/fhir/us/core/StructureDefinition/us-core-head-circumference"
                    ]
                },
                "status": "final",
                "category": [{
                    "coding": [{
                        "system": "http://terminology.hl7.org/CodeSystem/observation-category",
                        "code": "vital-signs",
                        "display": "Vital Signs"
                    }]
                }],
                "code": {
                    "coding": [{
                        "system": "http://loinc.org",
                        "code": "9843-4"
                    }]
                },
                "subject": {
                    "reference": "Patient/2954a798-3f2d-466e-9c25-13e7af5919ee"
                },
                "effectiveDateTime": "2022-08-28T00:00:00+00:00",
                "valueQuantity": {
                    "value": 1.5,
                    "unit": "Inch",
                    "system": "http://unitsofmeasure.org",
                    "code": "[in_i]"
                }
            }
        },
        {
            "fullUrl": "Observation/b1c4187b-b4c3-4cb4-ac1b-c5532d029ce1",
            "resource": {
                "resourceType": "Observation",
                "id": "b1c4187b-b4c3-4cb4-ac1b-c5532d029ce1",
                "meta": {
                    "profile": [
                        "http://hl7.org/fhir/us/core/StructureDefinition/us-core-head-circumference"
                    ]
                },
                "status": "final",
                "category": [{
                    "coding": [{
                        "system": "http://terminology.hl7.org/CodeSystem/observation-category",
                        "code": "vital-signs",
                        "display": "Vital Signs"
                    }]
                }],
                "code": {
                    "coding": [{
                        "system": "http://loinc.org",
                        "code": "9843-4"
                    }]
                },
                "subject": {
                    "reference": "Patient/2954a798-3f2d-466e-9c25-13e7af5919ee"
                },
                "effectiveDateTime": "2022-10-23T00:00:00+00:00",
                "valueQuantity": {
                    "value": 2.8,
                    "unit": "Inch",
                    "system": "http://unitsofmeasure.org",
                    "code": "[in_i]"
                }
            }
        },
        {
            "fullUrl": "Observation/34d14155-0808-4255-9559-d3fc24662476",
            "resource": {
                "resourceType": "Observation",
                "id": "34d14155-0808-4255-9559-d3fc24662476",
                "meta": {
                    "profile": [
                        "http://hl7.org/fhir/us/core/StructureDefinition/us-core-body-height"
                    ]
                },
                "status": "final",
                "category": [{
                    "coding": [{
                        "system": "http://terminology.hl7.org/CodeSystem/observation-category",
                        "code": "vital-signs",
                        "display": "Vital Signs"
                    }]
                }],
                "code": {
                    "coding": [{
                        "system": "http://loinc.org",
                        "code": "8302-2"
                    }]
                },
                "subject": {
                    "reference": "Patient/2954a798-3f2d-466e-9c25-13e7af5919ee"
                },
                "effectiveDateTime": "2022-07-24T00:00:00+00:00",
                "valueQuantity": {
                    "value": 74.8,
                    "unit": "Inch",
                    "system": "http://unitsofmeasure.org",
                    "code": "[in_i]"
                }
            }
        },
        {
            "fullUrl": "Observation/d591bded-1840-4e25-9c23-26ec285ad467",
            "resource": {
                "resourceType": "Observation",
                "id": "d591bded-1840-4e25-9c23-26ec285ad467",
                "meta": {
                    "profile": [
                        "http://hl7.org/fhir/us/core/StructureDefinition/us-core-body-weight"
                    ]
                },
                "status": "final",
                "category": [{
                    "coding": [{
                        "system": "http://terminology.hl7.org/CodeSystem/observation-category",
                        "code": "vital-signs",
                        "display": "Vital Signs"
                    }]
                }],
                "code": {
                    "coding": [{
                        "system": "http://loinc.org",
                        "code": "29463-7"
                    }]
                },
                "subject": {
                    "reference": "Patient/2954a798-3f2d-466e-9c25-13e7af5919ee"
                },
                "effectiveDateTime": "2022-07-16T00:00:00+00:00",
                "valueQuantity": {
                    "value": 67.15,
                    "unit": "kilogram",
                    "system": "http://unitsofmeasure.org",
                    "code": "kg"
                }
            }
        },
        {
            "fullUrl": "Observation/025fb1f4-a21d-4449-9c12-c5fc7c08460b",
            "resource": {
                "resourceType": "Observation",
                "id": "025fb1f4-a21d-4449-9c12-c5fc7c08460b",
                "meta": {
                    "profile": [
                        "http://hl7.org/fhir/us/core/StructureDefinition/us-core-body-temperature"
                    ]
                },
                "status": "final",
                "category": [{
                    "coding": [{
                        "system": "http://terminology.hl7.org/CodeSystem/observation-category",
                        "code": "vital-signs",
                        "display": "Vital Signs"
                    }]
                }],
                "code": {
                    "coding": [{
                        "system": "http://loinc.org",
                        "code": "8310-5"
                    }]
                },
                "subject": {
                    "reference": "Patient/2954a798-3f2d-466e-9c25-13e7af5919ee"
                },
                "effectiveDateTime": "2022-11-21T00:00:00+00:00",
                "valueQuantity": {
                    "value": 98.34,
                    "unit": "Degrees Fahrenheit",
                    "system": "http://unitsofmeasure.org",
                    "code": "[degF]"
                }
            }
        },
        {
            "fullUrl": "Observation/e8ceba81-6ea1-449f-8e21-74e37fa94b4e",
            "resource": {
                "resourceType": "Observation",
                "id": "e8ceba81-6ea1-449f-8e21-74e37fa94b4e",
                "meta": {
                    "profile": [
                        "http://hl7.org/fhir/us/core/StructureDefinition/us-core-body-temperature"
                    ]
                },
                "status": "final",
                "category": [{
                    "coding": [{
                        "system": "http://terminology.hl7.org/CodeSystem/observation-category",
                        "code": "vital-signs",
                        "display": "Vital Signs"
                    }]
                }],
                "code": {
                    "coding": [{
                        "system": "http://loinc.org",
                        "code": "8310-5"
                    }]
                },
                "subject": {
                    "reference": "Patient/2954a798-3f2d-466e-9c25-13e7af5919ee"
                },
                "effectiveDateTime": "2022-04-06T00:00:00+00:00",
                "valueQuantity": {
                    "value": 70.78,
                    "unit": "Degrees Fahrenheit",
                    "system": "http://unitsofmeasure.org",
                    "code": "[degF]"
                }
            }
        },
        {
            "fullUrl": "Observation/14186152-1032-41a1-b7f7-6442dac27feb",
            "resource": {
                "resourceType": "Observation",
                "id": "14186152-1032-41a1-b7f7-6442dac27feb",
                "meta": {
                    "profile": [
                        "http://hl7.org/fhir/us/core/StructureDefinition/us-core-heart-rate"
                    ]
                },
                "status": "final",
                "category": [{
                    "coding": [{
                        "system": "http://terminology.hl7.org/CodeSystem/observation-category",
                        "code": "vital-signs",
                        "display": "Vital Signs"
                    }]
                }],
                "code": {
                    "coding": [{
                        "system": "http://loinc.org",
                        "code": "8867-4"
                    }]
                },
                "subject": {
                    "reference": "Patient/2954a798-3f2d-466e-9c25-13e7af5919ee"
                },
                "effectiveDateTime": "2022-07-16T00:00:00+00:00",
                "valueQuantity": {
                    "value": 101.7,
                    "unit": "Per Minute",
                    "system": "http://unitsofmeasure.org",
                    "code": "/min"
                }
            }
        },
        {
            "fullUrl": "Observation/a1c8b4c5-4ec5-426d-9ae0-4031d06ec04c",
            "resource": {
                "resourceType": "Observation",
                "id": "a1c8b4c5-4ec5-426d-9ae0-4031d06ec04c",
                "meta": {
                    "profile": [
                        "http://hl7.org/fhir/us/core/StructureDefinition/us-core-heart-rate"
                    ]
                },
                "status": "final",
                "category": [{
                    "coding": [{
                        "system": "http://terminology.hl7.org/CodeSystem/observation-category",
                        "code": "vital-signs",
                        "display": "Vital Signs"
                    }]
                }],
                "code": {
                    "coding": [{
                        "system": "http://loinc.org",
                        "code": "8867-4"
                    }]
                },
                "subject": {
                    "reference": "Patient/2954a798-3f2d-466e-9c25-13e7af5919ee"
                },
                "effectiveDateTime": "2022-09-20T00:00:00+00:00",
                "valueQuantity": {
                    "value": 97.1,
                    "unit": "Per Minute",
                    "system": "http://unitsofmeasure.org",
                    "code": "/min"
                }
            }
        },
        {
            "fullUrl": "Patient/a0106f83-2a86-4d49-bdcf-e4322b1d6334",
            "resource": {
                "resourceType": "Patient",
                "id": "a0106f83-2a86-4d49-bdcf-e4322b1d6334",
                "meta": {
                    "profile": [
                        "http://hl7.org/fhir/us/core/StructureDefinition/us-core-patient"
                    ]
                },
                "extension": [{
                        "extension": [{
                                "url": "ombCategory",
                                "valueCoding": {
                                    "system": "urn:oid:2.16.840.1.113883.6.238",
                                    "code": "2054-5",
                                    "display": "Black or African American"
                                }
                            },
                            {
                                "url": "text",
                                "valueString": "Black or African American"
                            }
                        ],
                        "url": "http://hl7.org/fhir/us/core/StructureDefinition/us-core-race"
                    },
                    {
                        "extension": [{
                                "url": "ombCategory",
                                "valueCoding": {
                                    "system": "urn:oid:2.16.840.1.113883.6.238",
                                    "code": "2186-5",
                                    "display": "Non Hispanic or Latino"
                                }
                            },
                            {
                                "url": "text",
                                "valueString": "Non Hispanic or Latino"
                            }
                        ],
                        "url": "http://hl7.org/fhir/us/core/StructureDefinition/us-core-ethnicity"
                    }
                ],
                "identifier": [{
                    "type": {
                        "coding": [{
                            "system": "http://terminology.hl7.org/CodeSystem/v2-0203",
                            "code": "MR"
                        }]
                    },
                    "system": "urn:fhirgen:mrn",
                    "value": "272-02-1132"
                }],
                "name": [{
                    "family": "Flores",
                    "given": [
                        "Leslie"
                    ]
                }],
                "telecom": [{
                    "system": "phone",
                    "value": "817.836.0959x826",
                    "use": "home"
                }],
                "gender": "female",
                "birthDate": "1962-04-27",
                "address": [{
                    "line": [
                        "4518 Smith Forks"
                    ],
                    "city": "South Jacquelineville",
                    "state": "HI",
                    "postalCode": "05623"
                }]
            }
        },
        {
            "fullUrl": "Observation/cf52f504-1ad7-45c3-9fac-6633d4747b23",
            "resource": {
                "resourceType": "Observation",
                "id": "cf52f504-1ad7-45c3-9fac-6633d4747b23",
                "meta": {
                    "profile": [
                        "http://hl7.org/fhir/us/core/StructureDefinition/us-core-observation-lab"
                    ]
                },
                "status": "final",
                "category": [{
                    "coding": [{
                        "system": "http://terminology.hl7.org/CodeSystem/observation-category",
                        "code": "laboratory",
                        "display": "Laboratory"
                    }]
                }],
                "code": {
                    "coding": [{
                        "system": "http://loinc.org",
                        "code": "31147-2"
                    }]
                },
                "subject": {
                    "reference": "Patient/a0106f83-2a86-4d49-bdcf-e4322b1d6334"
                },
                "effectiveDateTime": "2022-06-16T00:00:00+00:00",
                "valueRatio": {
                    "numerator": {
                        "value": 1
                    },
                    "denominator": {
                        "value": 32
                    }
                }
            }
        },
        {
            "fullUrl": "Observation/b5287ea6-fd87-4345-a282-c10be95d935b",
            "resource": {
                "resourceType": "Observation",
                "id": "b5287ea6-fd87-4345-a282-c10be95d935b",
                "meta": {
                    "profile": [
                        "http://hl7.org/fhir/us/core/StructureDefinition/us-core-observation-lab"
                    ]
                },
                "status": "final",
                "category": [{
                    "coding": [{
                        "system": "http://terminology.hl7.org/CodeSystem/observation-category",
                        "code": "laboratory",
                        "display": "Laboratory"
                    }]
                }],
                "code": {
                    "coding": [{
                        "system": "http://loinc.org",
                        "code": "47476-7"
                    }]
                },
                "subject": {
                    "reference": "Patient/a0106f83-2a86-4d49-bdcf-e4322b1d6334"
                },
                "effectiveDateTime": "2022-10-06T00:00:00+00:00",
                "valueRatio": {
                    "numerator": {
                        "value": 1
                    },
                    "denominator": {
                        "value": 4
                    }
                }
            }
        },
        {
            "fullUrl": "Condition/8bdd0361-98a4-4198-9e1d-6bd6b5442297",
            "resource": {
                "resourceType": "Condition",
                "id": "8bdd0361-98a4-4198-9e1d-6bd6b5442297",
                "meta": {
                    "profile": [
                        "http://hl7.org/fhir/us/core/StructureDefinition/us-core-condition"
                    ]
                },
                "clinicalStatus": {
                    "coding": [{
                        "system": "http://terminology.hl7.org/CodeSystem/condition-clinical",
                        "code": "active",
                        "display": "Active"
                    }]
                },
                "category": [{
                    "coding": [{
                        "system": "http://terminology.hl7.org/CodeSystem/condition-category",
                        "code": "problem-list-item"
                    }]
                }],
                "code": {
                    "coding": [{
                        "system": "http://snomed.info/sct",
                        "code": "736686006"
                    }]
                },
                "subject": {
                    "reference": "Patient/a0106f83-2a86-4d49-bdcf-e4322b1d6334"
                },
                "onsetDateTime": "2022-12-02T00:00:00+00:00"
            }
        },
        {
            "fullUrl": "Condition/588cfd2d-8f2a-4a73-a9e9-523302931ba9",
            "resource": {
                "resourceType": "Condition",
                "id": "588cfd2d-8f2a-4a73-a9e9-523302931ba9",
                "meta": {
                    "profile": [
                        "http://hl7.org/fhir/us/core/StructureDefinition/us-core-condition"
                    ]
                },
                "clinicalStatus": {
                    "coding": [{
                        "system": "http://terminology.hl7.org/CodeSystem/condition-clinical",
                        "code": "active",
                        "display": "Active"
                    }]
                },
                "category": [{
                    "coding": [{
                        "system": "http://terminology.hl7.org/CodeSystem/condition-category",
                        "code": "problem-list-item"
                    }]
                }],
                "code": {
                    "coding": [{
                        "system": "http://snomed.info/sct",
                        "code": "709977002"
                    }]
                },
                "subject": {
                    "reference": "Patient/a0106f83-2a86-4d49-bdcf-e4322b1d6334"
                },
                "onsetDateTime": "2022-11-01T00:00:00+00:00"
            }
        },
        {
            "fullUrl": "Condition/b9421c96-9f17-4da2-b1ed-f1e1d76635ca",
            "resource": {
                "resourceType": "Condition",
                "id": "b9421c96-9f17-4da2-b1ed-f1e1d76635ca",
                "meta": {
                    "profile": [
                        "http://hl7.org/fhir/us/core/StructureDefinition/us-core-condition"
                    ]
                },
                "clinicalStatus": {
                    "coding": [{
                        "system": "http://terminology.hl7.org/CodeSystem/condition-clinical",
                        "code": "active",
                        "display": "Active"
                    }]
                },
                "category": [{
                    "coding": [{
                        "system": "http://terminology.hl7.org/CodeSystem/condition-category",
                        "code": "problem-list-item"
                    }]
                }],
                "code": {
                    "coding": [{
                        "system": "http://snomed.info/sct",
                        "code": "44882003"
                    }]
                },
                "subject": {
                    "reference": "Patient/a0106f83-2a86-4d49-bdcf-e4322b1d6334"
                },
                "onsetDateTime": "2022-08-17T00:00:00+00:00"
            }
        },
        {
            "fullUrl": "Condition/59078e25-2dc4-4fe5-b482-6adcafe2a6f1",
            "resource": {
                "resourceType": "Condition",
                "id": "59078e25-2dc4-4fe5-b482-6adcafe2a6f1",
                "meta": {
                    "profile": [
                        "http://hl7.org/fhir/us/core/StructureDefinition/us-core-condition"
                    ]
                },
                "clinicalStatus": {
                    "coding": [{
                        "system": "http://terminology.hl7.org/CodeSystem/condition-clinical",
                        "code": "active",
                        "display": "Active"
                    }]
                },
                "category": [{
                    "coding": [{
                        "system": "http://terminology.hl7.org/CodeSystem/condition-category",
                        "code": "problem-list-item"
                    }]
                }],
                "code": {
                    "coding": [{
                        "system": "http://snomed.info/sct",
                        "code": "44882003"
                    }]
                },
                "subject": {
                    "reference": "Patient/a0106f83-2a86-4d49-bdcf-e4322b1d6334"
                },
                "onsetDateTime": "2022-02-15T00:00:00+00:00"
            }
        },
        {
            "fullUrl": "Condition/2433ccba-b837-4159-8220-f214e9697f2d",
            "resource": {
                "resourceType": "Condition",
                "id": "2433ccba-b837-4159-8220-f214e9697f2d",
                "meta": {
                    "profile": [
                        "http://hl7.org/fhir/us/core/StructureDefinition/us-core-condition"
                    ]
                },
                "clinicalStatus": {
                    "coding": [{
                        "system": "http://terminology.hl7.org/CodeSystem/condition-clinical",
                        "code": "active",
                        "display": "Active"
                    }]
                },
                "category": [{
                    "coding": [{
                        "system": "http://terminology.hl7.org/CodeSystem/condition-category",
                        "code": "problem-list-item"
                    }]
                }],
                "code": {
                    "coding": [{
                        "system": "http://snomed.info/sct",
                        "code": "91554004"
                    }]
                },
                "subject": {
                    "reference": "Patient/a0106f83-2a86-4d49-bdcf-e4322b1d6334"
                },
                "onsetDateTime": "2022-03-17T00:00:00+00:00"
            }
        },
        {
            "fullUrl": "Condition/6a1c415e-461a-456d-b5cd-077f4376c4ee",
            "resource": {
                "resourceType": "Condition",
                "id": "6a1c415e-461a-456d-b5cd-077f4376c4ee",
                "meta": {
                    "profile": [
                        "http://hl7.org/fhir/us/core/StructureDefinition/us-core-condition"
                    ]
                },
                "clinicalStatus": {
                    "coding": [{
                        "system": "http://terminology.hl7.org/CodeSystem/condition-clinical",
                        "code": "active",
                        "display": "Active"
                    }]
                },
                "category": [{
                    "coding": [{
                        "system": "http://terminology.hl7.org/CodeSystem/condition-category",
                        "code": "problem-list-item"
                    }]
                }],
                "code": {
                    "coding": [{
                        "system": "http://snomed.info/sct",
                        "code": "709977002"
                    }]
                },
                "subject": {
                    "reference": "Patient/a0106f83-2a86-4d49-bdcf-e4322b1d6334"
                },
                "onsetDateTime": "2022-01-04T00:00:00+00:00"
            }
        },
        {
            "fullUrl": "Observation/afbae259-52d2-4220-bd32-22fa80d6edfb",
            "resource": {
                "resourceType": "Observation",
                "id": "afbae259-52d2-4220-bd32-22fa80d6edfb",
                "meta": {
                    "profile": [
                        "http://hl7.org/fhir/us/core/StructureDefinition/us-core-observation-lab"
                    ]
                },
                "status": "final",
                "category": [{
                    "coding": [{
                        "system": "http://terminology.hl7.org/CodeSystem/observation-category",
                        "code": "laboratory",
                        "display": "Laboratory"
                    }]
                }],
                "code": {
                    "coding": [{
                        "system": "http://loinc.org",
                        "code": "804-5"
                    }]
                },
                "subject": {
                    "reference": "Patient/a0106f83-2a86-4d49-bdcf-e4322b1d6334"
                },
                "effectiveDateTime": "2022-01-30T00:00:00+00:00",
                "valueQuantity": {
                    "value": 4
                }
            }
        },
        {
            "fullUrl": "Observation/269493d1-fdb2-4a2b-bfa8-3fb4dd7c7b95",
            "resource": {
                "resourceType": "Observation",
                "id": "269493d1-fdb2-4a2b-bfa8-3fb4dd7c7b95",
                "meta": {
                    "profile": [
                        "http://hl7.org/fhir/us/core/StructureDefinition/us-core-observation-lab"
                    ]
                },
                "status": "final",
                "category": [{
                    "coding": [{
                        "system": "http://terminology.hl7.org/CodeSystem/observation-category",
                        "code": "laboratory",
                        "display": "Laboratory"
                    }]
                }],
                "code": {
                    "coding": [{
                        "system": "http://loinc.org",
                        "code": "804-5"
                    }]
                },
                "subject": {
                    "reference": "Patient/a0106f83-2a86-4d49-bdcf-e4322b1d6334"
                },
                "effectiveDateTime": "2022-03-09T00:00:00+00:00",
                "valueQuantity": {
                    "value": 4.7
                }
            }
        },
        {
            "fullUrl": "Observation/f85aadb7-0e2b-4d98-a29d-44cb65317199",
            "resource": {
                "resourceType": "Observation",
                "id": "f85aadb7-0e2b-4d98-a29d-44cb65317199",
                "meta": {
                    "profile": [
                        "http://hl7.org/fhir/us/core/StructureDefinition/us-core-observation-lab"
                    ]
                },
                "status": "final",
                "category": [{
                    "coding": [{
                        "system": "http://terminology.hl7.org/CodeSystem/observation-category",
                        "code": "laboratory",
                        "display": "Laboratory"
                    }]
                }],
                "code": {
                    "coding": [{
                        "system": "http://loinc.org",
                        "code": "26464-8"
                    }]
                },
                "subject": {
                    "reference": "Patient/a0106f83-2a86-4d49-bdcf-e4322b1d6334"
                },
                "effectiveDateTime": "2022-01-19T00:00:00+00:00",
                "valueQuantity": {
                    "value": 9.8
                }
            }
        },
        {
            "fullUrl": "Observation/335c265f-2016-4dac-888e-c550991607b7",
            "resource": {
                "resourceType": "Observation",
                "id": "335c265f-2016-4dac-888e-c550991607b7",
                "meta": {
                    "profile": [
                        "http://hl7.org/fhir/us/core/StructureDefinition/us-core-bmi"
                    ]
                },
                "status": "final",
                "category": [{
                    "coding": [{
                        "system": "http://terminology.hl7.org/CodeSystem/observation-category",
                        "code": "vital-signs",
                        "display": "Vital Signs"
                    }]
                }],
                "code": {
                    "coding": [{
                        "system": "http://loinc.org",
                        "code": "39156-5"
                    }]
                },
                "subject": {
                    "reference": "Patient/a0106f83-2a86-4d49-bdcf-e4322b1d6334"
                },
                "effectiveDateTime": "2022-05-11T00:00:00+00:00",
                "valueQuantity": {
                    "value": 21.68,
                    "unit": "kg/m2",
                    "system": "http://unitsofmeasure.org",
                    "code": "kg/m2"
                }
            }
        },
        {
            "fullUrl": "Observation/32d53216-0e31-4ced-a56a-a497bf0fa307",
            "resource": {
                "resourceType": "Observation",
                "id": "32d53216-0e31-4ced-a56a-a497bf0fa307",
                "meta": {
                    "profile": [
                        "http://hl7.org/fhir/us/core/StructureDefinition/us-core-bmi"
                    ]
                },
                "status": "final",
                "category": [{
                    "coding": [{
                        "system": "http://terminology.hl7.org/CodeSystem/observation-category",
                        "code": "vital-signs",
                        "display": "Vital Signs"
                    }]
                }],
                "code": {
                    "coding": [{
                        "system": "http://loinc.org",
                        "code": "39156-5"
                    }]
                },
                "subject": {
                    "reference": "Patient/a0106f83-2a86-4d49-bdcf-e4322b1d6334"
                },
                "effectiveDateTime": "2022-05-01T00:00:00+00:00",
                "valueQuantity": {
                    "value": 23.71,
                    "unit": "kg/m2",
                    "system": "http://unitsofmeasure.org",
                    "code": "kg/m2"
                }
            }
        },
        {
            "fullUrl": "Observation/caf6fba0-4769-41b9-9d01-dbef74fa5c6c",
            "resource": {
                "resourceType": "Observation",
                "id": "caf6fba0-4769-41b9-9d01-dbef74fa5c6c",
                "meta": {
                    "profile": [
                        "http://hl7.org/fhir/us/core/StructureDefinition/us-core-head-circumference"
                    ]
                },
                "status": "final",
                "category": [{
                    "coding": [{
                        "system": "http://terminology.hl7.org/CodeSystem/observation-category",
                        "code": "vital-signs",
                        "display": "Vital Signs"
                    }]
                }],
                "code": {
                    "coding": [{
                        "system": "http://loinc.org",
                        "code": "9843-4"
                    }]
                },
                "subject": {
                    "reference": "Patient/a0106f83-2a86-4d49-bdcf-e4322b1d6334"
                },
                "effectiveDateTime": "2022-03-05T00:00:00+00:00",
                "valueQuantity": {
                    "value": 3.4,
                    "unit": "Inch",
                    "system": "http://unitsofmeasure.org",
                    "code": "[in_i]"
                }
            }
        },
        {
            "fullUrl": "Observation/e6c25bf1-4d0c-43ff-8e3f-fd045c5e3af6",
            "resource": {
                "resourceType": "Observation",
                "id": "e6c25bf1-4d0c-43ff-8e3f-fd045c5e3af6",
                "meta": {
                    "profile": [
                        "http://hl7.org/fhir/us/core/StructureDefinition/us-core-body-height"
                    ]
                },
                "status": "final",
                "category": [{
                    "coding": [{
                        "system": "http://terminology.hl7.org/CodeSystem/observation-category",
                        "code": "vital-signs",
                        "display": "Vital Signs"
                    }]
                }],
                "code": {
                    "coding": [{
                        "system": "http://loinc.org",
                        "code": "8302-2"
                    }]
                },
                "subject": {
                    "reference": "Patient/a0106f83-2a86-4d49-bdcf-e4322b1d6334"
                },
                "effectiveDateTime": "2022-12-26T00:00:00+00:00",
                "valueQuantity": {
                    "value": 72.2,
                    "unit": "Inch",
                    "system": "http://unitsofmeasure.org",
                    "code": "[in_i]"
                }
            }
        },
        {
            "fullUrl": "Observation/e6a950ac-eaf3-4c86-b69a-edfb89e324c4",
            "resource": {
                "resourceType": "Observation",
                "id": "e6a950ac-eaf3-4c86-b69a-edfb89e324c4",
                "meta": {
                    "profile": [
                        "http://hl7.org/fhir/us/core/StructureDefinition/us-core-body-height"
                    ]
                },
                "status": "final",
                "category": [{
                    "coding": [{
                        "system": "http://terminology.hl7.org/CodeSystem/observation-category",
                        "code": "vital-signs",
                        "display": "Vital Signs"
                    }]
                }],
                "code": {
                    "coding": [{
                        "system": "http://loinc.org",
                        "code": "8302-2"
                    }]
                },
                "subject": {
                    "reference": "Patient/a0106f83-2a86-4d49-bdcf-e4322b1d6334"
                },
                "effectiveDateTime": "2022-06-06T00:00:00+00:00",
                "valueQuantity": {
                    "value": 62.1,
                    "unit": "Inch",
                    "system": "http://unitsofmeasure.org",
                    "code": "[in_i]"
                }
            }
        },
        {
            "fullUrl": "Observation/18267aa8-ec0c-43f6-babc-2fa58acf040e",
            "resource": {
                "resourceType": "Observation",
                "id": "18267aa8-ec0c-43f6-babc-2fa58acf040e",
                "meta": {
                    "profile": [
                        "http://hl7.org/fhir/us/core/StructureDefinition/us-core-body-weight"
                    ]
                },
                "status": "final",
                "category": [{
                    "coding": [{
                        "system": "http://terminology.hl7.org/CodeSystem/observation-category",
                        "code": "vital-signs",
                        "display": "Vital Signs"
                    }]
                }],
                "code": {
                    "coding": [{
                        "system": "http://loinc.org",
                        "code": "29463-7"
                    }]
                },
                "subject": {
                    "reference": "Patient/a0106f83-2a86-4d49-bdcf-e4322b1d6334"
                },
                "effectiveDateTime": "2022-06-10T00:00:00+00:00",
                "valueQuantity": {
                    "value": 74.43,
                    "unit": "kilogram",
                    "system": "http://unitsofmeasure.org",
                    "code": "kg"
                }
            }
        },
        {
            "fullUrl": "Observation/9ef06574-044a-4b54-86e5-48bca7fe0c1c",
            "resource": {
                "resourceType": "Observation",
                "id": "9ef06574-044a-4b54-86e5-48bca7fe0c1c",
                "meta": {
                    "profile": [
                        "http://hl7.org/fhir/us/core/StructureDefinition/us-core-body-weight"
                    ]
                },
                "status": "final",
                "category": [{
                    "coding": [{
                        "system": "http://terminology.hl7.org/CodeSystem/observation-category",
                        "code": "vital-signs",
                        "display": "Vital Signs"
                    }]
                }],
                "code": {
                    "coding": [{
                        "system": "http://loinc.org",
                        "code": "29463-7"
                    }]
                },
                "subject": {
                    "reference": "Patient/a0106f83-2a86-4d49-bdcf-e4322b1d6334"
                },
                "effectiveDateTime": "2022-01-11T00:00:00+00:00",
                "valueQuantity": {
                    "value": 39.84,
                    "unit": "kilogram",
                    "system": "http://unitsofmeasure.org",
                    "code": "kg"
                }
            }
        },
        {
            "fullUrl": "Observation/f1390a1a-fa57-4327-aab8-acae279a43d5",
            "resource": {
                "resourceType": "Observation",
                "id": "f1390a1a-fa57-4327-aab8-acae279a43d5",
                "meta": {
                    "profile": [
                        "http://hl7.org/fhir/us/core/StructureDefinition/us-core-body-temperature"
                    ]
                },
                "status": "final",
                "category": [{
                    "coding": [{
                        "system": "http://terminology.hl7.org/CodeSystem/observation-category",
                        "code": "vital-signs",
                        "display": "Vital Signs"
                    }]
                }],
                "code": {
                    "coding": [{
                        "system": "http://loinc.org",
                        "code": "8310-5"
                    }]
                },
                "subject": {
                    "reference": "Patient/a0106f83-2a86-4d49-bdcf-e4322b1d6334"
                },
                "effectiveDateTime": "2022-12-19T00:00:00+00:00",
                "valueQuantity": {
                    "value": 77.29,
                    "unit": "Degrees Fahrenheit",
                    "system": "http://unitsofmeasure.org",
                    "code": "[degF]"
                }
            }
        },
        {
            "fullUrl": "Observation/432ddec6-fbde-412c-b495-d006694173f2",
            "resource": {
                "resourceType": "Observation",
                "id": "432ddec6-fbde-412c-b495-d006694173f2",
                "meta": {
                    "profile": [
                        "http://hl7.org/fhir/us/core/StructureDefinition/us-core-heart-rate"
                    ]
                },
                "status": "final",
                "category": [{
                    "coding": [{
                        "system": "http://terminology.hl7.org/CodeSystem/observation-category",
                        "code": "vital-signs",
                        "display": "Vital Signs"
                    }]
                }],
                "code": {
                    "coding": [{
                        "system": "http://loinc.org",
                        "code": "8867-4"
                    }]
                },
                "subject": {
                    "reference": "Patient/a0106f83-2a86-4d49-bdcf-e4322b1d6334"
                },
                "effectiveDateTime": "2022-07-24T00:00:00+00:00",
                "valueQuantity": {
                    "value": 96.8,
                    "unit": "Per Minute",
                    "system": "http://unitsofmeasure.org",
                    "code": "/min"
                }
            }
        },
        {
            "fullUrl": "Observation/c89f70d1-2bca-456f-a5d5-8126f6ce7ddb",
            "resource": {
                "resourceType": "Observation",
                "id": "c89f70d1-2bca-456f-a5d5-8126f6ce7ddb",
                "meta": {
                    "profile": [
                        "http://hl7.org/fhir/us/core/StructureDefinition/us-core-heart-rate"
                    ]
                },
                "status": "final",
                "category": [{
                    "coding": [{
                        "system": "http://terminology.hl7.org/CodeSystem/observation-category",
                        "code": "vital-signs",
                        "display": "Vital Signs"
                    }]
                }],
                "code": {
                    "coding": [{
                        "system": "http://loinc.org",
                        "code": "8867-4"
                    }]
                },
                "subject": {
                    "reference": "Patient/a0106f83-2a86-4d49-bdcf-e4322b1d6334"
                },
                "effectiveDateTime": "2022-02-09T00:00:00+00:00",
                "valueQuantity": {
                    "value": 100.1,
                    "unit": "Per Minute",
                    "system": "http://unitsofmeasure.org",
                    "code": "/min"
                }
            }
        },
        {
            "fullUrl": "Patient/26a37e92-9f80-4dbe-b23b-aa8dc1a43356",
            "resource": {
                "resourceType": "Patient",
                "id": "26a37e92-9f80-4dbe-b23b-aa8dc1a43356",
                "meta": {
                    "profile": [
                        "http://hl7.org/fhir/us/core/StructureDefinition/us-core-patient"
                    ]
                },
                "extension": [{
                        "extension": [{
                                "url": "ombCategory",
                                "valueCoding": {
                                    "system": "urn:oid:2.16.840.1.113883.6.238",
                                    "code": "2106-3",
                                    "display": "White"
                                }
                            },
                            {
                                "url": "text",
                                "valueString": "White"
                            }
                        ],
                        "url": "http://hl7.org/fhir/us/core/StructureDefinition/us-core-race"
                    },
                    {
                        "extension": [{
                                "url": "ombCategory",
                                "valueCoding": {
                                    "system": "urn:oid:2.16.840.1.113883.6.238",
                                    "code": "2135-2",
                                    "display": "Hispanic or Latino"
                                }
                            },
                            {
                                "url": "text",
                                "valueString": "Hispanic or Latino"
                            }
                        ],
                        "url": "http://hl7.org/fhir/us/core/StructureDefinition/us-core-ethnicity"
                    }
                ],
                "identifier": [{
                    "type": {
                        "coding": [{
                            "system": "http://terminology.hl7.org/CodeSystem/v2-0203",
                            "code": "MR"
                        }]
                    },
                    "system": "urn:fhirgen:mrn",
                    "value": "608-38-6808"
                }],
                "name": [{
                    "family": "Henderson",
                    "given": [
                        "Richard"
                    ]
                }],
                "telecom": [{
                    "system": "phone",
                    "value": "831-266-2204x4671",
                    "use": "home"
                }],
                "gender": "other",
                "birthDate": "1956-12-08",
                "address": [{
                    "line": [
                        "269 Nichole Bypass Apt. 034"
                    ],
                    "city": "Mannview",
                    "state": "MA",
                    "postalCode": "32902"
                }]
            }
        },
        {
            "fullUrl": "Observation/ab7df310-0977-45f1-a675-dcf862c78b71",
            "resource": {
                "resourceType": "Observation",
                "id": "ab7df310-0977-45f1-a675-dcf862c78b71",
                "meta": {
                    "profile": [
                        "http://hl7.org/fhir/us/core/StructureDefinition/us-core-observation-lab"
                    ]
                },
                "status": "final",
                "category": [{
                    "coding": [{
                        "system": "http://terminology.hl7.org/CodeSystem/observation-category",
                        "code": "laboratory",
                        "display": "Laboratory"
                    }]
                }],
                "code": {
                    "coding": [{
                        "system": "http://loinc.org",
                        "code": "50695-6"
                    }]
                },
                "subject": {
                    "reference": "Patient/26a37e92-9f80-4dbe-b23b-aa8dc1a43356"
                },
                "effectiveDateTime": "2022-02-04T00:00:00+00:00",
                "valueRatio": {
                    "numerator": {
                        "value": 1
                    },
                    "denominator": {
                        "value": 4
                    }
                }
            }
        },
        {
            "fullUrl": "Observation/6e1388b9-ede1-41d9-8258-125cd0aefa99",
            "resource": {
                "resourceType": "Observation",
                "id": "6e1388b9-ede1-41d9-8258-125cd0aefa99",
                "meta": {
                    "profile": [
                        "http://hl7.org/fhir/us/core/StructureDefinition/us-core-observation-lab"
                    ]
                },
                "status": "final",
                "category": [{
                    "coding": [{
                        "system": "http://terminology.hl7.org/CodeSystem/observation-category",
                        "code": "laboratory",
                        "display": "Laboratory"
                    }]
                }],
                "code": {
                    "coding": [{
                        "system": "http://loinc.org",
                        "code": "31146-4"
                    }]
                },
                "subject": {
                    "reference": "Patient/26a37e92-9f80-4dbe-b23b-aa8dc1a43356"
                },
                "effectiveDateTime": "2022-07-18T00:00:00+00:00",
                "valueRatio": {
                    "numerator": {
                        "value": 1
                    },
                    "denominator": {
                        "value": 32
                    }
                }
            }
        },
        {
            "fullUrl": "Observation/41989b0b-2a5b-48c7-9de9-44292175c398",
            "resource": {
                "resourceType": "Observation",
                "id": "41989b0b-2a5b-48c7-9de9-44292175c398",
                "meta": {
                    "profile": [
                        "http://hl7.org/fhir/us/core/StructureDefinition/us-core-observation-lab"
                    ]
                },
                "status": "final",
                "category": [{
                    "coding": [{
                        "system": "http://terminology.hl7.org/CodeSystem/observation-category",
                        "code": "laboratory",
                        "display": "Laboratory"
                    }]
                }],
                "code": {
                    "coding": [{
                        "system": "http://loinc.org",
                        "code": "11084-1"
                    }]
                },
                "subject": {
                    "reference": "Patient/26a37e92-9f80-4dbe-b23b-aa8dc1a43356"
                },
                "effectiveDateTime": "2022-02-18T00:00:00+00:00",
                "valueRatio": {
                    "numerator": {
                        "value": 1
                    },
                    "denominator": {
                        "value": 64
                    }
                }
            }
        },
        {
            "fullUrl": "Condition/f97594b2-f2a3-410d-80fe-e659662b55c5",
            "resource": {
                "resourceType": "Condition",
                "id": "f97594b2-f2a3-410d-80fe-e659662b55c5",
                "meta": {
                    "profile": [
                        "http://hl7.org/fhir/us/core/StructureDefinition/us-core-condition"
                    ]
                },
                "clinicalStatus": {
                    "coding": [{
                        "system": "http://terminology.hl7.org/CodeSystem/condition-clinical",
                        "code": "active",
                        "display": "Active"
                    }]
                },
                "category": [{
                    "coding": [{
                        "system": "http://terminology.hl7.org/CodeSystem/condition-category",
                        "code": "problem-list-item"
                    }]
                }],
                "code": {
                    "coding": [{
                        "system": "http://snomed.info/sct",
                        "code": "709977002"
                    }]
                },
                "subject": {
                    "reference": "Patient/26a37e92-9f80-4dbe-b23b-aa8dc1a43356"
                },
                "onsetDateTime": "2022-07-30T00:00:00+00:00"
            }
        },
        {
            "fullUrl": "Condition/8e9b94a5-5384-493d-8d37-b05ed0a9fc8e",
            "resource": {
                "resourceType": "Condition",
                "id": "8e9b94a5-5384-493d-8d37-b05ed0a9fc8e",
                "meta": {
                    "profile": [
                        "http://hl7.org/fhir/us/core/StructureDefinition/us-core-condition"
                    ]
                },
                "clinicalStatus": {
                    "coding": [{
                        "system": "http://terminology.hl7.org/CodeSystem/condition-clinical",
                        "code": "active",
                        "display": "Active"
                    }]
                },
                "category": [{
                    "coding": [{
                        "system": "http://terminology.hl7.org/CodeSystem/condition-category",
                        "code": "problem-list-item"
                    }]
                }],
                "code": {
                    "coding": [{
                        "system": "http://snomed.info/sct",
                        "code": "91554004"
                    }]
                },
                "subject": {
                    "reference": "Patient/26a37e92-9f80-4dbe-b23b-aa8dc1a43356"
                },
                "onsetDateTime": "2022-08-09T00:00:00+00:00"
            }
        },
        {
            "fullUrl": "Condition/baa86505-3fc0-49df-a6fa-44faaacb4963",
            "resource": {
                "resourceType": "Condition",
                "id": "baa86505-3fc0-49df-a6fa-44faaacb4963",
                "meta": {
                    "profile": [
                        "http://hl7.org/fhir/us/core/StructureDefinition/us-core-condition"
                    ]
                },
                "clinicalStatus": {
                    "coding": [{
                        "system": "http://terminology.hl7.org/CodeSystem/condition-clinical",
                        "code": "active",
                        "display": "Active"
                    }]
                },
                "category": [{
                    "coding": [{
                        "system": "http://terminology.hl7.org/CodeSystem/condition-category",
                        "code": "problem-list-item"
                    }]
                }],
                "code": {
                    "coding": [{
                        "system": "http://snomed.info/sct",
                        "code": "91554004"
                    }]
                },
                "subject": {
                    "reference": "Patient/26a37e92-9f80-4dbe-b23b-aa8dc1a43356"
                },
                "onsetDateTime": "2022-01-12T00:00:00+00:00"
            }
        },
        {
            "fullUrl": "Condition/6835b521-7c0b-469c-a9ce-8aaf66c2d1b4",
            "resource": {
                "resourceType": "Condition",
                "id": "6835b521-7c0b-469c-a9ce-8aaf66c2d1b4",
                "meta": {
                    "profile": [
                        "http://hl7.org/fhir/us/core/StructureDefinition/us-core-condition"
                    ]
                },
                "clinicalStatus": {
                    "coding": [{
                        "system": "http://terminology.hl7.org/CodeSystem/condition-clinical",
                        "code": "active",
                        "display": "Active"
                    }]
                },
                "category": [{
                    "coding": [{
                        "system": "http://terminology.hl7.org/CodeSystem/condition-category",
                        "code": "problem-list-item"
                    }]
                }],
                "code": {
                    "coding": [{
                        "system": "http://snomed.info/sct",
                        "code": "736686006"
                    }]
                },
                "subject": {
                    "reference": "Patient/26a37e92-9f80-4dbe-b23b-aa8dc1a43356"
                },
                "onsetDateTime": "2022-04-05T00:00:00+00:00"
            }
        },
        {
            "fullUrl": "Condition/56058cdc-a4cd-42c8-ae76-dbd58f3c2316",
            "resource": {
                "resourceType": "Condition",
                "id": "56058cdc-a4cd-42c8-ae76-dbd58f3c2316",
                "meta": {
                    "profile": [
                        "http://hl7.org/fhir/us/core/StructureDefinition/us-core-condition"
                    ]
                },
                "clinicalStatus": {
                    "coding": [{
                        "system": "http://terminology.hl7.org/CodeSystem/condition-clinical",
                        "code": "active",
                        "display": "Active"
                    }]
                },
                "category": [{
                    "coding": [{
                        "system": "http://terminology.hl7.org/CodeSystem/condition-category",
                        "code": "problem-list-item"
                    }]
                }],
                "code": {
                    "coding": [{
                        "system": "http://snomed.info/sct",
                        "code": "91554004"
                    }]
                },
                "subject": {
                    "reference": "Patient/26a37e92-9f80-4dbe-b23b-aa8dc1a43356"
                },
                "onsetDateTime": "2022-01-26T00:00:00+00:00"
            }
        },
        {
            "fullUrl": "Observation/b8abacd9-7563-48b7-a1df-fb65a57e0641",
            "resource": {
                "resourceType": "Observation",
                "id": "b8abacd9-7563-48b7-a1df-fb65a57e0641",
                "meta": {
                    "profile": [
                        "http://hl7.org/fhir/us/core/StructureDefinition/us-core-observation-lab"
                    ]
                },
                "status": "final",
                "category": [{
                    "coding": [{
                        "system": "http://terminology.hl7.org/CodeSystem/observation-category",
                        "code": "laboratory",
                        "display": "Laboratory"
                    }]
                }],
                "code": {
                    "coding": [{
                        "system": "http://loinc.org",
                        "code": "804-5"
                    }]
                },
                "subject": {
                    "reference": "Patient/26a37e92-9f80-4dbe-b23b-aa8dc1a43356"
                },
                "effectiveDateTime": "2022-01-13T00:00:00+00:00",
                "valueQuantity": {
                    "value": 10.9
                }
            }
        },
        {
            "fullUrl": "Observation/dcfafb92-ffe7-439e-92fa-411fc2fbc96e",
            "resource": {
                "resourceType": "Observation",
                "id": "dcfafb92-ffe7-439e-92fa-411fc2fbc96e",
                "meta": {
                    "profile": [
                        "http://hl7.org/fhir/us/core/StructureDefinition/us-core-observation-lab"
                    ]
                },
                "status": "final",
                "category": [{
                    "coding": [{
                        "system": "http://terminology.hl7.org/CodeSystem/observation-category",
                        "code": "laboratory",
                        "display": "Laboratory"
                    }]
                }],
                "code": {
                    "coding": [{
                        "system": "http://loinc.org",
                        "code": "26464-8"
                    }]
                },
                "subject": {
                    "reference": "Patient/26a37e92-9f80-4dbe-b23b-aa8dc1a43356"
                },
                "effectiveDateTime": "2022-01-17T00:00:00+00:00",
                "valueQuantity": {
                    "value": 6.6
                }
            }
        },
        {
            "fullUrl": "Observation/2489279f-2e9b-4013-b234-7cd4b9e85de8",
            "resource": {
                "resourceType": "Observation",
                "id": "2489279f-2e9b-4013-b234-7cd4b9e85de8",
                "meta": {
                    "profile": [
                        "http://hl7.org/fhir/us/core/StructureDefinition/us-core-observation-lab"
                    ]
                },
                "status": "final",
                "category": [{
                    "coding": [{
                        "system": "http://terminology.hl7.org/CodeSystem/observation-category",
                        "code": "laboratory",
                        "display": "Laboratory"
                    }]
                }],
                "code": {
                    "coding": [{
                        "system": "http://loinc.org",
                        "code": "49498-9"
                    }]
                },
                "subject": {
                    "reference": "Patient/26a37e92-9f80-4dbe-b23b-aa8dc1a43356"
                },
                "effectiveDateTime": "2022-10-17T00:00:00+00:00",
                "valueQuantity": {
                    "value": 8.4
                }
            }
        },
        {
            "fullUrl": "Observation/0f461d58-ef4a-41b7-8e28-161a5028a587",
            "resource": {
                "resourceType": "Observation",
                "id": "0f461d58-ef4a-41b7-8e28-161a5028a587",
                "meta": {
                    "profile": [
                        "http://hl7.org/fhir/us/core/StructureDefinition/us-core-bmi"
                    ]
                },
                "status": "final",
                "category": [{
                    "coding": [{
                        "system": "http://terminology.hl7.org/CodeSystem/observation-category",
                        "code": "vital-signs",
                        "display": "Vital Signs"
                    }]
                }],
                "code": {
                    "coding": [{
                        "system": "http://loinc.org",
                        "code": "39156-5"
                    }]
                },
                "subject": {
                    "reference": "Patient/26a37e92-9f80-4dbe-b23b-aa8dc1a43356"
                },
                "effectiveDateTime": "2022-01-14T00:00:00+00:00",
                "valueQuantity": {
                    "value": 12.93,
                    "unit": "kg/m2",
                    "system": "http://unitsofmeasure.org",
                    "code": "kg/m2"
                }
            }
        },
        {
            "fullUrl": "Observation/06d2283f-b455-4510-bfd9-b0b7ad3a9f6f",
            "resource": {
                "resourceType": "Observation",
                "id": "06d2283f-b455-4510-bfd9-b0b7ad3a9f6f",
                "meta": {
                    "profile": [
                        "http://hl7.org/fhir/us/core/StructureDefinition/us-core-head-circumference"
                    ]
                },
                "status": "final",
                "category": [{
                    "coding": [{
                        "system": "http://terminology.hl7.org/CodeSystem/observation-category",
                        "code": "vital-signs",
                        "display": "Vital Signs"
                    }]
                }],
                "code": {
                    "coding": [{
                        "system": "http://loinc.org",
                        "code": "9843-4"
                    }]
                },
                "subject": {
                    "reference": "Patient/26a37e92-9f80-4dbe-b23b-aa8dc1a43356"
                },
                "effectiveDateTime": "2022-06-30T00:00:00+00:00",
                "valueQuantity": {
                    "value": 6.7,
                    "unit": "Inch",
                    "system": "http://unitsofmeasure.org",
                    "code": "[in_i]"
                }
            }
        },
        {
            "fullUrl": "Observation/34531bc3-3d38-4635-8ddc-ecf1a840caf6",
            "resource": {
                "resourceType": "Observation",
                "id": "34531bc3-3d38-4635-8ddc-ecf1a840caf6",
                "meta": {
                    "profile": [
                        "http://hl7.org/fhir/us/core/StructureDefinition/us-core-head-circumference"
                    ]
                },
                "status": "final",
                "category": [{
                    "coding": [{
                        "system": "http://terminology.hl7.org/CodeSystem/observation-category",
                        "code": "vital-signs",
                        "display": "Vital Signs"
                    }]
                }],
                "code": {
                    "coding": [{
                        "system": "http://loinc.org",
                        "code": "9843-4"
                    }]
                },
                "subject": {
                    "reference": "Patient/26a37e92-9f80-4dbe-b23b-aa8dc1a43356"
                },
                "effectiveDateTime": "2022-12-06T00:00:00+00:00",
                "valueQuantity": {
                    "value": 8.9,
                    "unit": "Inch",
                    "system": "http://unitsofmeasure.org",
                    "code": "[in_i]"
                }
            }
        },
        {
            "fullUrl": "Observation/f91d7129-6ba3-492b-a6e1-9a1643707c01",
            "resource": {
                "resourceType": "Observation",
                "id": "f91d7129-6ba3-492b-a6e1-9a1643707c01",
                "meta": {
                    "profile": [
                        "http://hl7.org/fhir/us/core/StructureDefinition/us-core-body-height"
                    ]
                },
                "status": "final",
                "category": [{
                    "coding": [{
                        "system": "http://terminology.hl7.org/CodeSystem/observation-category",
                        "code": "vital-signs",
                        "display": "Vital Signs"
                    }]
                }],
                "code": {
                    "coding": [{
                        "system": "http://loinc.org",
                        "code": "8302-2"
                    }]
                },
                "subject": {
                    "reference": "Patient/26a37e92-9f80-4dbe-b23b-aa8dc1a43356"
                },
                "effectiveDateTime": "2022-11-26T00:00:00+00:00",
                "valueQuantity": {
                    "value": 80.3,
                    "unit": "Inch",
                    "system": "http://unitsofmeasure.org",
                    "code": "[in_i]"
                }
            }
        },
        {
            "fullUrl": "Observation/860c1f09-4b9a-46d2-99ca-0a5a47bd30e0",
            "resource": {
                "resourceType": "Observation",
                "id": "860c1f09-4b9a-46d2-99ca-0a5a47bd30e0",
                "meta": {
                    "profile": [
                        "http://hl7.org/fhir/us/core/StructureDefinition/us-core-body-height"
                    ]
                },
                "status": "final",
                "category": [{
                    "coding": [{
                        "system": "http://terminology.hl7.org/CodeSystem/observation-category",
                        "code": "vital-signs",
                        "display": "Vital Signs"
                    }]
                }],
                "code": {
                    "coding": [{
                        "system": "http://loinc.org",
                        "code": "8302-2"
                    }]
                },
                "subject": {
                    "reference": "Patient/26a37e92-9f80-4dbe-b23b-aa8dc1a43356"
                },
                "effectiveDateTime": "2022-02-20T00:00:00+00:00",
                "valueQuantity": {
                    "value": 69.6,
                    "unit": "Inch",
                    "system": "http://unitsofmeasure.org",
                    "code": "[in_i]"
                }
            }
        },
        {
            "fullUrl": "Observation/658c0c55-22b1-4127-8d4e-aefe8aba2b4d",
            "resource": {
                "resourceType": "Observation",
                "id": "658c0c55-22b1-4127-8d4e-aefe8aba2b4d",
                "meta": {
                    "profile": [
                        "http://hl7.org/fhir/us/core/StructureDefinition/us-core-body-weight"
                    ]
                },
                "status": "final",
                "category": [{
                    "coding": [{
                        "system": "http://terminology.hl7.org/CodeSystem/observation-category",
                        "code": "vital-signs",
                        "display": "Vital Signs"
                    }]
                }],
                "code": {
                    "coding": [{
                        "system": "http://loinc.org",
                        "code": "29463-7"
                    }]
                },
                "subject": {
                    "reference": "Patient/26a37e92-9f80-4dbe-b23b-aa8dc1a43356"
                },
                "effectiveDateTime": "2022-08-17T00:00:00+00:00",
                "valueQuantity": {
                    "value": 71.14,
                    "unit": "kilogram",
                    "system": "http://unitsofmeasure.org",
                    "code": "kg"
                }
            }
        },
        {
            "fullUrl": "Observation/5a655acb-6fbe-46c0-9a77-4a3d89602a48",
            "resource": {
                "resourceType": "Observation",
                "id": "5a655acb-6fbe-46c0-9a77-4a3d89602a48",
                "meta": {
                    "profile": [
                        "http://hl7.org/fhir/us/core/StructureDefinition/us-core-body-weight"
                    ]
                },
                "status": "final",
                "category": [{
                    "coding": [{
                        "system": "http://terminology.hl7.org/CodeSystem/observation-category",
                        "code": "vital-signs",
                        "display": "Vital Signs"
                    }]
                }],
                "code": {
                    "coding": [{
                        "system": "http://loinc.org",
                        "code": "29463-7"
                    }]
                },
                "subject": {
                    "reference": "Patient/26a37e92-9f80-4dbe-b23b-aa8dc1a43356"
                },
                "effectiveDateTime": "2022-12-02T00:00:00+00:00",
                "valueQuantity": {
                    "value": 90.18,
                    "unit": "kilogram",
                    "system": "http://unitsofmeasure.org",
                    "code": "kg"
                }
            }
        },
        {
            "fullUrl": "Observation/4362b839-9604-4187-9db8-cff2e6faff1c",
            "resource": {
                "resourceType": "Observation",
                "id": "4362b839-9604-4187-9db8-cff2e6faff1c",
                "meta": {
                    "profile": [
                        "http://hl7.org/fhir/us/core/StructureDefinition/us-core-body-temperature"
                    ]
                },
                "status": "final",
                "category": [{
                    "coding": [{
                        "system": "http://terminology.hl7.org/CodeSystem/observation-category",
                        "code": "vital-signs",
                        "display": "Vital Signs"
                    }]
                }],
                "code": {
                    "coding": [{
                        "system": "http://loinc.org",
                        "code": "8310-5"
                    }]
                },
                "subject": {
                    "reference": "Patient/26a37e92-9f80-4dbe-b23b-aa8dc1a43356"
                },
                "effectiveDateTime": "2022-07-05T00:00:00+00:00",
                "valueQuantity": {
                    "value": 142.91,
                    "unit": "Degrees Fahrenheit",
                    "system": "http://unitsofmeasure.org",
                    "code": "[degF]"
                }
            }
        },
        {
            "fullUrl": "Observation/5f4dda40-1307-4351-86cf-c51ddff88c9d",
            "resource": {
                "resourceType": "Observation",
                "id": "5f4dda40-1307-4351-86cf-c51ddff88c9d",
                "meta": {
                    "profile": [
                        "http://hl7.org/fhir/us/core/StructureDefinition/us-core-heart-rate"
                    ]
                },
                "status": "final",
                "category": [{
                    "coding": [{
                        "system": "http://terminology.hl7.org/CodeSystem/observation-category",
                        "code": "vital-signs",
                        "display": "Vital Signs"
                    }]
                }],
                "code": {
                    "coding": [{
                        "system": "http://loinc.org",
                        "code": "8867-4"
                    }]
                },
                "subject": {
                    "reference": "Patient/26a37e92-9f80-4dbe-b23b-aa8dc1a43356"
                },
                "effectiveDateTime": "2022-08-25T00:00:00+00:00",
                "valueQuantity": {
                    "value": 98.6,
                    "unit": "Per Minute",
                    "system": "http://unitsofmeasure.org",
                    "code": "/min"
                }
            }
        }
    ]
}