{"resourceType":"Bundle","id":"1553899f-0c9f-4ba4-a124-11a1a92f1093","type":"transaction","entry":[{"fullUrl":"Patient/73d6bf62-b278-4d23-8b15-fd39f1f60ab2","resource":{"resourceType":"Patient","id":"73d6bf62-b278-4d23-8b15-fd39f1f60ab2","meta":{"profile":["http://hl7.org/fhir/us/core/StructureDefinition/us-core-patient"]},"extension":[{"extension":[{"url":"ombCategory","valueCoding":{"system":"http://terminology.hl7.org/CodeSystem/v3-NullFlavor","code":"ASKU","display":"asked but unknown"}},{"url":"text","valueString":"asked but unknown"}],"url":"http://hl7.org/fhir/us/core/StructureDefinition/us-core-race"},{"extension":[{"url":"ombCategory","valueCoding":{"system":"urn:oid:2.16.840.1.113883.6.238","code":"2135-2","display":"Hispanic or Latino"}},{"url":"text","valueString":"Hispanic or Latino"}],"url":"http://hl7.org/fhir/us/core/StructureDefinition/us-core-ethnicity"}],"identifier":[{"type":{"coding":[{"system":"http://terminology.hl7.org/CodeSystem/v2-0203","code":"MR"}]},"system":"urn:fhirgen:mrn","value":"770-71-4717"},{"type":{"coding":[{"system":"http://terminology.hl7.org/CodeSystem/v2-0203","code":"SS"}]},"system":"http://hl7.org/fhir/sid/us-ssn","value":"187-48-2565"}],"name":[{"use":"official","family":"Berry","given":["Matthew"]},{"use":"maiden","family":"Hendricks"}],"telecom":[{"system":"phone","value":"+1-922-621-9315x3838","use":"work"},{"system":"email","value":"brandi38@hotmail.com","use":"mobile"}],"gender":"male","birthDate":"1981-01-21","address":[{"use":"home","line":["7938 Miller Burgs Apt. 997"],"city":"Mcdonaldview","state":"DC","postalCode":"22869"},{"use":"old","line":["7607 Willie Course Suite 156"],"city":"Jillmouth","state":"IN","postalCode":"04549"}],"maritalStatus":{"coding":[{"system":"http://terminology.hl7.org/CodeSystem/v3-MaritalStatus","code":"U","display":"unmarried"}]}},"request":{"method":"POST","url":"Patient"}},{"fullUrl":"Observation/a4fbfdde-dda6-4ab9-a37e-81714db29d9b","resource":{"resourceType":"Observation","id":"a4fbfdde-dda6-4ab9-a37e-81714db29d9b","meta":{"profile":["http://hl7.org/fhir/us/core/StructureDefinition/us-core-observation-lab"]},"status":"final","category":[{"coding":[{"system":"http://terminology.hl7.org/CodeSystem/observation-category","code":"laboratory","display":"Laboratory"}]}],"code":{"coding":[{"system":"http://loinc.org","code":"31146-4"}]},"subject":{"reference":"Patient/73d6bf62-b278-4d23-8b15-fd39f1f60ab2"},"effectiveDateTime":"2022-09-08T00:00:00+00:00","valueRatio":{"numerator":{"value":1},"denominator":{"value":64}}},"request":{"method":"POST","url":"Observation"}},{"fullUrl":"Observation/f756fc6d-06b6-41e5-8622-8f2dd4704689","resource":{"resourceType":"Observation","id":"f756fc6d-06b6-41e5-8622-8f2dd4704689","meta":{"profile":["http://hl7.org/fhir/us/core/StructureDefinition/us-core-observation-lab"]},"status":"final","category":[{"coding":[{"system":"http://terminology.hl7.org/CodeSystem/observation-category","code":"laboratory","display":"Laboratory"}]}],"code":{"coding":[{"system":"http://loinc.org","code":"22590-4"}]},"subject":{"reference":"Patient/73d6bf62-b278-4d23-8b15-fd39f1f60ab2"},"effectiveDateTime":"2022-09-15T00:00:00+00:00","valueRatio":{"numerator":{"value":1},"denominator":{"value":32}}},"request":{"method":"POST","url":"Observation"}},{"fullUrl":"Observation/60c97817-b260-4948-9ec7-4428c1877b69","resource":{"resourceType":"Observation","id":"60c97817-b260-4948-9ec7-4428c1877b69","meta":{"profile":["http://hl7.org/fhir/us/core/StructureDefinition/us-core-observation-lab"]},"status":"final","category":[{"coding":[{"system":"http://terminology.hl7.org/CodeSystem/observation-category","code":"laboratory","display":"Laboratory"}]}],"code":{"coding":[{"system":"http://loinc.org","code":"11084-1"}]},"subject":{"reference":"Patient/73d6bf62-b278-4d23-8b15-fd39f1f60ab2"},"effectiveDateTime":"2022-03-31T00:00:00+00:00","valueRatio":{"numerator":{"value":1},"denominator":{"value":64}}},"request":{"method":"POST","url":"Observation"}},{"fullUrl":"Condition/1d1150de-4da3-479e-b8b4-dc1f3dcf6deb","resource":{"resourceType":"Condition","id":"1d1150de-4da3-479e-b8b4-dc1f3dcf6deb","meta":{"profile":["http://hl7.org/fhir/us/core/StructureDefinition/us-core-condition"]},"clinicalStatus":{"coding":[{"system":"http://terminology.hl7.org/CodeSystem/condition-clinical","code":"active","display":"Active"}]},"category":[{"coding":[{"system":"http://terminology.hl7.org/CodeSystem/condition-category","code":"problem-list-item"}]}],"code":{"coding":[{"system":"http://snomed.info/sct","code":"44882003"}]},"subject":{"reference":"Patient/73d6bf62-b278-4d23-8b15-fd39f1f60ab2"},"onsetDateTime":"2022-12-16T00:00:00+00:00"},"request":{"method":"POST","url":"Condition"}},{"fullUrl":"Condition/efaa8344-bbdf-4a69-8ed3-c8c8232d5c68","resource":{"resourceType":"Condition","id":"efaa8344-bbdf-4a69-8ed3-c8c8232d5c68","meta":{"profile":["http://hl7.org/fhir/us/core/StructureDefinition/us-core-condition"]},"clinicalStatus":{"coding":[{"system":"http://terminology.hl7.org/CodeSystem/condition-clinical","code":"active","display":"Active"}]},"category":[{"coding":[{"system":"http://terminology.hl7.org/CodeSystem/condition-category","code":"problem-list-item"}]}],"code":{"coding":[{"system":"http://snomed.info/sct","code":"44882003"}]},"subject":{"reference":"Patient/73d6bf62-b278-4d23-8b15-fd39f1f60ab2"},"onsetDateTime":"2022-01-14T00:00:00+00:00"},"request":{"method":"POST","url":"Condition"}},{"fullUrl":"Condition/636e83d4-e803-4dea-abc4-b2ad7199cc6f","resource":{"resourceType":"Condition","id":"636e83d4-e803-4dea-abc4-b2ad7199cc6f","meta":{"profile":["http://hl7.org/fhir/us/core/StructureDefinition/us-core-condition"]},"clinicalStatus":{"coding":[{"system":"http://terminology.hl7.org/CodeSystem/condition-clinical","code":"active","display":"Active"}]},"category":[{"coding":[{"system":"http://terminology.hl7.org/CodeSystem/condition-category","code":"problem-list-item"}]}],"code":{"coding":[{"system":"http://snomed.info/sct","code":"91554004"}]},"subject":{"reference":"Patient/73d6bf62-b278-4d23-8b15-fd39f1f60ab2"},"onsetDateTime":"2022-04-15T00:00:00+00:00"},"request":{"method":"POST","url":"Condition"}},{"fullUrl":"Condition/fd318336-11b5-48ef-931d-c23a73695651","resource":{"resourceType":"Condition","id":"fd318336-11b5-48ef-931d-c23a73695651","meta":{"profile":["http://hl7.org/fhir/us/core/StructureDefinition/us-core-condition"]},"clinicalStatus":{"coding":[{"system":"http://terminology.hl7.org/CodeSystem/condition-clinical","code":"active","display":"Active"}]},"category":[{"coding":[{"system":"http://terminology.hl7.org/CodeSystem/condition-category","code":"problem-list-item"}]}],"code":{"coding":[{"system":"http://snomed.info/sct","code":"44882003"}]},"subject":{"reference":"Patient/73d6bf62-b278-4d23-8b15-fd39f1f60ab2"},"onsetDateTime":"2022-11-22T00:00:00+00:00"},"request":{"method":"POST","url":"Condition"}},{"fullUrl":"Condition/c77d5669-a138-4bc4-9a9f-dd7eaa5371a2","resource":{"resourceType":"Condition","id":"c77d5669-a138-4bc4-9a9f-dd7eaa5371a2","meta":{"profile":["http://hl7.org/fhir/us/core/StructureDefinition/us-core-condition"]},"clinicalStatus":{"coding":[{"system":"http://terminology.hl7.org/CodeSystem/condition-clinical","code":"active","display":"Active"}]},"category":[{"coding":[{"system":"http://terminology.hl7.org/CodeSystem/condition-category","code":"problem-list-item"}]}],"code":{"coding":[{"system":"http://snomed.info/sct","code":"418290006"}]},"subject":{"reference":"Patient/73d6bf62-b278-4d23-8b15-fd39f1f60ab2"},"onsetDateTime":"2022-05-14T00:00:00+00:00"},"request":{"method":"POST","url":"Condition"}},{"fullUrl":"Condition/127d3ffd-a05e-4f49-8441-983609ae4fcc","resource":{"resourceType":"Condition","id":"127d3ffd-a05e-4f49-8441-983609ae4fcc","meta":{"profile":["http://hl7.org/fhir/us/core/StructureDefinition/us-core-condition"]},"clinicalStatus":{"coding":[{"system":"http://terminology.hl7.org/CodeSystem/condition-clinical","code":"active","display":"Active"}]},"category":[{"coding":[{"system":"http://terminology.hl7.org/CodeSystem/condition-category","code":"problem-list-item"}]}],"code":{"coding":[{"system":"http://snomed.info/sct","code":"91554004"}]},"subject":{"reference":"Patient/73d6bf62-b278-4d23-8b15-fd39f1f60ab2"},"onsetDateTime":"2022-08-12T00:00:00+00:00"},"request":{"method":"POST","url":"Condition"}},{"fullUrl":"Observation/ce629d0c-a0a2-4960-932f-bb49f5dae530","resource":{"resourceType":"Observation","id":"ce629d0c-a0a2-4960-932f-bb49f5dae530","meta":{"profile":["http://hl7.org/fhir/us/core/StructureDefinition/us-core-observation-lab"]},"status":"final","category":[{"coding":[{"system":"http://terminology.hl7.org/CodeSystem/observation-category","code":"laboratory","display":"Laboratory"}]}],"code":{"coding":[{"system":"http://loinc.org","code":"6690-2"}]},"subject":{"reference":"Patient/73d6bf62-b278-4d23-8b15-fd39f1f60ab2"},"effectiveDateTime":"2022-09-24T00:00:00+00:00","valueQuantity":{"value":9.9}},"request":{"method":"POST","url":"Observation"}},{"fullUrl":"Observation/6e6350f2-e605-42d9-bfb8-8eb0d7c66cb9","resource":{"resourceType":"Observation","id":"6e6350f2-e605-42d9-bfb8-8eb0d7c66cb9","meta":{"profile":["http://hl7.org/fhir/us/core/StructureDefinition/us-core-observation-lab"]},"status":"final","category":[{"coding":[{"system":"http://terminology.hl7.org/CodeSystem/observation-category","code":"laboratory","display":"Laboratory"}]}],"code":{"coding":[{"system":"http://loinc.org","code":"49498-9"}]},"subject":{"reference":"Patient/73d6bf62-b278-4d23-8b15-fd39f1f60ab2"},"effectiveDateTime":"2022-08-16T00:00:00+00:00","valueQuantity":{"value":4.4}},"request":{"method":"POST","url":"Observation"}},{"fullUrl":"Observation/d907c28d-e3f9-4cba-bfe6-aa297e2cf2c8","resource":{"resourceType":"Observation","id":"d907c28d-e3f9-4cba-bfe6-aa297e2cf2c8","meta":{"profile":["http://hl7.org/fhir/us/core/StructureDefinition/us-core-bmi"]},"status":"final","category":[{"coding":[{"system":"http://terminology.hl7.org/CodeSystem/observation-category","code":"vital-signs","display":"Vital Signs"}]}],"code":{"coding":[{"system":"http://loinc.org","code":"39156-5"}]},"subject":{"reference":"Patient/73d6bf62-b278-4d23-8b15-fd39f1f60ab2"},"effectiveDateTime":"2022-10-19T00:00:00+00:00","valueQuantity":{"value":12,"unit":"kg/m2","system":"http://unitsofmeasure.org","code":"kg/m2"}},"request":{"method":"POST","url":"Observation"}},{"fullUrl":"Observation/53437227-5afe-436b-8823-e3deb1cdcdb7","resource":{"resourceType":"Observation","id":"53437227-5afe-436b-8823-e3deb1cdcdb7","meta":{"profile":["http://hl7.org/fhir/us/core/StructureDefinition/us-core-head-circumference"]},"status":"final","category":[{"coding":[{"system":"http://terminology.hl7.org/CodeSystem/observation-category","code":"vital-signs","display":"Vital Signs"}]}],"code":{"coding":[{"system":"http://loinc.org","code":"9843-4"}]},"subject":{"reference":"Patient/73d6bf62-b278-4d23-8b15-fd39f1f60ab2"},"effectiveDateTime":"2022-07-11T00:00:00+00:00","valueQuantity":{"value":7.5,"unit":"Inch","system":"http://unitsofmeasure.org","code":"[in_i]"}},"request":{"method":"POST","url":"Observation"}},{"fullUrl":"Observation/1bbc4b95-8ff7-42d3-9aaa-936e4c4a195b","resource":{"resourceType":"Observation","id":"1bbc4b95-8ff7-42d3-9aaa-936e4c4a195b","meta":{"profile":["http://hl7.org/fhir/us/core/StructureDefinition/us-core-head-circumference"]},"status":"final","category":[{"coding":[{"system":"http://terminology.hl7.org/CodeSystem/observation-category","code":"vital-signs","display":"Vital Signs"}]}],"code":{"coding":[{"system":"http://loinc.org","code":"9843-4"}]},"subject":{"reference":"Patient/73d6bf62-b278-4d23-8b15-fd39f1f60ab2"},"effectiveDateTime":"2022-07-19T00:00:00+00:00","valueQuantity":{"value":7.1,"unit":"Inch","system":"http://unitsofmeasure.org","code":"[in_i]"}},"request":{"method":"POST","url":"Observation"}},{"fullUrl":"Observation/3d5c0317-8fb8-49e3-86a5-b4f0e9156849","resource":{"resourceType":"Observation","id":"3d5c0317-8fb8-49e3-86a5-b4f0e9156849","meta":{"profile":["http://hl7.org/fhir/us/core/StructureDefinition/us-core-body-height"]},"status":"final","category":[{"coding":[{"system":"http://terminology.hl7.org/CodeSystem/observation-category","code":"vital-signs","display":"Vital Signs"}]}],"code":{"coding":[{"system":"http://loinc.org","code":"8302-2"}]},"subject":{"reference":"Patient/73d6bf62-b278-4d23-8b15-fd39f1f60ab2"},"effectiveDateTime":"2022-11-07T00:00:00+00:00","valueQuantity":{"value":64.7,"unit":"Inch","system":"http://unitsofmeasure.org","code":"[in_i]"}},"request":{"method":"POST","url":"Observation"}},{"fullUrl":"Observation/01f05c4a-df34-4721-bb0a-88dd6e1e29b0","resource":{"resourceType":"Observation","id":"01f05c4a-df34-4721-bb0a-88dd6e1e29b0","meta":{"profile":["http://hl7.org/fhir/us/core/StructureDefinition/us-core-body-height"]},"status":"final","category":[{"coding":[{"system":"http://terminology.hl7.org/CodeSystem/observation-category","code":"vital-signs","display":"Vital Signs"}]}],"code":{"coding":[{"system":"http://loinc.org","code":"8302-2"}]},"subject":{"reference":"Patient/73d6bf62-b278-4d23-8b15-fd39f1f60ab2"},"effectiveDateTime":"2022-03-01T00:00:00+00:00","valueQuantity":{"value":83.3,"unit":"Inch","system":"http://unitsofmeasure.org","code":"[in_i]"}},"request":{"method":"POST","url":"Observation"}},{"fullUrl":"Observation/61ce4b55-a391-4871-90ff-ff1a85a0be20","resource":{"resourceType":"Observation","id":"61ce4b55-a391-4871-90ff-ff1a85a0be20","meta":{"profile":["http://hl7.org/fhir/us/core/StructureDefinition/us-core-body-weight"]},"status":"final","category":[{"coding":[{"system":"http://terminology.hl7.org/CodeSystem/observation-category","code":"vital-signs","display":"Vital Signs"}]}],"code":{"coding":[{"system":"http://loinc.org","code":"29463-7"}]},"subject":{"reference":"Patient/73d6bf62-b278-4d23-8b15-fd39f1f60ab2"},"effectiveDateTime":"2022-12-19T00:00:00+00:00","valueQuantity":{"value":133.88,"unit":"kilogram","system":"http://unitsofmeasure.org","code":"kg"}},"request":{"method":"POST","url":"Observation"}},{"fullUrl":"Observation/196d9978-2e66-4e21-95f6-8601f13be090","resource":{"resourceType":"Observation","id":"196d9978-2e66-4e21-95f6-8601f13be090","meta":{"profile":["http://hl7.org/fhir/us/core/StructureDefinition/us-core-body-temperature"]},"status":"final","category":[{"coding":[{"system":"http://terminology.hl7.org/CodeSystem/observation-category","code":"vital-signs","display":"Vital Signs"}]}],"code":{"coding":[{"system":"http://loinc.org","code":"8310-5"}]},"subject":{"reference":"Patient/73d6bf62-b278-4d23-8b15-fd39f1f60ab2"},"effectiveDateTime":"2022-07-12T00:00:00+00:00","valueQuantity":{"value":65.55,"unit":"Degrees Fahrenheit","system":"http://unitsofmeasure.org","code":"[degF]"}},"request":{"method":"POST","url":"Observation"}},{"fullUrl":"Observation/76ff5ece-128c-4daf-b0e3-e93b29d3ac34","resource":{"resourceType":"Observation","id":"76ff5ece-128c-4daf-b0e3-e93b29d3ac34","meta":{"profile":["http://hl7.org/fhir/us/core/StructureDefinition/us-core-body-temperature"]},"status":"final","category":[{"coding":[{"system":"http://terminology.hl7.org/CodeSystem/observation-category","code":"vital-signs","display":"Vital Signs"}]}],"code":{"coding":[{"system":"http://loinc.org","code":"8310-5"}]},"subject":{"reference":"Patient/73d6bf62-b278-4d23-8b15-fd39f1f60ab2"},"effectiveDateTime":"2022-12-15T00:00:00+00:00","valueQuantity":{"value":73.59,"unit":"Degrees Fahrenheit","system":"http://unitsofmeasure.org","code":"[degF]"}},"request":{"method":"POST","url":"Observation"}},{"fullUrl":"Observation/d46e671f-a54d-4621-82ee-25d39995fe10","resource":{"resourceType":"Observation","id":"d46e671f-a54d-4621-82ee-25d39995fe10","meta":{"profile":["http://hl7.org/fhir/us/core/StructureDefinition/us-core-heart-rate"]},"status":"final","category":[{"coding":[{"system":"http://terminology.hl7.org/CodeSystem/observation-category","code":"vital-signs","display":"Vital Signs"}]}],"code":{"coding":[{"system":"http://loinc.org","code":"8867-4"}]},"subject":{"reference":"Patient/73d6bf62-b278-4d23-8b15-fd39f1f60ab2"},"effectiveDateTime":"2022-08-24T00:00:00+00:00","valueQuantity":{"value":98.4,"unit":"Per Minute","system":"http://unitsofmeasure.org","code":"/min"}},"request":{"method":"POST","url":"Observation"}},{"fullUrl":"Observation/f87ac66b-f0f2-4f28-ad75-44cdcd08fb11","resource":{"resourceType":"Observation","id":"f87ac66b-f0f2-4f28-ad75-44cdcd08fb11","meta":{"profile":["http://hl7.org/fhir/us/core/StructureDefinition/us-core-heart-rate"]},"status":"final","category":[{"coding":[{"system":"http://terminology.hl7.org/CodeSystem/observation-category","code":"vital-signs","display":"Vital Signs"}]}],"code":{"coding":[{"system":"http://loinc.org","code":"8867-4"}]},"subject":{"reference":"Patient/73d6bf62-b278-4d23-8b15-fd39f1f60ab2"},"effectiveDateTime":"2022-10-06T00:00:00+00:00","valueQuantity":{"value":96.7,"unit":"Per Minute","system":"http://unitsofmeasure.org","code":"/min"}},"request":{"method":"POST","url":"Observation"}},{"fullUrl":"Patient/a7c0ea0b-50ee-4b46-868e-b639fa04973d","resource":{"resourceType":"Patient","id":"a7c0ea0b-50ee-4b46-868e-b639fa04973d","meta":{"profile":["http://hl7.org/fhir/us/core/StructureDefinition/us-core-patient"]},"extension":[{"extension":[{"url":"ombCategory","valueCoding":{"system":"urn:oid:2.16.840.1.113883.6.238","code":"2054-5","display":"Black or African American"}},{"url":"text","valueString":"Black or African American"}],"url":"http://hl7.org/fhir/us/core/StructureDefinition/us-core-race"},{"extension":[{"url":"ombCategory","valueCoding":{"system":"urn:oid:2.16.840.1.113883.6.238","code":"2186-5","display":"Non Hispanic or Latino"}},{"url":"text","valueString":"Non Hispanic or Latino"}],"url":"http://hl7.org/fhir/us/core/StructureDefinition/us-core-ethnicity"}],"identifier":[{"type":{"coding":[{"system":"http://terminology.hl7.org/CodeSystem/v2-0203","code":"MR"}]},"system":"urn:fhirgen:mrn","value":"840-89-5668"},{"type":{"coding":[{"system":"http://terminology.hl7.org/CodeSystem/v2-0203","code":"SS"}]},"system":"http://hl7.org/fhir/sid/us-ssn","value":"463-49-9133"}],"name":[{"use":"official","family":"Ali","given":["Michael"]},{"use":"maiden","family":"Meadows"}],"telecom":[{"system":"phone","value":"685-886-5168","use":"mobile"},{"system":"email","value":"qlarson@hotmail.com","use":"mobile"}],"gender":"male","birthDate":"1950-07-30","address":[{"use":"home","line":["25219 Randall Rapids"],"city":"South Blake","state":"WI","postalCode":"14712"},{"use":"old","line":["89620 Susan Trail Apt. 681"],"city":"Hernandeztown","state":"SC","postalCode":"68208"}],"maritalStatus":{"coding":[{"system":"http://terminology.hl7.org/CodeSystem/v3-MaritalStatus","code":"W","display":"Widowed"}]}},"request":{"method":"POST","url":"Patient"}},{"fullUrl":"Observation/f7dcc15f-7fb9-4de0-9ce2-43f5a821a479","resource":{"resourceType":"Observation","id":"f7dcc15f-7fb9-4de0-9ce2-43f5a821a479","meta":{"profile":["http://hl7.org/fhir/us/core/StructureDefinition/us-core-observation-lab"]},"status":"final","category":[{"coding":[{"system":"http://terminology.hl7.org/CodeSystem/observation-category","code":"laboratory","display":"Laboratory"}]}],"code":{"coding":[{"system":"http://loinc.org","code":"11084-1"}]},"subject":{"reference":"Patient/a7c0ea0b-50ee-4b46-868e-b639fa04973d"},"effectiveDateTime":"2022-11-06T00:00:00+00:00","valueRatio":{"numerator":{"value":1},"denominator":{"value":32}}},"request":{"method":"POST","url":"Observation"}},{"fullUrl":"Observation/cf550367-0832-43c4-a6b3-82019f69188a","resource":{"resourceType":"Observation","id":"cf550367-0832-43c4-a6b3-82019f69188a","meta":{"profile":["http://hl7.org/fhir/us/core/StructureDefinition/us-core-observation-lab"]},"status":"final","category":[{"coding":[{"system":"http://terminology.hl7.org/CodeSystem/observation-category","code":"laboratory","display":"Laboratory"}]}],"code":{"coding":[{"system":"http://loinc.org","code":"34382-2"}]},"subject":{"reference":"Patient/a7c0ea0b-50ee-4b46-868e-b639fa04973d"},"effectiveDateTime":"2022-06-23T00:00:00+00:00","valueRatio":{"numerator":{"value":1},"denominator":{"value":64}}},"request":{"method":"POST","url":"Observation"}},{"fullUrl":"Condition/156a7e57-ef30-4d33-89af-435ca5358cb0","resource":{"resourceType":"Condition","id":"156a7e57-ef30-4d33-89af-435ca5358cb0","meta":{"profile":["http://hl7.org/fhir/us/core/StructureDefinition/us-core-condition"]},"clinicalStatus":{"coding":[{"system":"http://terminology.hl7.org/CodeSystem/condition-clinical","code":"active","display":"Active"}]},"category":[{"coding":[{"system":"http://terminology.hl7.org/CodeSystem/condition-category","code":"problem-list-item"}]}],"code":{"coding":[{"system":"http://snomed.info/sct","code":"736686006"}]},"subject":{"reference":"Patient/a7c0ea0b-50ee-4b46-868e-b639fa04973d"},"onsetDateTime":"2022-03-12T00:00:00+00:00"},"request":{"method":"POST","url":"Condition"}},{"fullUrl":"Condition/870624b5-df6a-4f12-a41f-5a709dbe60b1","resource":{"resourceType":"Condition","id":"870624b5-df6a-4f12-a41f-5a709dbe60b1","meta":{"profile":["http://hl7.org/fhir/us/core/StructureDefinition/us-core-condition"]},"clinicalStatus":{"coding":[{"system":"http://terminology.hl7.org/CodeSystem/condition-clinical","code":"active","display":"Active"}]},"category":[{"coding":[{"system":"http://terminology.hl7.org/CodeSystem/condition-category","code":"problem-list-item"}]}],"code":{"coding":[{"system":"http://snomed.info/sct","code":"736686006"}]},"subject":{"reference":"Patient/a7c0ea0b-50ee-4b46-868e-b639fa04973d"},"onsetDateTime":"2022-08-17T00:00:00+00:00"},"request":{"method":"POST","url":"Condition"}},{"fullUrl":"Condition/c5c75072-0dbb-41d4-bcea-0ca1832dc678","resource":{"resourceType":"Condition","id":"c5c75072-0dbb-41d4-bcea-0ca1832dc678","meta":{"profile":["http://hl7.org/fhir/us/core/StructureDefinition/us-core-condition"]},"clinicalStatus":{"coding":[{"system":"http://terminology.hl7.org/CodeSystem/condition-clinical","code":"active","display":"Active"}]},"category":[{"coding":[{"system":"http://terminology.hl7.org/CodeSystem/condition-category","code":"problem-list-item"}]}],"code":{"coding":[{"system":"http://snomed.info/sct","code":"44882003"}]},"subject":{"reference":"Patient/a7c0ea0b-50ee-4b46-868e-b639fa04973d"},"onsetDateTime":"2022-04-02T00:00:00+00:00"},"request":{"method":"POST","url":"Condition"}},{"fullUrl":"Condition/8bbc6fa5-fa87-41a1-b54f-7aded9f9bac4","resource":{"resourceType":"Condition","id":"8bbc6fa5-fa87-41a1-b54f-7aded9f9bac4","meta":{"profile":["http://hl7.org/fhir/us/core/StructureDefinition/us-core-condition"]},"clinicalStatus":{"coding":[{"system":"http://terminology.hl7.org/CodeSystem/condition-clinical","code":"active","display":"Active"}]},"category":[{"coding":[{"system":"http://terminology.hl7.org/CodeSystem/condition-category","code":"problem-list-item"}]}],"code":{"coding":[{"system":"http://snomed.info/sct","code":"91554004"}]},"subject":{"reference":"Patient/a7c0ea0b-50ee-4b46-868e-b639fa04973d"},"onsetDateTime":"2022-02-21T00:00:00+00:00"},"request":{"method":"POST","url":"Condition"}},{"fullUrl":"Condition/27914501-66ef-4ca6-b220-3faaf4c53784","resource":{"resourceType":"Condition","id":"27914501-66ef-4ca6-b220-3faaf4c53784","meta":{"profile":["http://hl7.org/fhir/us/core/StructureDefinition/us-core-condition"]},"clinicalStatus":{"coding":[{"system":"http://terminology.hl7.org/CodeSystem/condition-clinical","code":"active","display":"Active"}]},"category":[{"coding":[{"system":"http://terminology.hl7.org/CodeSystem/condition-category","code":"problem-list-item"}]}],"code":{"coding":[{"system":"http://snomed.info/sct","code":"91554004"}]},"subject":{"reference":"Patient/a7c0ea0b-50ee-4b46-868e-b639fa04973d"},"onsetDateTime":"2022-05-25T00:00:00+00:00"},"request":{"method":"POST","url":"Condition"}},{"fullUrl":"Condition/3a61660e-8175-48ba-a9a2-fb455c38e2ab","resource":{"resourceType":"Condition","id":"3a61660e-8175-48ba-a9a2-fb455c38e2ab","meta":{"profile":["http://hl7.org/fhir/us/core/StructureDefinition/us-core-condition"]},"clinicalStatus":{"coding":[{"system":"http://terminology.hl7.org/CodeSystem/condition-clinical","code":"active","display":"Active"}]},"category":[{"coding":[{"system":"http://terminology.hl7.org/CodeSystem/condition-category","code":"problem-list-item"}]}],"code":{"coding":[{"system":"http://snomed.info/sct","code":"91554004"}]},"subject":{"reference":"Patient/a7c0ea0b-50ee-4b46-868e-b639fa04973d"},"onsetDateTime":"2022-02-02T00:00:00+00:00"},"request":{"method":"POST","url":"Condition"}},{"fullUrl":"Condition/f5c8b626-3872-4462-8e9f-ffb907a4fadb","resource":{"resourceType":"Condition","id":"f5c8b626-3872-4462-8e9f-ffb907a4fadb","meta":{"profile":["http://hl7.org/fhir/us/core/StructureDefinition/us-core-condition"]},"clinicalStatus":{"coding":[{"system":"http://terminology.hl7.org/CodeSystem/condition-clinical","code":"active","display":"Active"}]},"category":[{"coding":[{"system":"http://terminology.hl7.org/CodeSystem/condition-category","code":"problem-list-item"}]}],"code":{"coding":[{"system":"http://snomed.info/sct","code":"91554004"}]},"subject":{"reference":"Patient/a7c0ea0b-50ee-4b46-868e-b639fa04973d"},"onsetDateTime":"2022-11-09T00:00:00+00:00"},"request":{"method":"POST","url":"Condition"}},{"fullUrl":"Condition/c3d2e6ac-b4fd-4179-8576-8c46f45731a8","resource":{"resourceType":"Condition","id":"c3d2e6ac-b4fd-4179-8576-8c46f45731a8","meta":{"profile":["http://hl7.org/fhir/us/core/StructureDefinition/us-core-condition"]},"clinicalStatus":{"coding":[{"system":"http://terminology.hl7.org/CodeSystem/condition-clinical","code":"active","display":"Active"}]},"category":[{"coding":[{"system":"http://terminology.hl7.org/CodeSystem/condition-category","code":"problem-list-item"}]}],"code":{"coding":[{"system":"http://snomed.info/sct","code":"418290006"}]},"subject":{"reference":"Patient/a7c0ea0b-50ee-4b46-868e-b639fa04973d"},"onsetDateTime":"2022-06-08T00:00:00+00:00"},"request":{"method":"POST","url":"Condition"}},{"fullUrl":"Observation/77579459-8469-4cdd-9aa8-62077d859013","resource":{"resourceType":"Observation","id":"77579459-8469-4cdd-9aa8-62077d859013","meta":{"profile":["http://hl7.org/fhir/us/core/StructureDefinition/us-core-observation-lab"]},"status":"final","category":[{"coding":[{"system":"http://terminology.hl7.org/CodeSystem/observation-category","code":"laboratory","display":"Laboratory"}]}],"code":{"coding":[{"system":"http://loinc.org","code":"49498-9"}]},"subject":{"reference":"Patient/a7c0ea0b-50ee-4b46-868e-b639fa04973d"},"effectiveDateTime":"2022-01-19T00:00:00+00:00","valueQuantity":{"value":9.8}},"request":{"method":"POST","url":"Observation"}},{"fullUrl":"Observation/9e887327-7fb8-44dc-8b67-b315b0c82185","resource":{"resourceType":"Observation","id":"9e887327-7fb8-44dc-8b67-b315b0c82185","meta":{"profile":["http://hl7.org/fhir/us/core/StructureDefinition/us-core-observation-lab"]},"status":"final","category":[{"coding":[{"system":"http://terminology.hl7.org/CodeSystem/observation-category","code":"laboratory","display":"Laboratory"}]}],"code":{"coding":[{"system":"http://loinc.org","code":"26464-8"}]},"subject":{"reference":"Patient/a7c0ea0b-50ee-4b46-868e-b639fa04973d"},"effectiveDateTime":"2022-11-03T00:00:00+00:00","valueQuantity":{"value":10}},"request":{"method":"POST","url":"Observation"}},{"fullUrl":"Observation/e91619ac-68a7-4f76-95ca-54eb135bc379","resource":{"resourceType":"Observation","id":"e91619ac-68a7-4f76-95ca-54eb135bc379","meta":{"profile":["http://hl7.org/fhir/us/core/StructureDefinition/us-core-observation-lab"]},"status":"final","category":[{"coding":[{"system":"http://terminology.hl7.org/CodeSystem/observation-category","code":"laboratory","display":"Laboratory"}]}],"code":{"coding":[{"system":"http://loinc.org","code":"6690-2"}]},"subject":{"reference":"Patient/a7c0ea0b-50ee-4b46-868e-b639fa04973d"},"effectiveDateTime":"2022-07-31T00:00:00+00:00","valueQuantity":{"value":6.5}},"request":{"method":"POST","url":"Observation"}},{"fullUrl":"Observation/4a511f1b-95f7-4a6b-94bb-99247758f550","resource":{"resourceType":"Observation","id":"4a511f1b-95f7-4a6b-94bb-99247758f550","meta":{"profile":["http://hl7.org/fhir/us/core/StructureDefinition/us-core-bmi"]},"status":"final","category":[{"coding":[{"system":"http://terminology.hl7.org/CodeSystem/observation-category","code":"vital-signs","display":"Vital Signs"}]}],"code":{"coding":[{"system":"http://loinc.org","code":"39156-5"}]},"subject":{"reference":"Patient/a7c0ea0b-50ee-4b46-868e-b639fa04973d"},"effectiveDateTime":"2022-01-15T00:00:00+00:00","valueQuantity":{"value":29.94,"unit":"kg/m2","system":"http://unitsofmeasure.org","code":"kg/m2"}},"request":{"method":"POST","url":"Observation"}},{"fullUrl":"Observation/92e1098e-5d5e-4b56-b267-eb7defa59288","resource":{"resourceType":"Observation","id":"92e1098e-5d5e-4b56-b267-eb7defa59288","meta":{"profile":["http://hl7.org/fhir/us/core/StructureDefinition/us-core-head-circumference"]},"status":"final","category":[{"coding":[{"system":"http://terminology.hl7.org/CodeSystem/observation-category","code":"vital-signs","display":"Vital Signs"}]}],"code":{"coding":[{"system":"http://loinc.org","code":"9843-4"}]},"subject":{"reference":"Patient/a7c0ea0b-50ee-4b46-868e-b639fa04973d"},"effectiveDateTime":"2022-09-05T00:00:00+00:00","valueQuantity":{"value":6.8,"unit":"Inch","system":"http://unitsofmeasure.org","code":"[in_i]"}},"request":{"method":"POST","url":"Observation"}},{"fullUrl":"Observation/0fd9ff16-f757-4986-a248-20817e7cb3b8","resource":{"resourceType":"Observation","id":"0fd9ff16-f757-4986-a248-20817e7cb3b8","meta":{"profile":["http://hl7.org/fhir/us/core/StructureDefinition/us-core-body-height"]},"status":"final","category":[{"coding":[{"system":"http://terminology.hl7.org/CodeSystem/observation-category","code":"vital-signs","display":"Vital Signs"}]}],"code":{"coding":[{"system":"http://loinc.org","code":"8302-2"}]},"subject":{"reference":"Patient/a7c0ea0b-50ee-4b46-868e-b639fa04973d"},"effectiveDateTime":"2022-05-03T00:00:00+00:00","valueQuantity":{"value":60.5,"unit":"Inch","system":"http://unitsofmeasure.org","code":"[in_i]"}},"request":{"method":"POST","url":"Observation"}},{"fullUrl":"Observation/528685e8-02bc-476a-9648-f5d04a80014a","resource":{"resourceType":"Observation","id":"528685e8-02bc-476a-9648-f5d04a80014a","meta":{"profile":["http://hl7.org/fhir/us/core/StructureDefinition/us-core-body-weight"]},"status":"final","category":[{"coding":[{"system":"http://terminology.hl7.org/CodeSystem/observation-category","code":"vital-signs","display":"Vital Signs"}]}],"code":{"coding":[{"system":"http://loinc.org","code":"29463-7"}]},"subject":{"reference":"Patient/a7c0ea0b-50ee-4b46-868e-b639fa04973d"},"effectiveDateTime":"2022-06-27T00:00:00+00:00","valueQuantity":{"value":21.16,"unit":"kilogram","system":"http://unitsofmeasure.org","code":"kg"}},"request":{"method":"POST","url":"Observation"}},{"fullUrl":"Observation/3401bb5f-a3a4-483a-ae75-1cb8c1aca4e6","resource":{"resourceType":"Observation","id":"3401bb5f-a3a4-483a-ae75-1cb8c1aca4e6","meta":{"profile":["http://hl7.org/fhir/us/core/StructureDefinition/us-core-body-temperature"]},"status":"final","category":[{"coding":[{"system":"http://terminology.hl7.org/CodeSystem/observation-category","code":"vital-signs","display":"Vital Signs"}]}],"code":{"coding":[{"system":"http://loinc.org","code":"8310-5"}]},"subject":{"reference":"Patient/a7c0ea0b-50ee-4b46-868e-b639fa04973d"},"effectiveDateTime":"2022-05-05T00:00:00+00:00","valueQuantity":{"value":58.45,"unit":"Degrees Fahrenheit","system":"http://unitsofmeasure.org","code":"[degF]"}},"request":{"method":"POST","url":"Observation"}},{"fullUrl":"Observation/e0b548d0-511a-4327-ab71-e322dc8b1f45","resource":{"resourceType":"Observation","id":"e0b548d0-511a-4327-ab71-e322dc8b1f45","meta":{"profile":["http://hl7.org/fhir/us/core/StructureDefinition/us-core-heart-rate"]},"status":"final","category":[{"coding":[{"system":"http://terminology.hl7.org/CodeSystem/observation-category","code":"vital-signs","display":"Vital Signs"}]}],"code":{"coding":[{"system":"http://loinc.org","code":"8867-4"}]},"subject":{"reference":"Patient/a7c0ea0b-50ee-4b46-868e-b639fa04973d"},"effectiveDateTime":"2022-06-22T00:00:00+00:00","valueQuantity":{"value":101.1,"unit":"Per Minute","system":"http://unitsofmeasure.org","code":"/min"}},"request":{"method":"POST","url":"Observation"}},{"fullUrl":"Observation/32497fc5-e623-454c-8625-910aeb90e8d1","resource":{"resourceType":"Observation","id":"32497fc5-e623-454c-8625-910aeb90e8d1","meta":{"profile":["http://hl7.org/fhir/us/core/StructureDefinition/us-core-heart-rate"]},"status":"final","category":[{"coding":[{"system":"http://terminology.hl7.org/CodeSystem/observation-category","code":"vital-signs","display":"Vital Signs"}]}],"code":{"coding":[{"system":"http://loinc.org","code":"8867-4"}]},"subject":{"reference":"Patient/a7c0ea0b-50ee-4b46-868e-b639fa04973d"},"effectiveDateTime":"2022-01-04T00:00:00+00:00","valueQuantity":{"value":99.5,"unit":"Per Minute","system":"http://unitsofmeasure.org","code":"/min"}},"request":{"method":"POST","url":"Observation"}},{"fullUrl":"Patient/0a4104d8-e342-460d-bf13-5d6ca24d3fd2","resource":{"resourceType":"Patient","id":"0a4104d8-e342-460d-bf13-5d6ca24d3fd2","meta":{"profile":["http://hl7.org/fhir/us/core/StructureDefinition/us-core-patient"]},"extension":[{"extension":[{"url":"ombCategory","valueCoding":{"system":"http://terminology.hl7.org/CodeSystem/v3-NullFlavor","code":"UNK","display":"unknown"}},{"url":"text","valueString":"unknown"}],"url":"http://hl7.org/fhir/us/core/StructureDefinition/us-core-race"},{"extension":[{"url":"ombCategory","valueCoding":{"system":"urn:oid:2.16.840.1.113883.6.238","code":"2186-5","display":"Non Hispanic or Latino"}},{"url":"text","valueString":"Non Hispanic or Latino"}],"url":"http://hl7.org/fhir/us/core/StructureDefinition/us-core-ethnicity"}],"identifier":[{"type":{"coding":[{"system":"http://terminology.hl7.org/CodeSystem/v2-0203","code":"MR"}]},"system":"urn:fhirgen:mrn","value":"198-11-8140"},{"type":{"coding":[{"system":"http://terminology.hl7.org/CodeSystem/v2-0203","code":"SS"}]},"system":"http://hl7.org/fhir/sid/us-ssn","value":"250-13-9710"}],"name":[{"use":"official","family":"Ingram","given":["Stephanie"]},{"use":"maiden","family":"Powell"}],"telecom":[{"system":"phone","value":"215.024.8343","use":"mobile"},{"system":"email","value":"becky35@gmail.com","use":"work"}],"gender":"female","birthDate":"1997-12-23","address":[{"use":"home","line":["36844 Evans Meadows"],"city":"Aaronhaven","state":"VT","postalCode":"52603"},{"use":"old","line":["804 Johnson Causeway Apt. 600"],"city":"Tylerview","state":"IL","postalCode":"43047"}],"maritalStatus":{"coding":[{"system":"http://terminology.hl7.org/CodeSystem/v3-MaritalStatus","code":"D","display":"Divorced"}]}},"request":{"method":"POST","url":"Patient"}},{"fullUrl":"Observation/573c9f7a-3dd2-4e69-97f1-1fe98c00174d","resource":{"resourceType":"Observation","id":"573c9f7a-3dd2-4e69-97f1-1fe98c00174d","meta":{"profile":["http://hl7.org/fhir/us/core/StructureDefinition/us-core-observation-lab"]},"status":"final","category":[{"coding":[{"system":"http://terminology.hl7.org/CodeSystem/observation-category","code":"laboratory","display":"Laboratory"}]}],"code":{"coding":[{"system":"http://loinc.org","code":"47476-7"}]},"subject":{"reference":"Patient/0a4104d8-e342-460d-bf13-5d6ca24d3fd2"},"effectiveDateTime":"2022-02-22T00:00:00+00:00","valueRatio":{"numerator":{"value":1},"denominator":{"value":64}}},"request":{"method":"POST","url":"Observation"}},{"fullUrl":"Observation/5a778f28-f0b2-43d8-9edf-b2eecb505172","resource":{"resourceType":"Observation","id":"5a778f28-f0b2-43d8-9edf-b2eecb505172","meta":{"profile":["http://hl7.org/fhir/us/core/StructureDefinition/us-core-observation-lab"]},"status":"final","category":[{"coding":[{"system":"http://terminology.hl7.org/CodeSystem/observation-category","code":"laboratory","display":"Laboratory"}]}],"code":{"coding":[{"system":"http://loinc.org","code":"51475-2"}]},"subject":{"reference":"Patient/0a4104d8-e342-460d-bf13-5d6ca24d3fd2"},"effectiveDateTime":"2022-02-24T00:00:00+00:00","valueRatio":{"numerator":{"value":1},"denominator":{"value":4}}},"request":{"method":"POST","url":"Observation"}},{"fullUrl":"Condition/a658313f-e86f-4950-a78a-2896b22cf817","resource":{"resourceType":"Condition","id":"a658313f-e86f-4950-a78a-2896b22cf817","meta":{"profile":["http://hl7.org/fhir/us/core/StructureDefinition/us-core-condition"]},"clinicalStatus":{"coding":[{"system":"http://terminology.hl7.org/CodeSystem/condition-clinical","code":"active","display":"Active"}]},"category":[{"coding":[{"system":"http://terminology.hl7.org/CodeSystem/condition-category","code":"problem-list-item"}]}],"code":{"coding":[{"system":"http://snomed.info/sct","code":"709977002"}]},"subject":{"reference":"Patient/0a4104d8-e342-460d-bf13-5d6ca24d3fd2"},"onsetDateTime":"2022-10-19T00:00:00+00:00"},"request":{"method":"POST","url":"Condition"}},{"fullUrl":"Condition/44460f0c-30a9-44f7-a64e-8aaf5c20221d","resource":{"resourceType":"Condition","id":"44460f0c-30a9-44f7-a64e-8aaf5c20221d","meta":{"profile":["http://hl7.org/fhir/us/core/StructureDefinition/us-core-condition"]},"clinicalStatus":{"coding":[{"system":"http://terminology.hl7.org/CodeSystem/condition-clinical","code":"active","display":"Active"}]},"category":[{"coding":[{"system":"http://terminology.hl7.org/CodeSystem/condition-category","code":"problem-list-item"}]}],"code":{"coding":[{"system":"http://snomed.info/sct","code":"418290006"}]},"subject":{"reference":"Patient/0a4104d8-e342-460d-bf13-5d6ca24d3fd2"},"onsetDateTime":"2022-08-31T00:00:00+00:00"},"request":{"method":"POST","url":"Condition"}},{"fullUrl":"Condition/16b74dd3-eba7-4cef-a857-df183d00fc88","resource":{"resourceType":"Condition","id":"16b74dd3-eba7-4cef-a857-df183d00fc88","meta":{"profile":["http://hl7.org/fhir/us/core/StructureDefinition/us-core-condition"]},"clinicalStatus":{"coding":[{"system":"http://terminology.hl7.org/CodeSystem/condition-clinical","code":"active","display":"Active"}]},"category":[{"coding":[{"system":"http://terminology.hl7.org/CodeSystem/condition-category","code":"problem-list-item"}]}],"code":{"coding":[{"system":"http://snomed.info/sct","code":"709977002"}]},"subject":{"reference":"Patient/0a4104d8-e342-460d-bf13-5d6ca24d3fd2"},"onsetDateTime":"2022-05-18T00:00:00+00:00"},"request":{"method":"POST","url":"Condition"}},{"fullUrl":"Condition/974b8f53-b3ee-4b78-a120-95c241a467f1","resource":{"resourceType":"Condition","id":"974b8f53-b3ee-4b78-a120-95c241a467f1","meta":{"profile":["http://hl7.org/fhir/us/core/StructureDefinition/us-core-condition"]},"clinicalStatus":{"coding":[{"system":"http://terminology.hl7.org/CodeSystem/condition-clinical","code":"active","display":"Active"}]},"category":[{"coding":[{"system":"http://terminology.hl7.org/CodeSystem/condition-category","code":"problem-list-item"}]}],"code":{"coding":[{"system":"http://snomed.info/sct","code":"418290006"}]},"subject":{"reference":"Patient/0a4104d8-e342-460d-bf13-5d6ca24d3fd2"},"onsetDateTime":"2022-03-26T00:00:00+00:00"},"request":{"method":"POST","url":"Condition"}},{"fullUrl":"Condition/1a24db06-bb64-4df8-bf8c-c9f9b2759195","resource":{"resourceType":"Condition","id":"1a24db06-bb64-4df8-bf8c-c9f9b2759195","meta":{"profile":["http://hl7.org/fhir/us/core/StructureDefinition/us-core-condition"]},"clinicalStatus":{"coding":[{"system":"http://terminology.hl7.org/CodeSystem/condition-clinical","code":"active","display":"Active"}]},"category":[{"coding":[{"system":"http://terminology.hl7.org/CodeSystem/condition-category","code":"problem-list-item"}]}],"code":{"coding":[{"system":"http://snomed.info/sct","code":"418290006"}]},"subject":{"reference":"Patient/0a4104d8-e342-460d-bf13-5d6ca24d3fd2"},"onsetDateTime":"2022-03-04T00:00:00+00:00"},"request":{"method":"POST","url":"Condition"}},{"fullUrl":"Observation/9d720567-cfec-478e-9de6-b1ec0fbb40b0","resource":{"resourceType":"Observation","id":"9d720567-cfec-478e-9de6-b1ec0fbb40b0","meta":{"profile":["http://hl7.org/fhir/us/core/StructureDefinition/us-core-observation-lab"]},"status":"final","category":[{"coding":[{"system":"http://terminology.hl7.org/CodeSystem/observation-category","code":"laboratory","display":"Laboratory"}]}],"code":{"coding":[{"system":"http://loinc.org","code":"49498-9"}]},"subject":{"reference":"Patient/0a4104d8-e342-460d-bf13-5d6ca24d3fd2"},"effectiveDateTime":"2022-03-05T00:00:00+00:00","valueQuantity":{"value":4.3}},"request":{"method":"POST","url":"Observation"}},{"fullUrl":"Observation/c67e1567-58e0-4bd3-b6c3-bbfdef28d608","resource":{"resourceType":"Observation","id":"c67e1567-58e0-4bd3-b6c3-bbfdef28d608","meta":{"profile":["http://hl7.org/fhir/us/core/StructureDefinition/us-core-observation-lab"]},"status":"final","category":[{"coding":[{"system":"http://terminology.hl7.org/CodeSystem/observation-category","code":"laboratory","display":"Laboratory"}]}],"code":{"coding":[{"system":"http://loinc.org","code":"6690-2"}]},"subject":{"reference":"Patient/0a4104d8-e342-460d-bf13-5d6ca24d3fd2"},"effectiveDateTime":"2022-07-30T00:00:00+00:00","valueQuantity":{"value":5.8}},"request":{"method":"POST","url":"Observation"}},{"fullUrl":"Observation/efa43196-7aa7-4e4d-ac7a-4d8a23408cb4","resource":{"resourceType":"Observation","id":"efa43196-7aa7-4e4d-ac7a-4d8a23408cb4","meta":{"profile":["http://hl7.org/fhir/us/core/StructureDefinition/us-core-bmi"]},"status":"final","category":[{"coding":[{"system":"http://terminology.hl7.org/CodeSystem/observation-category","code":"vital-signs","display":"Vital Signs"}]}],"code":{"coding":[{"system":"http://loinc.org","code":"39156-5"}]},"subject":{"reference":"Patient/0a4104d8-e342-460d-bf13-5d6ca24d3fd2"},"effectiveDateTime":"2022-02-15T00:00:00+00:00","valueQuantity":{"value":24.62,"unit":"kg/m2","system":"http://unitsofmeasure.org","code":"kg/m2"}},"request":{"method":"POST","url":"Observation"}},{"fullUrl":"Observation/542fc146-17bb-4b16-9901-0d0865e19174","resource":{"resourceType":"Observation","id":"542fc146-17bb-4b16-9901-0d0865e19174","meta":{"profile":["http://hl7.org/fhir/us/core/StructureDefinition/us-core-head-circumference"]},"status":"final","category":[{"coding":[{"system":"http://terminology.hl7.org/CodeSystem/observation-category","code":"vital-signs","display":"Vital Signs"}]}],"code":{"coding":[{"system":"http://loinc.org","code":"9843-4"}]},"subject":{"reference":"Patient/0a4104d8-e342-460d-bf13-5d6ca24d3fd2"},"effectiveDateTime":"2022-10-08T00:00:00+00:00","valueQuantity":{"value":4.2,"unit":"Inch","system":"http://unitsofmeasure.org","code":"[in_i]"}},"request":{"method":"POST","url":"Observation"}},{"fullUrl":"Observation/46b748f5-e63f-4418-87a6-6f720c736303","resource":{"resourceType":"Observation","id":"46b748f5-e63f-4418-87a6-6f720c736303","meta":{"profile":["http://hl7.org/fhir/us/core/StructureDefinition/us-core-body-height"]},"status":"final","category":[{"coding":[{"system":"http://terminology.hl7.org/CodeSystem/observation-category","code":"vital-signs","display":"Vital Signs"}]}],"code":{"coding":[{"system":"http://loinc.org","code":"8302-2"}]},"subject":{"reference":"Patient/0a4104d8-e342-460d-bf13-5d6ca24d3fd2"},"effectiveDateTime":"2022-01-26T00:00:00+00:00","valueQuantity":{"value":73.6,"unit":"Inch","system":"http://unitsofmeasure.org","code":"[in_i]"}},"request":{"method":"POST","url":"Observation"}},{"fullUrl":"Observation/d673f41e-a528-476a-bc08-9af178d58092","resource":{"resourceType":"Observation","id":"d673f41e-a528-476a-bc08-9af178d58092","meta":{"profile":["http://hl7.org/fhir/us/core/StructureDefinition/us-core-body-height"]},"status":"final","category":[{"coding":[{"system":"http://terminology.hl7.org/CodeSystem/observation-category","code":"vital-signs","display":"Vital Signs"}]}],"code":{"coding":[{"system":"http://loinc.org","code":"8302-2"}]},"subject":{"reference":"Patient/0a4104d8-e342-460d-bf13-5d6ca24d3fd2"},"effectiveDateTime":"2022-07-29T00:00:00+00:00","valueQuantity":{"value":73.2,"unit":"Inch","system":"http://unitsofmeasure.org","code":"[in_i]"}},"request":{"method":"POST","url":"Observation"}},{"fullUrl":"Observation/74ac50a5-3184-4227-afac-003a811304ff","resource":{"resourceType":"Observation","id":"74ac50a5-3184-4227-afac-003a811304ff","meta":{"profile":["http://hl7.org/fhir/us/core/StructureDefinition/us-core-body-weight"]},"status":"final","category":[{"coding":[{"system":"http://terminology.hl7.org/CodeSystem/observation-category","code":"vital-signs","display":"Vital Signs"}]}],"code":{"coding":[{"system":"http://loinc.org","code":"29463-7"}]},"subject":{"reference":"Patient/0a4104d8-e342-460d-bf13-5d6ca24d3fd2"},"effectiveDateTime":"2022-11-27T00:00:00+00:00","valueQuantity":{"value":133.43,"unit":"kilogram","system":"http://unitsofmeasure.org","code":"kg"}},"request":{"method":"POST","url":"Observation"}},{"fullUrl":"Observation/a23b7211-879f-4cf8-a569-bf29131ed608","resource":{"resourceType":"Observation","id":"a23b7211-879f-4cf8-a569-bf29131ed608","meta":{"profile":["http://hl7.org/fhir/us/core/StructureDefinition/us-core-body-temperature"]},"status":"final","category":[{"coding":[{"system":"http://terminology.hl7.org/CodeSystem/observation-category","code":"vital-signs","display":"Vital Signs"}]}],"code":{"coding":[{"system":"http://loinc.org","code":"8310-5"}]},"subject":{"reference":"Patient/0a4104d8-e342-460d-bf13-5d6ca24d3fd2"},"effectiveDateTime":"2022-03-07T00:00:00+00:00","valueQuantity":{"value":94.97,"unit":"Degrees Fahrenheit","system":"http://unitsofmeasure.org","code":"[degF]"}},"request":{"method":"POST","url":"Observation"}},{"fullUrl":"Observation/72a51829-a82f-4a82-a384-cca9a618dfe5","resource":{"resourceType":"Observation","id":"72a51829-a82f-4a82-a384-cca9a618dfe5","meta":{"profile":["http://hl7.org/fhir/us/core/StructureDefinition/us-core-heart-rate"]},"status":"final","category":[{"coding":[{"system":"http://terminology.hl7.org/CodeSystem/observation-category","code":"vital-signs","display":"Vital Signs"}]}],"code":{"coding":[{"system":"http://loinc.org","code":"8867-4"}]},"subject":{"reference":"Patient/0a4104d8-e342-460d-bf13-5d6ca24d3fd2"},"effectiveDateTime":"2022-11-27T00:00:00+00:00","valueQuantity":{"value":98.1,"unit":"Per Minute","system":"http://unitsofmeasure.org","code":"/min"}},"request":{"method":"POST","url":"Observation"}},{"fullUrl":"Patient/90c14f82-03c3-4ffd-9336-db125e363bc4","resource":{"resourceType":"Patient","id":"90c14f82-03c3-4ffd-9336-db125e363bc4","meta":{"profile":["http://hl7.org/fhir/us/core/StructureDefinition/us-core-patient"]},"extension":[{"extension":[{"url":"ombCategory","valueCoding":{"system":"http://terminology.hl7.org/CodeSystem/v3-NullFlavor","code":"ASKU","display":"asked but unknown"}},{"url":"text","valueString":"asked but unknown"}],"url":"http://hl7.org/fhir/us/core/StructureDefinition/us-core-race"},{"extension":[{"url":"ombCategory","valueCoding":{"system":"urn:oid:2.16.840.1.113883.6.238","code":"2135-2","display":"Hispanic or Latino"}},{"url":"text","valueString":"Hispanic or Latino"}],"url":"http://hl7.org/fhir/us/core/StructureDefinition/us-core-ethnicity"}],"identifier":[{"type":{"coding":[{"system":"http://terminology.hl7.org/CodeSystem/v2-0203","code":"MR"}]},"system":"urn:fhirgen:mrn","value":"745-02-0350"},{"type":{"coding":[{"system":"http://terminology.hl7.org/CodeSystem/v2-0203","code":"SS"}]},"system":"http://hl7.org/fhir/sid/us-ssn","value":"632-56-0756"}],"name":[{"use":"official","family":"Thompson","given":["Rebecca"]},{"use":"maiden","family":"Weaver"}],"telecom":[{"system":"phone","value":"362-241-5726x875","use":"mobile"},{"system":"email","value":"johnwatts@hotmail.com","use":"work"}],"gender":"female","birthDate":"1985-09-09","address":[{"use":"home","line":["5644 Guzman Ridge"],"city":"South Brandon","state":"KS","postalCode":"71253"},{"use":"old","line":["34694 Perez Prairie Suite 703"],"city":"East Angela","state":"WI","postalCode":"10037"}],"maritalStatus":{"coding":[{"system":"http://terminology.hl7.org/CodeSystem/v3-MaritalStatus","code":"T","display":"Domestic partner"}]}},"request":{"method":"POST","url":"Patient"}},{"fullUrl":"Observation/b1e41adf-5823-48cd-88d3-6778bdfb3f09","resource":{"resourceType":"Observation","id":"b1e41adf-5823-48cd-88d3-6778bdfb3f09","meta":{"profile":["http://hl7.org/fhir/us/core/StructureDefinition/us-core-observation-lab"]},"status":"final","category":[{"coding":[{"system":"http://terminology.hl7.org/CodeSystem/observation-category","code":"laboratory","display":"Laboratory"}]}],"code":{"coding":[{"system":"http://loinc.org","code":"87925-4"}]},"subject":{"reference":"Patient/90c14f82-03c3-4ffd-9336-db125e363bc4"},"effectiveDateTime":"2022-01-03T00:00:00+00:00","valueRatio":{"numerator":{"value":1},"denominator":{"value":32}}},"request":{"method":"POST","url":"Observation"}},{"fullUrl":"Observation/a6fcfce2-ca39-4823-b88a-bab168feba11","resource":{"resourceType":"Observation","id":"a6fcfce2-ca39-4823-b88a-bab168feba11","meta":{"profile":["http://hl7.org/fhir/us/core/StructureDefinition/us-core-observation-lab"]},"status":"final","category":[{"coding":[{"system":"http://terminology.hl7.org/CodeSystem/observation-category","code":"laboratory","display":"Laboratory"}]}],"code":{"coding":[{"system":"http://loinc.org","code":"34382-2"}]},"subject":{"reference":"Patient/90c14f82-03c3-4ffd-9336-db125e363bc4"},"effectiveDateTime":"2022-01-27T00:00:00+00:00","valueRatio":{"numerator":{"value":1},"denominator":{"value":4}}},"request":{"method":"POST","url":"Observation"}},{"fullUrl":"Condition/db6dffa1-1f98-4ccb-b1fa-c00742e76526","resource":{"resourceType":"Condition","id":"db6dffa1-1f98-4ccb-b1fa-c00742e76526","meta":{"profile":["http://hl7.org/fhir/us/core/StructureDefinition/us-core-condition"]},"clinicalStatus":{"coding":[{"system":"http://terminology.hl7.org/CodeSystem/condition-clinical","code":"active","display":"Active"}]},"category":[{"coding":[{"system":"http://terminology.hl7.org/CodeSystem/condition-category","code":"problem-list-item"}]}],"code":{"coding":[{"system":"http://snomed.info/sct","code":"418290006"}]},"subject":{"reference":"Patient/90c14f82-03c3-4ffd-9336-db125e363bc4"},"onsetDateTime":"2022-09-13T00:00:00+00:00"},"request":{"method":"POST","url":"Condition"}},{"fullUrl":"Condition/ba5e9015-b3e2-4025-bdfb-0564ac19d4e8","resource":{"resourceType":"Condition","id":"ba5e9015-b3e2-4025-bdfb-0564ac19d4e8","meta":{"profile":["http://hl7.org/fhir/us/core/StructureDefinition/us-core-condition"]},"clinicalStatus":{"coding":[{"system":"http://terminology.hl7.org/CodeSystem/condition-clinical","code":"active","display":"Active"}]},"category":[{"coding":[{"system":"http://terminology.hl7.org/CodeSystem/condition-category","code":"problem-list-item"}]}],"code":{"coding":[{"system":"http://snomed.info/sct","code":"418290006"}]},"subject":{"reference":"Patient/90c14f82-03c3-4ffd-9336-db125e363bc4"},"onsetDateTime":"2022-05-22T00:00:00+00:00"},"request":{"method":"POST","url":"Condition"}},{"fullUrl":"Condition/3c14b63f-d6d6-4b74-9056-497821163770","resource":{"resourceType":"Condition","id":"3c14b63f-d6d6-4b74-9056-497821163770","meta":{"profile":["http://hl7.org/fhir/us/core/StructureDefinition/us-core-condition"]},"clinicalStatus":{"coding":[{"system":"http://terminology.hl7.org/CodeSystem/condition-clinical","code":"active","display":"Active"}]},"category":[{"coding":[{"system":"http://terminology.hl7.org/CodeSystem/condition-category","code":"problem-list-item"}]}],"code":{"coding":[{"system":"http://snomed.info/sct","code":"418290006"}]},"subject":{"reference":"Patient/90c14f82-03c3-4ffd-9336-db125e363bc4"},"onsetDateTime":"2022-04-14T00:00:00+00:00"},"request":{"method":"POST","url":"Condition"}},{"fullUrl":"Condition/55f1c33d-ec55-4a75-b861-94e444318970","resource":{"resourceType":"Condition","id":"55f1c33d-ec55-4a75-b861-94e444318970","meta":{"profile":["http://hl7.org/fhir/us/core/StructureDefinition/us-core-condition"]},"clinicalStatus":{"coding":[{"system":"http://terminology.hl7.org/CodeSystem/condition-clinical","code":"active","display":"Active"}]},"category":[{"coding":[{"system":"http://terminology.hl7.org/CodeSystem/condition-category","code":"problem-list-item"}]}],"code":{"coding":[{"system":"http://snomed.info/sct","code":"709977002"}]},"subject":{"reference":"Patient/90c14f82-03c3-4ffd-9336-db125e363bc4"},"onsetDateTime":"2022-07-04T00:00:00+00:00"},"request":{"method":"POST","url":"Condition"}},{"fullUrl":"Condition/8e6c1a7e-cabf-4d79-b1df-be51d0f9b366","resource":{"resourceType":"Condition","id":"8e6c1a7e-cabf-4d79-b1df-be51d0f9b366","meta":{"profile":["http://hl7.org/fhir/us/core/StructureDefinition/us-core-condition"]},"clinicalStatus":{"coding":[{"system":"http://terminology.hl7.org/CodeSystem/condition-clinical","code":"active","display":"Active"}]},"category":[{"coding":[{"system":"http://terminology.hl7.org/CodeSystem/condition-category","code":"problem-list-item"}]}],"code":{"coding":[{"system":"http://snomed.info/sct","code":"91554004"}]},"subject":{"reference":"Patient/90c14f82-03c3-4ffd-9336-db125e363bc4"},"onsetDateTime":"2022-12-12T00:00:00+00:00"},"request":{"method":"POST","url":"Condition"}},{"fullUrl":"Condition/e1fc5ba7-35ba-4552-a1da-e4f186ce755e","resource":{"resourceType":"Condition","id":"e1fc5ba7-35ba-4552-a1da-e4f186ce755e","meta":{"profile":["http://hl7.org/fhir/us/core/StructureDefinition/us-core-condition"]},"clinicalStatus":{"coding":[{"system":"http://terminology.hl7.org/CodeSystem/condition-clinical","code":"active","display":"Active"}]},"category":[{"coding":[{"system":"http://terminology.hl7.org/CodeSystem/condition-category","code":"problem-list-item"}]}],"code":{"coding":[{"system":"http://snomed.info/sct","code":"709977002"}]},"subject":{"reference":"Patient/90c14f82-03c3-4ffd-9336-db125e363bc4"},"onsetDateTime":"2022-09-12T00:00:00+00:00"},"request":{"method":"POST","url":"Condition"}},{"fullUrl":"Observation/0312a557-b898-4d5f-aa67-05085c3c9dbe","resource":{"resourceType":"Observation","id":"0312a557-b898-4d5f-aa67-05085c3c9dbe","meta":{"profile":["http://hl7.org/fhir/us/core/StructureDefinition/us-core-observation-lab"]},"status":"final","category":[{"coding":[{"system":"http://terminology.hl7.org/CodeSystem/observation-category","code":"laboratory","display":"Laboratory"}]}],"code":{"coding":[{"system":"http://loinc.org","code":"6690-2"}]},"subject":{"reference":"Patient/90c14f82-03c3-4ffd-9336-db125e363bc4"},"effectiveDateTime":"2022-09-21T00:00:00+00:00","valueQuantity":{"value":5.7}},"request":{"method":"POST","url":"Observation"}},{"fullUrl":"Observation/dffd4bbd-c238-42be-acc4-9b56cc01e08b","resource":{"resourceType":"Observation","id":"dffd4bbd-c238-42be-acc4-9b56cc01e08b","meta":{"profile":["http://hl7.org/fhir/us/core/StructureDefinition/us-core-observation-lab"]},"status":"final","category":[{"coding":[{"system":"http://terminology.hl7.org/CodeSystem/observation-category","code":"laboratory","display":"Laboratory"}]}],"code":{"coding":[{"system":"http://loinc.org","code":"804-5"}]},"subject":{"reference":"Patient/90c14f82-03c3-4ffd-9336-db125e363bc4"},"effectiveDateTime":"2022-12-09T00:00:00+00:00","valueQuantity":{"value":9.3}},"request":{"method":"POST","url":"Observation"}},{"fullUrl":"Observation/1a521872-042b-48a1-930a-75ee50d209a8","resource":{"resourceType":"Observation","id":"1a521872-042b-48a1-930a-75ee50d209a8","meta":{"profile":["http://hl7.org/fhir/us/core/StructureDefinition/us-core-bmi"]},"status":"final","category":[{"coding":[{"system":"http://terminology.hl7.org/CodeSystem/observation-category","code":"vital-signs","display":"Vital Signs"}]}],"code":{"coding":[{"system":"http://loinc.org","code":"39156-5"}]},"subject":{"reference":"Patient/90c14f82-03c3-4ffd-9336-db125e363bc4"},"effectiveDateTime":"2022-12-12T00:00:00+00:00","valueQuantity":{"value":13.2,"unit":"kg/m2","system":"http://unitsofmeasure.org","code":"kg/m2"}},"request":{"method":"POST","url":"Observation"}},{"fullUrl":"Observation/827301c0-8883-4708-a01d-32185f2001c1","resource":{"resourceType":"Observation","id":"827301c0-8883-4708-a01d-32185f2001c1","meta":{"profile":["http://hl7.org/fhir/us/core/StructureDefinition/us-core-head-circumference"]},"status":"final","category":[{"coding":[{"system":"http://terminology.hl7.org/CodeSystem/observation-category","code":"vital-signs","display":"Vital Signs"}]}],"code":{"coding":[{"system":"http://loinc.org","code":"9843-4"}]},"subject":{"reference":"Patient/90c14f82-03c3-4ffd-9336-db125e363bc4"},"effectiveDateTime":"2022-12-24T00:00:00+00:00","valueQuantity":{"value":8.6,"unit":"Inch","system":"http://unitsofmeasure.org","code":"[in_i]"}},"request":{"method":"POST","url":"Observation"}},{"fullUrl":"Observation/f67d58f9-dc0d-4869-9789-ff9afbf9521a","resource":{"resourceType":"Observation","id":"f67d58f9-dc0d-4869-9789-ff9afbf9521a","meta":{"profile":["http://hl7.org/fhir/us/core/StructureDefinition/us-core-body-height"]},"status":"final","category":[{"coding":[{"system":"http://terminology.hl7.org/CodeSystem/observation-category","code":"vital-signs","display":"Vital Signs"}]}],"code":{"coding":[{"system":"http://loinc.org","code":"8302-2"}]},"subject":{"reference":"Patient/90c14f82-03c3-4ffd-9336-db125e363bc4"},"effectiveDateTime":"2022-07-14T00:00:00+00:00","valueQuantity":{"value":66.5,"unit":"Inch","system":"http://unitsofmeasure.org","code":"[in_i]"}},"request":{"method":"POST","url":"Observation"}},{"fullUrl":"Observation/5c9579a9-942d-481d-94c3-29458d89c1af","resource":{"resourceType":"Observation","id":"5c9579a9-942d-481d-94c3-29458d89c1af","meta":{"profile":["http://hl7.org/fhir/us/core/StructureDefinition/us-core-body-height"]},"status":"final","category":[{"coding":[{"system":"http://terminology.hl7.org/CodeSystem/observation-category","code":"vital-signs","display":"Vital Signs"}]}],"code":{"coding":[{"system":"http://loinc.org","code":"8302-2"}]},"subject":{"reference":"Patient/90c14f82-03c3-4ffd-9336-db125e363bc4"},"effectiveDateTime":"2022-06-06T00:00:00+00:00","valueQuantity":{"value":80.8,"unit":"Inch","system":"http://unitsofmeasure.org","code":"[in_i]"}},"request":{"method":"POST","url":"Observation"}},{"fullUrl":"Observation/b3f237b6-a898-4a62-a2fd-048b9fcd03c1","resource":{"resourceType":"Observation","id":"b3f237b6-a898-4a62-a2fd-048b9fcd03c1","meta":{"profile":["http://hl7.org/fhir/us/core/StructureDefinition/us-core-body-weight"]},"status":"final","category":[{"coding":[{"system":"http://terminology.hl7.org/CodeSystem/observation-category","code":"vital-signs","display":"Vital Signs"}]}],"code":{"coding":[{"system":"http://loinc.org","code":"29463-7"}]},"subject":{"reference":"Patient/90c14f82-03c3-4ffd-9336-db125e363bc4"},"effectiveDateTime":"2022-04-26T00:00:00+00:00","valueQuantity":{"value":70.84,"unit":"kilogram","system":"http://unitsofmeasure.org","code":"kg"}},"request":{"method":"POST","url":"Observation"}},{"fullUrl":"Observation/9d73e60e-897c-4132-8f13-d37a90757f80","resource":{"resourceType":"Observation","id":"9d73e60e-897c-4132-8f13-d37a90757f80","meta":{"profile":["http://hl7.org/fhir/us/core/StructureDefinition/us-core-body-temperature"]},"status":"final","category":[{"coding":[{"system":"http://terminology.hl7.org/CodeSystem/observation-category","code":"vital-signs","display":"Vital Signs"}]}],"code":{"coding":[{"system":"http://loinc.org","code":"8310-5"}]},"subject":{"reference":"Patient/90c14f82-03c3-4ffd-9336-db125e363bc4"},"effectiveDateTime":"2022-07-02T00:00:00+00:00","valueQuantity":{"value":86.83,"unit":"Degrees Fahrenheit","system":"http://unitsofmeasure.org","code":"[degF]"}},"request":{"method":"POST","url":"Observation"}},{"fullUrl":"Observation/772b9ea3-39f7-4e4a-8af8-794181016463","resource":{"resourceType":"Observation","id":"772b9ea3-39f7-4e4a-8af8-794181016463","meta":{"profile":["http://hl7.org/fhir/us/core/StructureDefinition/us-core-body-temperature"]},"status":"final","category":[{"coding":[{"system":"http://terminology.hl7.org/CodeSystem/observation-category","code":"vital-signs","display":"Vital Signs"}]}],"code":{"coding":[{"system":"http://loinc.org","code":"8310-5"}]},"subject":{"reference":"Patient/90c14f82-03c3-4ffd-9336-db125e363bc4"},"effectiveDateTime":"2022-02-01T00:00:00+00:00","valueQuantity":{"value":32.28,"unit":"Degrees Fahrenheit","system":"http://unitsofmeasure.org","code":"[degF]"}},"request":{"method":"POST","url":"Observation"}},{"fullUrl":"Observation/51b304dc-b409-4f7d-8328-713766b388ef","resource":{"resourceType":"Observation","id":"51b304dc-b409-4f7d-8328-713766b388ef","meta":{"profile":["http://hl7.org/fhir/us/core/StructureDefinition/us-core-heart-rate"]},"status":"final","category":[{"coding":[{"system":"http://terminology.hl7.org/CodeSystem/observation-category","code":"vital-signs","display":"Vital Signs"}]}],"code":{"coding":[{"system":"http://loinc.org","code":"8867-4"}]},"subject":{"reference":"Patient/90c14f82-03c3-4ffd-9336-db125e363bc4"},"effectiveDateTime":"2022-07-02T00:00:00+00:00","valueQuantity":{"value":97.8,"unit":"Per Minute","system":"http://unitsofmeasure.org","code":"/min"}},"request":{"method":"POST","url":"Observation"}},{"fullUrl":"Observation/a1da32b5-d93c-4f9c-9e71-cbe85d5a83ba","resource":{"resourceType":"Observation","id":"a1da32b5-d93c-4f9c-9e71-cbe85d5a83ba","meta":{"profile":["http://hl7.org/fhir/us/core/StructureDefinition/us-core-heart-rate"]},"status":"final","category":[{"coding":[{"system":"http://terminology.hl7.org/CodeSystem/observation-category","code":"vital-signs","display":"Vital Signs"}]}],"code":{"coding":[{"system":"http://loinc.org","code":"8867-4"}]},"subject":{"reference":"Patient/90c14f82-03c3-4ffd-9336-db125e363bc4"},"effectiveDateTime":"2022-03-22T00:00:00+00:00","valueQuantity":{"value":97.8,"unit":"Per Minute","system":"http://unitsofmeasure.org","code":"/min"}},"request":{"method":"POST","url":"Observation"}},{"fullUrl":"Patient/f062eaf0-6ce4-4e5c-adcf-3c2be0e8abe9","resource":{"resourceType":"Patient","id":"f062eaf0-6ce4-4e5c-adcf-3c2be0e8abe9","meta":{"profile":["http://hl7.org/fhir/us/core/StructureDefinition/us-core-patient"]},"extension":[{"extension":[{"url":"ombCategory","valueCoding":{"system":"urn:oid:2.16.840.1.113883.6.238","code":"2028-9","display":"Asian"}},{"url":"text","valueString":"Asian"}],"url":"http://hl7.org/fhir/us/core/StructureDefinition/us-core-race"},{"extension":[{"url":"ombCategory","valueCoding":{"system":"urn:oid:2.16.840.1.113883.6.238","code":"2135-2","display":"Hispanic or Latino"}},{"url":"text","valueString":"Hispanic or Latino"}],"url":"http://hl7.org/fhir/us/core/StructureDefinition/us-core-ethnicity"}],"identifier":[{"type":{"coding":[{"system":"http://terminology.hl7.org/CodeSystem/v2-0203","code":"MR"}]},"system":"urn:fhirgen:mrn","value":"024-43-7771"},{"type":{"coding":[{"system":"http://terminology.hl7.org/CodeSystem/v2-0203","code":"SS"}]},"system":"http://hl7.org/fhir/sid/us-ssn","value":"423-38-4797"}],"name":[{"use":"official","family":"White","given":["Linda"]},{"use":"maiden","family":"Donovan"}],"telecom":[{"system":"phone","value":"+1-910-980-4918x43814","use":"home"},{"system":"email","value":"floresdiane@hotmail.com","use":"work"}],"gender":"other","birthDate":"1950-02-24","address":[{"use":"home","line":["90183 Rodriguez Throughway"],"city":"Josephview","state":"OK","postalCode":"27111"},{"use":"old","line":["4213 Jonathan Spurs"],"city":"North Michael","state":"MI","postalCode":"69273"}],"maritalStatus":{"coding":[{"system":"http://terminology.hl7.org/CodeSystem/v3-MaritalStatus","code":"T","display":"Domestic partner"}]}},"request":{"method":"POST","url":"Patient"}},{"fullUrl":"Observation/9c4581cb-913f-490f-8e1d-082fa403120a","resource":{"resourceType":"Observation","id":"9c4581cb-913f-490f-8e1d-082fa403120a","meta":{"profile":["http://hl7.org/fhir/us/core/StructureDefinition/us-core-observation-lab"]},"status":"final","category":[{"coding":[{"system":"http://terminology.hl7.org/CodeSystem/observation-category","code":"laboratory","display":"Laboratory"}]}],"code":{"coding":[{"system":"http://loinc.org","code":"87925-4"}]},"subject":{"reference":"Patient/f062eaf0-6ce4-4e5c-adcf-3c2be0e8abe9"},"effectiveDateTime":"2022-02-23T00:00:00+00:00","valueRatio":{"numerator":{"value":1},"denominator":{"value":64}}},"request":{"method":"POST","url":"Observation"}},{"fullUrl":"Observation/963b3a83-efb5-49a8-8d9e-53093c16b2bb","resource":{"resourceType":"Observation","id":"963b3a83-efb5-49a8-8d9e-53093c16b2bb","meta":{"profile":["http://hl7.org/fhir/us/core/StructureDefinition/us-core-observation-lab"]},"status":"final","category":[{"coding":[{"system":"http://terminology.hl7.org/CodeSystem/observation-category","code":"laboratory","display":"Laboratory"}]}],"code":{"coding":[{"system":"http://loinc.org","code":"34382-2"}]},"subject":{"reference":"Patient/f062eaf0-6ce4-4e5c-adcf-3c2be0e8abe9"},"effectiveDateTime":"2022-09-03T00:00:00+00:00","valueRatio":{"numerator":{"value":1},"denominator":{"value":32}}},"request":{"method":"POST","url":"Observation"}},{"fullUrl":"Observation/4708c7ca-d0cb-40c6-918d-5c66df63fe79","resource":{"resourceType":"Observation","id":"4708c7ca-d0cb-40c6-918d-5c66df63fe79","meta":{"profile":["http://hl7.org/fhir/us/core/StructureDefinition/us-core-observation-lab"]},"status":"final","category":[{"coding":[{"system":"http://terminology.hl7.org/CodeSystem/observation-category","code":"laboratory","display":"Laboratory"}]}],"code":{"coding":[{"system":"http://loinc.org","code":"47235-7"}]},"subject":{"reference":"Patient/f062eaf0-6ce4-4e5c-adcf-3c2be0e8abe9"},"effectiveDateTime":"2022-12-12T00:00:00+00:00","valueRatio":{"numerator":{"value":1},"denominator":{"value":32}}},"request":{"method":"POST","url":"Observation"}},{"fullUrl":"Condition/f839aade-3d96-41df-b7f4-7dd32fad9058","resource":{"resourceType":"Condition","id":"f839aade-3d96-41df-b7f4-7dd32fad9058","meta":{"profile":["http://hl7.org/fhir/us/core/StructureDefinition/us-core-condition"]},"clinicalStatus":{"coding":[{"system":"http://terminology.hl7.org/CodeSystem/condition-clinical","code":"active","display":"Active"}]},"category":[{"coding":[{"system":"http://terminology.hl7.org/CodeSystem/condition-category","code":"problem-list-item"}]}],"code":{"coding":[{"system":"http://snomed.info/sct","code":"44882003"}]},"subject":{"reference":"Patient/f062eaf0-6ce4-4e5c-adcf-3c2be0e8abe9"},"onsetDateTime":"2022-08-17T00:00:00+00:00"},"request":{"method":"POST","url":"Condition"}},{"fullUrl":"Condition/fb523deb-32bf-4495-8396-e7591d723012","resource":{"resourceType":"Condition","id":"fb523deb-32bf-4495-8396-e7591d723012","meta":{"profile":["http://hl7.org/fhir/us/core/StructureDefinition/us-core-condition"]},"clinicalStatus":{"coding":[{"system":"http://terminology.hl7.org/CodeSystem/condition-clinical","code":"active","display":"Active"}]},"category":[{"coding":[{"system":"http://terminology.hl7.org/CodeSystem/condition-category","code":"problem-list-item"}]}],"code":{"coding":[{"system":"http://snomed.info/sct","code":"418290006"}]},"subject":{"reference":"Patient/f062eaf0-6ce4-4e5c-adcf-3c2be0e8abe9"},"onsetDateTime":"2022-02-14T00:00:00+00:00"},"request":{"method":"POST","url":"Condition"}},{"fullUrl":"Condition/c5fddbe4-d592-48f8-892a-f8e2246cfa70","resource":{"resourceType":"Condition","id":"c5fddbe4-d592-48f8-892a-f8e2246cfa70","meta":{"profile":["http://hl7.org/fhir/us/core/StructureDefinition/us-core-condition"]},"clinicalStatus":{"coding":[{"system":"http://terminology.hl7.org/CodeSystem/condition-clinical","code":"active","display":"Active"}]},"category":[{"coding":[{"system":"http://terminology.hl7.org/CodeSystem/condition-category","code":"problem-list-item"}]}],"code":{"coding":[{"system":"http://snomed.info/sct","code":"709977002"}]},"subject":{"reference":"Patient/f062eaf0-6ce4-4e5c-adcf-3c2be0e8abe9"},"onsetDateTime":"2022-04-08T00:00:00+00:00"},"request":{"method":"POST","url":"Condition"}},{"fullUrl":"Condition/3ecd440d-c895-4e74-9e48-90c0249ab932","resource":{"resourceType":"Condition","id":"3ecd440d-c895-4e74-9e48-90c0249ab932","meta":{"profile":["http://hl7.org/fhir/us/core/StructureDefinition/us-core-condition"]},"clinicalStatus":{"coding":[{"system":"http://terminology.hl7.org/CodeSystem/condition-clinical","code":"active","display":"Active"}]},"category":[{"coding":[{"system":"http://terminology.hl7.org/CodeSystem/condition-category","code":"problem-list-item"}]}],"code":{"coding":[{"system":"http://snomed.info/sct","code":"418290006"}]},"subject":{"reference":"Patient/f062eaf0-6ce4-4e5c-adcf-3c2be0e8abe9"},"onsetDateTime":"2022-02-07T00:00:00+00:00"},"request":{"method":"POST","url":"Condition"}},{"fullUrl":"Condition/598dd86d-afe7-4a28-a6d8-da689bdb27d4","resource":{"resourceType":"Condition","id":"598dd86d-afe7-4a28-a6d8-da689bdb27d4","meta":{"profile":["http://hl7.org/fhir/us/core/StructureDefinition/us-core-condition"]},"clinicalStatus":{"coding":[{"system":"http://terminology.hl7.org/CodeSystem/condition-clinical","code":"active","display":"Active"}]},"category":[{"coding":[{"system":"http://terminology.hl7.org/CodeSystem/condition-category","code":"problem-list-item"}]}],"code":{"coding":[{"system":"http://snomed.info/sct","code":"44882003"}]},"subject":{"reference":"Patient/f062eaf0-6ce4-4e5c-adcf-3c2be0e8abe9"},"onsetDateTime":"2022-08-16T00:00:00+00:00"},"request":{"method":"POST","url":"Condition"}},{"fullUrl":"Condition/5b184898-9fad-462a-b24f-3e0e2e8c4396","resource":{"resourceType":"Condition","id":"5b184898-9fad-462a-b24f-3e0e2e8c4396","meta":{"profile":["http://hl7.org/fhir/us/core/StructureDefinition/us-core-condition"]},"clinicalStatus":{"coding":[{"system":"http://terminology.hl7.org/CodeSystem/condition-clinical","code":"active","display":"Active"}]},"category":[{"coding":[{"system":"http://terminology.hl7.org/CodeSystem/condition-category","code":"problem-list-item"}]}],"code":{"coding":[{"system":"http://snomed.info/sct","code":"91554004"}]},"subject":{"reference":"Patient/f062eaf0-6ce4-4e5c-adcf-3c2be0e8abe9"},"onsetDateTime":"2022-04-26T00:00:00+00:00"},"request":{"method":"POST","url":"Condition"}},{"fullUrl":"Condition/608f88fd-a352-478b-b59f-a18d4a08352c","resource":{"resourceType":"Condition","id":"608f88fd-a352-478b-b59f-a18d4a08352c","meta":{"profile":["http://hl7.org/fhir/us/core/StructureDefinition/us-core-condition"]},"clinicalStatus":{"coding":[{"system":"http://terminology.hl7.org/CodeSystem/condition-clinical","code":"active","display":"Active"}]},"category":[{"coding":[{"system":"http://terminology.hl7.org/CodeSystem/condition-category","code":"problem-list-item"}]}],"code":{"coding":[{"system":"http://snomed.info/sct","code":"418290006"}]},"subject":{"reference":"Patient/f062eaf0-6ce4-4e5c-adcf-3c2be0e8abe9"},"onsetDateTime":"2022-10-06T00:00:00+00:00"},"request":{"method":"POST","url":"Condition"}},{"fullUrl":"Observation/142a91f9-dcfa-45ab-b1b5-06365e413920","resource":{"resourceType":"Observation","id":"142a91f9-dcfa-45ab-b1b5-06365e413920","meta":{"profile":["http://hl7.org/fhir/us/core/StructureDefinition/us-core-observation-lab"]},"status":"final","category":[{"coding":[{"system":"http://terminology.hl7.org/CodeSystem/observation-category","code":"laboratory","display":"Laboratory"}]}],"code":{"coding":[{"system":"http://loinc.org","code":"26464-8"}]},"subject":{"reference":"Patient/f062eaf0-6ce4-4e5c-adcf-3c2be0e8abe9"},"effectiveDateTime":"2022-09-03T00:00:00+00:00","valueQuantity":{"value":5.7}},"request":{"method":"POST","url":"Observation"}},{"fullUrl":"Observation/9c362f66-f89f-42a0-877e-c341379f6506","resource":{"resourceType":"Observation","id":"9c362f66-f89f-42a0-877e-c341379f6506","meta":{"profile":["http://hl7.org/fhir/us/core/StructureDefinition/us-core-observation-lab"]},"status":"final","category":[{"coding":[{"system":"http://terminology.hl7.org/CodeSystem/observation-category","code":"laboratory","display":"Laboratory"}]}],"code":{"coding":[{"system":"http://loinc.org","code":"49498-9"}]},"subject":{"reference":"Patient/f062eaf0-6ce4-4e5c-adcf-3c2be0e8abe9"},"effectiveDateTime":"2022-07-24T00:00:00+00:00","valueQuantity":{"value":9.5}},"request":{"method":"POST","url":"Observation"}},{"fullUrl":"Observation/040de11f-15da-44d7-a0fb-196ebccb47f5","resource":{"resourceType":"Observation","id":"040de11f-15da-44d7-a0fb-196ebccb47f5","meta":{"profile":["http://hl7.org/fhir/us/core/StructureDefinition/us-core-bmi"]},"status":"final","category":[{"coding":[{"system":"http://terminology.hl7.org/CodeSystem/observation-category","code":"vital-signs","display":"Vital Signs"}]}],"code":{"coding":[{"system":"http://loinc.org","code":"39156-5"}]},"subject":{"reference":"Patient/f062eaf0-6ce4-4e5c-adcf-3c2be0e8abe9"},"effectiveDateTime":"2022-09-08T00:00:00+00:00","valueQuantity":{"value":18.29,"unit":"kg/m2","system":"http://unitsofmeasure.org","code":"kg/m2"}},"request":{"method":"POST","url":"Observation"}},{"fullUrl":"Observation/6147d405-7f36-447d-aa2c-485e59453989","resource":{"resourceType":"Observation","id":"6147d405-7f36-447d-aa2c-485e59453989","meta":{"profile":["http://hl7.org/fhir/us/core/StructureDefinition/us-core-head-circumference"]},"status":"final","category":[{"coding":[{"system":"http://terminology.hl7.org/CodeSystem/observation-category","code":"vital-signs","display":"Vital Signs"}]}],"code":{"coding":[{"system":"http://loinc.org","code":"9843-4"}]},"subject":{"reference":"Patient/f062eaf0-6ce4-4e5c-adcf-3c2be0e8abe9"},"effectiveDateTime":"2022-01-19T00:00:00+00:00","valueQuantity":{"value":5.4,"unit":"Inch","system":"http://unitsofmeasure.org","code":"[in_i]"}},"request":{"method":"POST","url":"Observation"}},{"fullUrl":"Observation/e275580a-f240-4749-8a3a-91a294202db6","resource":{"resourceType":"Observation","id":"e275580a-f240-4749-8a3a-91a294202db6","meta":{"profile":["http://hl7.org/fhir/us/core/StructureDefinition/us-core-body-height"]},"status":"final","category":[{"coding":[{"system":"http://terminology.hl7.org/CodeSystem/observation-category","code":"vital-signs","display":"Vital Signs"}]}],"code":{"coding":[{"system":"http://loinc.org","code":"8302-2"}]},"subject":{"reference":"Patient/f062eaf0-6ce4-4e5c-adcf-3c2be0e8abe9"},"effectiveDateTime":"2022-06-29T00:00:00+00:00","valueQuantity":{"value":65.3,"unit":"Inch","system":"http://unitsofmeasure.org","code":"[in_i]"}},"request":{"method":"POST","url":"Observation"}},{"fullUrl":"Observation/03089080-42fe-499d-aca6-934523e873de","resource":{"resourceType":"Observation","id":"03089080-42fe-499d-aca6-934523e873de","meta":{"profile":["http://hl7.org/fhir/us/core/StructureDefinition/us-core-body-height"]},"status":"final","category":[{"coding":[{"system":"http://terminology.hl7.org/CodeSystem/observation-category","code":"vital-signs","display":"Vital Signs"}]}],"code":{"coding":[{"system":"http://loinc.org","code":"8302-2"}]},"subject":{"reference":"Patient/f062eaf0-6ce4-4e5c-adcf-3c2be0e8abe9"},"effectiveDateTime":"2022-01-17T00:00:00+00:00","valueQuantity":{"value":82.4,"unit":"Inch","system":"http://unitsofmeasure.org","code":"[in_i]"}},"request":{"method":"POST","url":"Observation"}},{"fullUrl":"Observation/d233d24c-d3e5-4707-8054-00bdb69c4be4","resource":{"resourceType":"Observation","id":"d233d24c-d3e5-4707-8054-00bdb69c4be4","meta":{"profile":["http://hl7.org/fhir/us/core/StructureDefinition/us-core-body-weight"]},"status":"final","category":[{"coding":[{"system":"http://terminology.hl7.org/CodeSystem/observation-category","code":"vital-signs","display":"Vital Signs"}]}],"code":{"coding":[{"system":"http://loinc.org","code":"29463-7"}]},"subject":{"reference":"Patient/f062eaf0-6ce4-4e5c-adcf-3c2be0e8abe9"},"effectiveDateTime":"2022-09-02T00:00:00+00:00","valueQuantity":{"value":86.16,"unit":"kilogram","system":"http://unitsofmeasure.org","code":"kg"}},"request":{"method":"POST","url":"Observation"}},{"fullUrl":"Observation/0d66b2c5-9c7c-4977-9b83-ed9f1c8d33b2","resource":{"resourceType":"Observation","id":"0d66b2c5-9c7c-4977-9b83-ed9f1c8d33b2","meta":{"profile":["http://hl7.org/fhir/us/core/StructureDefinition/us-core-body-weight"]},"status":"final","category":[{"coding":[{"system":"http://terminology.hl7.org/CodeSystem/observation-category","code":"vital-signs","display":"Vital Signs"}]}],"code":{"coding":[{"system":"http://loinc.org","code":"29463-7"}]},"subject":{"reference":"Patient/f062eaf0-6ce4-4e5c-adcf-3c2be0e8abe9"},"effectiveDateTime":"2022-02-08T00:00:00+00:00","valueQuantity":{"value":51.75,"unit":"kilogram","system":"http://unitsofmeasure.org","code":"kg"}},"request":{"method":"POST","url":"Observation"}},{"fullUrl":"Observation/c008304d-9c2f-4715-8475-1669f5d35309","resource":{"resourceType":"Observation","id":"c008304d-9c2f-4715-8475-1669f5d35309","meta":{"profile":["http://hl7.org/fhir/us/core/StructureDefinition/us-core-body-temperature"]},"status":"final","category":[{"coding":[{"system":"http://terminology.hl7.org/CodeSystem/observation-category","code":"vital-signs","display":"Vital Signs"}]}],"code":{"coding":[{"system":"http://loinc.org","code":"8310-5"}]},"subject":{"reference":"Patient/f062eaf0-6ce4-4e5c-adcf-3c2be0e8abe9"},"effectiveDateTime":"2022-10-13T00:00:00+00:00","valueQuantity":{"value":26.7,"unit":"Degrees Fahrenheit","system":"http://unitsofmeasure.org","code":"[degF]"}},"request":{"method":"POST","url":"Observation"}},{"fullUrl":"Observation/dec2925c-f673-4a35-9c3f-3613a088b2f5","resource":{"resourceType":"Observation","id":"dec2925c-f673-4a35-9c3f-3613a088b2f5","meta":{"profile":["http://hl7.org/fhir/us/core/StructureDefinition/us-core-body-temperature"]},"status":"final","category":[{"coding":[{"system":"http://terminology.hl7.org/CodeSystem/observation-category","code":"vital-signs","display":"Vital Signs"}]}],"code":{"coding":[{"system":"http://loinc.org","code":"8310-5"}]},"subject":{"reference":"Patient/f062eaf0-6ce4-4e5c-adcf-3c2be0e8abe9"},"effectiveDateTime":"2022-09-11T00:00:00+00:00","valueQuantity":{"value":103.34,"unit":"Degrees Fahrenheit","system":"http://unitsofmeasure.org","code":"[degF]"}},"request":{"method":"POST","url":"Observation"}},{"fullUrl":"Observation/4b4ecf72-3057-4cf0-a1bc-95495a98ea1c","resource":{"resourceType":"Observation","id":"4b4ecf72-3057-4cf0-a1bc-95495a98ea1c","meta":{"profile":["http://hl7.org/fhir/us/core/StructureDefinition/us-core-heart-rate"]},"status":"final","category":[{"coding":[{"system":"http://terminology.hl7.org/CodeSystem/observation-category","code":"vital-signs","display":"Vital Signs"}]}],"code":{"coding":[{"system":"http://loinc.org","code":"8867-4"}]},"subject":{"reference":"Patient/f062eaf0-6ce4-4e5c-adcf-3c2be0e8abe9"},"effectiveDateTime":"2022-06-23T00:00:00+00:00","valueQuantity":{"value":101.5,"unit":"Per Minute","system":"http://unitsofmeasure.org","code":"/min"}},"request":{"method":"POST","url":"Observation"}},{"fullUrl":"Observation/4f915356-b9bc-4b38-9a4f-cce33b4698a4","resource":{"resourceType":"Observation","id":"4f915356-b9bc-4b38-9a4f-cce33b4698a4","meta":{"profile":["http://hl7.org/fhir/us/core/StructureDefinition/us-core-heart-rate"]},"status":"final","category":[{"coding":[{"system":"http://terminology.hl7.org/CodeSystem/observation-category","code":"vital-signs","display":"Vital Signs"}]}],"code":{"coding":[{"system":"http://loinc.org","code":"8867-4"}]},"subject":{"reference":"Patient/f062eaf0-6ce4-4e5c-adcf-3c2be0e8abe9"},"effectiveDateTime":"2022-09-14T00:00:00+00:00","valueQuantity":{"value":101.8,"unit":"Per Minute","system":"http://unitsofmeasure.org","code":"/min"}},"request":{"method":"POST","url":"Observation"}}]}