{"resourceType":"Bundle","id":"b22ccd74-9cc7-41e5-9f9e-a6d29c194320","type":"transaction","entry":[{"fullUrl":"Patient/aee895fa-089b-456b-b326-0a0a51954351","resource":{"resourceType":"Patient","id":"aee895fa-089b-456b-b326-0a0a51954351","identifier":[{"type":{"coding":[{"system":"http://terminology.hl7.org/CodeSystem/v2-0203","code":"MR"}]},"system":"urn:fhirgen:mrn","value":"567-13-0227"}],"name":[{"use":"official","family":"Patterson","given":["Christopher"]},{"use":"maiden","family":"Baker"}],"telecom":[{"system":"phone","value":"477-291-6038x7271","use":"home"},{"system":"email","value":"michaeldawson@yahoo.com","use":"work"}],"gender":"male","birthDate":"1990-04-04","address":[{"use":"home","line":["117 Shelby Crest Apt. 008"],"city":"North Cathy","state":"RI","postalCode":"11121"},{"use":"old","line":["1016 Wayne Fork"],"city":"Brianbury","state":"ME","postalCode":"30912"}]},"request":{"method":"POST","url":"Patient"}},{"fullUrl":"Observation/569a7122-2722-459c-9204-b57e7ca01d9f","resource":{"resourceType":"Observation","id":"569a7122-2722-459c-9204-b57e7ca01d9f","status":"final","code":{"coding":[{"system":"http://loinc.org","code":"87925-4"}]},"subject":{"reference":"Patient/aee895fa-089b-456b-b326-0a0a51954351"},"effectiveDateTime":"2022-03-14T00:00:00+00:00","valueRatio":{"numerator":{"value":1},"denominator":{"value":4}}},"request":{"method":"POST","url":"Observation"}},{"fullUrl":"Observation/ce8732ce-cc23-4b10-956f-33fca74308e2","resource":{"resourceType":"Observation","id":"ce8732ce-cc23-4b10-956f-33fca74308e2","status":"final","code":{"coding":[{"system":"http://loinc.org","code":"47476-7"}]},"subject":{"reference":"Patient/aee895fa-089b-456b-b326-0a0a51954351"},"effectiveDateTime":"2022-02-28T00:00:00+00:00","valueRatio":{"numerator":{"value":1},"denominator":{"value":32}}},"request":{"method":"POST","url":"Observation"}},{"fullUrl":"Condition/e9b73361-bbd9-400c-ab76-9ce792be2783","resource":{"resourceType":"Condition","id":"e9b73361-bbd9-400c-ab76-9ce792be2783","code":{"coding":[{"system":"http://snomed.info/sct","code":"21522001"}]},"subject":{"reference":"Patient/aee895fa-089b-456b-b326-0a0a51954351"},"onsetDateTime":"2022-03-07T00:00:00+00:00"},"request":{"method":"POST","url":"Condition"}},{"fullUrl":"Condition/a72735b9-774e-4f0c-abc5-7db8ff680148","resource":{"resourceType":"Condition","id":"a72735b9-774e-4f0c-abc5-7db8ff680148","code":{"coding":[{"system":"http://snomed.info/sct","code":"736686006"}]},"subject":{"reference":"Patient/aee895fa-089b-456b-b326-0a0a51954351"},"onsetDateTime":"2022-03-18T00:00:00+00:00"},"request":{"method":"POST","url":"Condition"}},{"fullUrl":"Condition/146678f9-1790-40e6-9160-1878bfce8d77","resource":{"resourceType":"Condition","id":"146678f9-1790-40e6-9160-1878bfce8d77","code":{"coding":[{"system":"http://snomed.info/sct","code":"271807003"}]},"subject":{"reference":"Patient/aee895fa-089b-456b-b326-0a0a51954351"},"onsetDateTime":"2022-01-05T00:00:00+00:00"},"request":{"method":"POST","url":"Condition"}},{"fullUrl":"Condition/f16fa3bd-16f4-43dd-b0de-b7ac750ca401","resource":{"resourceType":"Condition","id":"f16fa3bd-16f4-43dd-b0de-b7ac750ca401","code":{"coding":[{"system":"http://snomed.info/sct","code":"44882003"}]},"subject":{"reference":"Patient/aee895fa-089b-456b-b326-0a0a51954351"},"onsetDateTime":"2022-01-30T00:00:00+00:00"},"request":{"method":"POST","url":"Condition"}},{"fullUrl":"Condition/37462769-38f0-46b1-b1ce-8dc1ae941163","resource":{"resourceType":"Condition","id":"37462769-38f0-46b1-b1ce-8dc1ae941163","code":{"coding":[{"system":"http://snomed.info/sct","code":"405737000"}]},"subject":{"reference":"Patient/aee895fa-089b-456b-b326-0a0a51954351"},"onsetDateTime":"2022-02-24T00:00:00+00:00"},"request":{"method":"POST","url":"Condition"}},{"fullUrl":"Condition/bd0de0e0-f49e-45f3-9c12-9278938b9eaa","resource":{"resourceType":"Condition","id":"bd0de0e0-f49e-45f3-9c12-9278938b9eaa","code":{"coding":[{"system":"http://snomed.info/sct","code":"248980004"}]},"subject":{"reference":"Patient/aee895fa-089b-456b-b326-0a0a51954351"},"onsetDateTime":"2022-02-16T00:00:00+00:00"},"request":{"method":"POST","url":"Condition"}},{"fullUrl":"Observation/ae651401-de70-4b39-a367-04d426233d1e","resource":{"resourceType":"Observation","id":"ae651401-de70-4b39-a367-04d426233d1e","status":"final","code":{"coding":[{"system":"http://loinc.org","code":"49498-9"}]},"subject":{"reference":"Patient/aee895fa-089b-456b-b326-0a0a51954351"},"effectiveDateTime":"2022-11-15T00:00:00+00:00","valueQuantity":{"value":10.2}},"request":{"method":"POST","url":"Observation"}},{"fullUrl":"Observation/820af9d3-24d3-4a85-af30-5aefd5876a7a","resource":{"resourceType":"Observation","id":"820af9d3-24d3-4a85-af30-5aefd5876a7a","status":"final","code":{"coding":[{"system":"http://loinc.org","code":"804-5"}]},"subject":{"reference":"Patient/aee895fa-089b-456b-b326-0a0a51954351"},"effectiveDateTime":"2022-05-17T00:00:00+00:00","valueQuantity":{"value":4.2}},"request":{"method":"POST","url":"Observation"}},{"fullUrl":"Observation/e3c4eb44-b64f-449a-90ff-95ddfab64550","resource":{"resourceType":"Observation","id":"e3c4eb44-b64f-449a-90ff-95ddfab64550","status":"final","code":{"coding":[{"system":"http://loinc.org","code":"26464-8"}]},"subject":{"reference":"Patient/aee895fa-089b-456b-b326-0a0a51954351"},"effectiveDateTime":"2022-10-04T00:00:00+00:00","valueCodeableConcept":{"coding":[{"system":"snomed","code":"123456","display":"fake snomed"}]}},"request":{"method":"POST","url":"Observation"}},{"fullUrl":"Observation/58dc7555-f118-4b91-8651-ee1dce202fc6","resource":{"resourceType":"Observation","id":"58dc7555-f118-4b91-8651-ee1dce202fc6","status":"final","code":{"coding":[{"system":"http://loinc.org","code":"804-5"}]},"subject":{"reference":"Patient/aee895fa-089b-456b-b326-0a0a51954351"},"effectiveDateTime":"2022-03-26T00:00:00+00:00","valueCodeableConcept":{"coding":[{"system":"snomed","code":"123456","display":"fake snomed"}]}},"request":{"method":"POST","url":"Observation"}},{"fullUrl":"Observation/98e2f670-a0ea-46c1-87b7-457cb5c18120","resource":{"resourceType":"Observation","id":"98e2f670-a0ea-46c1-87b7-457cb5c18120","status":"final","code":{"coding":[{"system":"http://loinc.org","code":"49498-9"}]},"subject":{"reference":"Patient/aee895fa-089b-456b-b326-0a0a51954351"},"effectiveDateTime":"2022-12-30T00:00:00+00:00"},"request":{"method":"POST","url":"Observation"}},{"fullUrl":"Observation/6e9631fe-cb69-4392-931a-740f86c31f31","resource":{"resourceType":"Observation","id":"6e9631fe-cb69-4392-931a-740f86c31f31","status":"final","code":{"coding":[{"system":"http://loinc.org","code":"49498-9"}]},"subject":{"reference":"Patient/aee895fa-089b-456b-b326-0a0a51954351"},"effectiveDateTime":"2022-01-25T00:00:00+00:00"},"request":{"method":"POST","url":"Observation"}},{"fullUrl":"Observation/35672d2a-a1aa-4739-b028-29e25274d83b","resource":{"resourceType":"Observation","id":"35672d2a-a1aa-4739-b028-29e25274d83b","status":"final","code":{"coding":[{"system":"http://loinc.org","code":"49498-9"}]},"subject":{"reference":"Patient/aee895fa-089b-456b-b326-0a0a51954351"},"effectiveDateTime":"2022-04-25T00:00:00+00:00"},"request":{"method":"POST","url":"Observation"}},{"fullUrl":"Procedure/122089b9-b8be-4574-8df1-32ec99232ade","resource":{"resourceType":"Procedure","id":"122089b9-b8be-4574-8df1-32ec99232ade","status":"completed","code":{"coding":[{"system":"http://snomed.info/sct","code":"115006"}]},"subject":{"reference":"Patient/aee895fa-089b-456b-b326-0a0a51954351"},"performedDateTime":"2022-10-19T00:00:00+00:00"},"request":{"method":"POST","url":"Procedure"}},{"fullUrl":"Procedure/71434512-5e0e-45fb-8baf-b794609410d4","resource":{"resourceType":"Procedure","id":"71434512-5e0e-45fb-8baf-b794609410d4","status":"completed","code":{"coding":[{"system":"http://snomed.info/sct","code":"189009"}]},"subject":{"reference":"Patient/aee895fa-089b-456b-b326-0a0a51954351"},"performedDateTime":"2022-11-27T00:00:00+00:00"},"request":{"method":"POST","url":"Procedure"}},{"fullUrl":"Procedure/1b24d3c8-a4a7-464c-8218-3b8e5422731d","resource":{"resourceType":"Procedure","id":"1b24d3c8-a4a7-464c-8218-3b8e5422731d","status":"completed","code":{"coding":[{"system":"http://snomed.info/sct","code":"647000"}]},"subject":{"reference":"Patient/aee895fa-089b-456b-b326-0a0a51954351"},"performedDateTime":"2022-11-29T00:00:00+00:00"},"request":{"method":"POST","url":"Procedure"}},{"fullUrl":"MedicationStatement/47f34ee0-3445-4fbf-803f-aa38fe697bc3","resource":{"resourceType":"MedicationStatement","id":"47f34ee0-3445-4fbf-803f-aa38fe697bc3","status":"completed","medicationCodeableConcept":{"coding":[{"system":"http://www.nlm.nih.gov/research/umls/rxnorm","code":"7984"}]},"subject":{"reference":"Patient/aee895fa-089b-456b-b326-0a0a51954351"},"effectiveDateTime":"2022-12-21T00:00:00+00:00","dosage":[{"doseAndRate":[{"doseQuantity":{"value":1,"unit":"TAB","system":"http://terminology.hl7.org/CodeSystem/v3-orderableDrugForm","code":"TAB"}}]}]},"request":{"method":"POST","url":"MedicationStatement"}},{"fullUrl":"MedicationStatement/b1f1c779-8f12-4f26-bb07-758591186846","resource":{"resourceType":"MedicationStatement","id":"b1f1c779-8f12-4f26-bb07-758591186846","status":"completed","medicationCodeableConcept":{"coding":[{"system":"http://www.nlm.nih.gov/research/umls/rxnorm","code":"2193"}]},"subject":{"reference":"Patient/aee895fa-089b-456b-b326-0a0a51954351"},"effectiveDateTime":"2022-07-03T00:00:00+00:00","dosage":[{"doseAndRate":[{"doseQuantity":{"value":2,"unit":"TAB","system":"http://terminology.hl7.org/CodeSystem/v3-orderableDrugForm","code":"TAB"}}]}]},"request":{"method":"POST","url":"MedicationStatement"}},{"fullUrl":"MedicationStatement/8867912b-5103-43d6-b877-effbb3241ce1","resource":{"resourceType":"MedicationStatement","id":"8867912b-5103-43d6-b877-effbb3241ce1","status":"completed","medicationCodeableConcept":{"coding":[{"system":"http://www.nlm.nih.gov/research/umls/rxnorm","code":"2193"}]},"subject":{"reference":"Patient/aee895fa-089b-456b-b326-0a0a51954351"},"effectiveDateTime":"2022-02-16T00:00:00+00:00","dosage":[{"doseAndRate":[{"doseQuantity":{"value":2,"unit":"TAB","system":"http://terminology.hl7.org/CodeSystem/v3-orderableDrugForm","code":"TAB"}}]}]},"request":{"method":"POST","url":"MedicationStatement"}},{"fullUrl":"MedicationStatement/e6f18f40-4425-42ff-803b-34fb3fd03bda","resource":{"resourceType":"MedicationStatement","id":"e6f18f40-4425-42ff-803b-34fb3fd03bda","status":"completed","medicationCodeableConcept":{"coding":[{"system":"http://www.nlm.nih.gov/research/umls/rxnorm","code":"7984"}]},"subject":{"reference":"Patient/aee895fa-089b-456b-b326-0a0a51954351"},"effectiveDateTime":"2022-06-04T00:00:00+00:00","dosage":[{"doseAndRate":[{"doseQuantity":{"value":6.3,"unit":"TAB","system":"http://terminology.hl7.org/CodeSystem/v3-orderableDrugForm","code":"TAB"}}]}]},"request":{"method":"POST","url":"MedicationStatement"}},{"fullUrl":"MedicationStatement/9006b261-63c2-46b8-930b-5f8789786ce6","resource":{"resourceType":"MedicationStatement","id":"9006b261-63c2-46b8-930b-5f8789786ce6","status":"completed","medicationCodeableConcept":{"coding":[{"system":"http://www.nlm.nih.gov/research/umls/rxnorm","code":"7980"}]},"subject":{"reference":"Patient/aee895fa-089b-456b-b326-0a0a51954351"},"effectiveDateTime":"2022-07-26T00:00:00+00:00","dosage":[{"doseAndRate":[{"doseQuantity":{"value":4.8,"unit":"TAB","system":"http://terminology.hl7.org/CodeSystem/v3-orderableDrugForm","code":"TAB"}}]}]},"request":{"method":"POST","url":"MedicationStatement"}},{"fullUrl":"MedicationStatement/4aa17a8a-7321-4ca3-86f2-27286f19641b","resource":{"resourceType":"MedicationStatement","id":"4aa17a8a-7321-4ca3-86f2-27286f19641b","status":"completed","medicationCodeableConcept":{"coding":[{"system":"http://www.nlm.nih.gov/research/umls/rxnorm","code":"7980"}]},"subject":{"reference":"Patient/aee895fa-089b-456b-b326-0a0a51954351"},"effectiveDateTime":"2022-11-22T00:00:00+00:00","dosage":[{"doseAndRate":[{"doseQuantity":{"value":6.2,"unit":"TAB","system":"http://terminology.hl7.org/CodeSystem/v3-orderableDrugForm","code":"TAB"}}]}]},"request":{"method":"POST","url":"MedicationStatement"}},{"fullUrl":"MedicationStatement/3b9c8dba-4160-4487-b0f4-32f604e70c37","resource":{"resourceType":"MedicationStatement","id":"3b9c8dba-4160-4487-b0f4-32f604e70c37","status":"completed","medicationCodeableConcept":{"coding":[{"system":"http://www.nlm.nih.gov/research/umls/rxnorm","code":"8698"}]},"subject":{"reference":"Patient/aee895fa-089b-456b-b326-0a0a51954351"},"effectiveDateTime":"2022-08-06T00:00:00+00:00","dosage":[{"doseAndRate":[{"doseQuantity":{"value":3.9,"unit":"TAB","system":"http://terminology.hl7.org/CodeSystem/v3-orderableDrugForm","code":"TAB"}}]}]},"request":{"method":"POST","url":"MedicationStatement"}},{"fullUrl":"MedicationStatement/ba13207e-7fa0-416a-972b-96f122900706","resource":{"resourceType":"MedicationStatement","id":"ba13207e-7fa0-416a-972b-96f122900706","status":"completed","medicationCodeableConcept":{"coding":[{"system":"http://www.nlm.nih.gov/research/umls/rxnorm","code":"3640"}]},"subject":{"reference":"Patient/aee895fa-089b-456b-b326-0a0a51954351"},"effectiveDateTime":"2022-01-29T00:00:00+00:00","dosage":[{"doseAndRate":[{"doseQuantity":{"value":3.5,"unit":"TAB","system":"http://terminology.hl7.org/CodeSystem/v3-orderableDrugForm","code":"TAB"}}]}]},"request":{"method":"POST","url":"MedicationStatement"}},{"fullUrl":"MedicationStatement/3aa3c637-b27a-4c6d-8664-5d0cc452b52d","resource":{"resourceType":"MedicationStatement","id":"3aa3c637-b27a-4c6d-8664-5d0cc452b52d","status":"completed","medicationCodeableConcept":{"coding":[{"system":"http://www.nlm.nih.gov/research/umls/rxnorm","code":"10395"}]},"subject":{"reference":"Patient/aee895fa-089b-456b-b326-0a0a51954351"},"effectiveDateTime":"2022-09-13T00:00:00+00:00","dosage":[{"doseAndRate":[{"doseQuantity":{"value":5.3,"unit":"TAB","system":"http://terminology.hl7.org/CodeSystem/v3-orderableDrugForm","code":"TAB"}}]}]},"request":{"method":"POST","url":"MedicationStatement"}},{"fullUrl":"MedicationStatement/12375c8a-7b60-4368-bb73-c23680cb664e","resource":{"resourceType":"MedicationStatement","id":"12375c8a-7b60-4368-bb73-c23680cb664e","status":"completed","medicationCodeableConcept":{"coding":[{"system":"http://www.nlm.nih.gov/research/umls/rxnorm","code":"2193"}]},"subject":{"reference":"Patient/aee895fa-089b-456b-b326-0a0a51954351"},"effectiveDateTime":"2022-08-29T00:00:00+00:00","dosage":[{"doseAndRate":[{"doseQuantity":{"value":3,"unit":"TAB","system":"http://terminology.hl7.org/CodeSystem/v3-orderableDrugForm","code":"TAB"}}]}]},"request":{"method":"POST","url":"MedicationStatement"}},{"fullUrl":"MedicationStatement/97170974-714d-4ab8-a253-2c7af94c3c75","resource":{"resourceType":"MedicationStatement","id":"97170974-714d-4ab8-a253-2c7af94c3c75","status":"completed","medicationCodeableConcept":{"coding":[{"system":"http://www.nlm.nih.gov/research/umls/rxnorm","code":"8698"}]},"subject":{"reference":"Patient/aee895fa-089b-456b-b326-0a0a51954351"},"effectiveDateTime":"2022-09-09T00:00:00+00:00","dosage":[{"doseAndRate":[{"doseQuantity":{"value":5.9,"unit":"TAB","system":"http://terminology.hl7.org/CodeSystem/v3-orderableDrugForm","code":"TAB"}}]}]},"request":{"method":"POST","url":"MedicationStatement"}},{"fullUrl":"Encounter/ecdfb050-3aae-4c01-b582-dc1d0b603195","resource":{"resourceType":"Encounter","id":"ecdfb050-3aae-4c01-b582-dc1d0b603195","status":"finished","class":{"system":"http://terminology.hl7.org/CodeSystem/v3-ActCode","code":"IMP","display":"inpatient encounter"},"type":[{"coding":[{"system":"http://terminology.hl7.org/CodeSystem/encounter-type","code":"ADMS"}]}],"subject":{"reference":"Patient/aee895fa-089b-456b-b326-0a0a51954351"},"period":{"start":"2022-10-20T00:00:00+00:00","end":"2022-10-28T00:00:00+00:00"}},"request":{"method":"POST","url":"Encounter"}},{"fullUrl":"Encounter/321a512c-3266-4169-80fa-d14f26fef239","resource":{"resourceType":"Encounter","id":"321a512c-3266-4169-80fa-d14f26fef239","status":"finished","class":{"system":"http://terminology.hl7.org/CodeSystem/v3-ActCode","code":"IMP","display":"inpatient encounter"},"type":[{"coding":[{"system":"http://terminology.hl7.org/CodeSystem/encounter-type","code":"OKI"}]}],"subject":{"reference":"Patient/aee895fa-089b-456b-b326-0a0a51954351"},"period":{"start":"2022-11-05T00:00:00+00:00","end":"2022-11-11T00:00:00+00:00"}},"request":{"method":"POST","url":"Encounter"}},{"fullUrl":"Encounter/f4ca53a3-00b2-4e60-af0b-c603dea356f3","resource":{"resourceType":"Encounter","id":"f4ca53a3-00b2-4e60-af0b-c603dea356f3","status":"finished","class":{"system":"http://terminology.hl7.org/CodeSystem/v3-ActCode","code":"HH","display":"home health"},"type":[{"coding":[{"system":"http://terminology.hl7.org/CodeSystem/encounter-type","code":"OKI"}]}],"subject":{"reference":"Patient/aee895fa-089b-456b-b326-0a0a51954351"},"period":{"start":"2022-12-05T00:00:00+00:00","end":"2022-12-13T00:00:00+00:00"}},"request":{"method":"POST","url":"Encounter"}},{"fullUrl":"Encounter/efe4176c-4680-4f80-97da-501f5a04fd76","resource":{"resourceType":"Encounter","id":"efe4176c-4680-4f80-97da-501f5a04fd76","status":"finished","class":{"system":"http://terminology.hl7.org/CodeSystem/v3-ActCode","code":"IMP","display":"inpatient encounter"},"type":[{"coding":[{"system":"http://terminology.hl7.org/CodeSystem/encounter-type","code":"BD/BM-clin"}]}],"subject":{"reference":"Patient/aee895fa-089b-456b-b326-0a0a51954351"},"period":{"start":"2022-11-04T00:00:00+00:00","end":"2022-11-13T00:00:00+00:00"}},"request":{"method":"POST","url":"Encounter"}},{"fullUrl":"Patient/d54e0522-67fd-4f28-84f5-8701a2ba3369","resource":{"resourceType":"Patient","id":"d54e0522-67fd-4f28-84f5-8701a2ba3369","identifier":[{"type":{"coding":[{"system":"http://terminology.hl7.org/CodeSystem/v2-0203","code":"MR"}]},"system":"urn:fhirgen:mrn","value":"820-73-4373"}],"name":[{"use":"official","family":"Underwood","given":["Hayden"]},{"use":"maiden","family":"Ortiz"}],"telecom":[{"system":"phone","value":"332-908-6711x2399","use":"home"},{"system":"email","value":"brianguerrero@yahoo.com","use":"home"}],"gender":"male","birthDate":"1980-08-22","address":[{"use":"home","line":["275 Marcus Islands"],"city":"Walterfurt","state":"TX","postalCode":"21476"},{"use":"old","line":["544 Anthony Islands"],"city":"Lake Kimberlyland","state":"MO","postalCode":"31129"}]},"request":{"method":"POST","url":"Patient"}},{"fullUrl":"Observation/90ca5885-62e3-4c4e-940a-73b35b61b9e8","resource":{"resourceType":"Observation","id":"90ca5885-62e3-4c4e-940a-73b35b61b9e8","status":"final","code":{"coding":[{"system":"http://loinc.org","code":"31146-4"}]},"subject":{"reference":"Patient/d54e0522-67fd-4f28-84f5-8701a2ba3369"},"effectiveDateTime":"2022-09-29T00:00:00+00:00","valueRatio":{"numerator":{"value":1},"denominator":{"value":32}}},"request":{"method":"POST","url":"Observation"}},{"fullUrl":"Observation/a886a138-e8dd-4e63-90ef-cd30c0f299d5","resource":{"resourceType":"Observation","id":"a886a138-e8dd-4e63-90ef-cd30c0f299d5","status":"final","code":{"coding":[{"system":"http://loinc.org","code":"51475-2"}]},"subject":{"reference":"Patient/d54e0522-67fd-4f28-84f5-8701a2ba3369"},"effectiveDateTime":"2022-03-05T00:00:00+00:00","valueRatio":{"numerator":{"value":1},"denominator":{"value":32}}},"request":{"method":"POST","url":"Observation"}},{"fullUrl":"Observation/9af3bfb4-58ae-493c-88d1-5a50f7a2fbad","resource":{"resourceType":"Observation","id":"9af3bfb4-58ae-493c-88d1-5a50f7a2fbad","status":"final","code":{"coding":[{"system":"http://loinc.org","code":"34382-2"}]},"subject":{"reference":"Patient/d54e0522-67fd-4f28-84f5-8701a2ba3369"},"effectiveDateTime":"2022-07-31T00:00:00+00:00","valueRatio":{"numerator":{"value":1},"denominator":{"value":64}}},"request":{"method":"POST","url":"Observation"}},{"fullUrl":"Condition/69cfb796-e2b2-450d-a907-2f14ba23281d","resource":{"resourceType":"Condition","id":"69cfb796-e2b2-450d-a907-2f14ba23281d","code":{"coding":[{"system":"http://snomed.info/sct","code":"297123002"}]},"subject":{"reference":"Patient/d54e0522-67fd-4f28-84f5-8701a2ba3369"},"onsetDateTime":"2022-12-11T00:00:00+00:00"},"request":{"method":"POST","url":"Condition"}},{"fullUrl":"Condition/797014c6-7ae5-429c-a878-aef218bf23d1","resource":{"resourceType":"Condition","id":"797014c6-7ae5-429c-a878-aef218bf23d1","code":{"coding":[{"system":"http://snomed.info/sct","code":"271807003"}]},"subject":{"reference":"Patient/d54e0522-67fd-4f28-84f5-8701a2ba3369"},"onsetDateTime":"2022-04-05T00:00:00+00:00"},"request":{"method":"POST","url":"Condition"}},{"fullUrl":"Condition/a2f158f8-0fe4-4365-a3ef-53b20884e218","resource":{"resourceType":"Condition","id":"a2f158f8-0fe4-4365-a3ef-53b20884e218","code":{"coding":[{"system":"http://snomed.info/sct","code":"386661006"}]},"subject":{"reference":"Patient/d54e0522-67fd-4f28-84f5-8701a2ba3369"},"onsetDateTime":"2022-07-02T00:00:00+00:00"},"request":{"method":"POST","url":"Condition"}},{"fullUrl":"Condition/c8761b1e-c1df-4427-ad33-6fe9a9ed5d9c","resource":{"resourceType":"Condition","id":"c8761b1e-c1df-4427-ad33-6fe9a9ed5d9c","code":{"coding":[{"system":"http://snomed.info/sct","code":"3951002"}]},"subject":{"reference":"Patient/d54e0522-67fd-4f28-84f5-8701a2ba3369"},"onsetDateTime":"2022-04-09T00:00:00+00:00"},"request":{"method":"POST","url":"Condition"}},{"fullUrl":"Condition/fd9a5a49-e59b-44e9-9b14-650dffe272c8","resource":{"resourceType":"Condition","id":"fd9a5a49-e59b-44e9-9b14-650dffe272c8","code":{"coding":[{"system":"http://snomed.info/sct","code":"248980004"}]},"subject":{"reference":"Patient/d54e0522-67fd-4f28-84f5-8701a2ba3369"},"onsetDateTime":"2022-10-03T00:00:00+00:00"},"request":{"method":"POST","url":"Condition"}},{"fullUrl":"Condition/d36a4516-bd67-4b1b-9632-a48175e3fc86","resource":{"resourceType":"Condition","id":"d36a4516-bd67-4b1b-9632-a48175e3fc86","code":{"coding":[{"system":"http://snomed.info/sct","code":"198199009"}]},"subject":{"reference":"Patient/d54e0522-67fd-4f28-84f5-8701a2ba3369"},"onsetDateTime":"2022-09-09T00:00:00+00:00"},"request":{"method":"POST","url":"Condition"}},{"fullUrl":"Condition/4007ee1d-e686-49ba-abb1-bab12c43c54b","resource":{"resourceType":"Condition","id":"4007ee1d-e686-49ba-abb1-bab12c43c54b","code":{"coding":[{"system":"http://snomed.info/sct","code":"271807003"}]},"subject":{"reference":"Patient/d54e0522-67fd-4f28-84f5-8701a2ba3369"},"onsetDateTime":"2022-02-05T00:00:00+00:00"},"request":{"method":"POST","url":"Condition"}},{"fullUrl":"Observation/dd63fed9-33b1-4570-9a2e-5afd90b02bf2","resource":{"resourceType":"Observation","id":"dd63fed9-33b1-4570-9a2e-5afd90b02bf2","status":"final","code":{"coding":[{"system":"http://www.ama-assn.org/go/cpt","code":"85048"}]},"subject":{"reference":"Patient/d54e0522-67fd-4f28-84f5-8701a2ba3369"},"effectiveDateTime":"2022-01-15T00:00:00+00:00","valueQuantity":{"value":10.9}},"request":{"method":"POST","url":"Observation"}},{"fullUrl":"Observation/270b7444-d211-42d5-922f-f7b38fad2d7c","resource":{"resourceType":"Observation","id":"270b7444-d211-42d5-922f-f7b38fad2d7c","status":"final","code":{"coding":[{"system":"http://loinc.org","code":"804-5"}]},"subject":{"reference":"Patient/d54e0522-67fd-4f28-84f5-8701a2ba3369"},"effectiveDateTime":"2022-01-02T00:00:00+00:00","valueQuantity":{"value":8.4}},"request":{"method":"POST","url":"Observation"}},{"fullUrl":"Observation/19eeb36b-d706-4384-80c2-5dd18aba1299","resource":{"resourceType":"Observation","id":"19eeb36b-d706-4384-80c2-5dd18aba1299","status":"final","code":{"coding":[{"system":"http://loinc.org","code":"6690-2"}]},"subject":{"reference":"Patient/d54e0522-67fd-4f28-84f5-8701a2ba3369"},"effectiveDateTime":"2022-02-27T00:00:00+00:00","valueQuantity":{"value":5.1}},"request":{"method":"POST","url":"Observation"}},{"fullUrl":"Observation/3cf42860-e6c0-454a-b83b-23f104c34f1a","resource":{"resourceType":"Observation","id":"3cf42860-e6c0-454a-b83b-23f104c34f1a","status":"final","code":{"coding":[{"system":"http://loinc.org","code":"49498-9"}]},"subject":{"reference":"Patient/d54e0522-67fd-4f28-84f5-8701a2ba3369"},"effectiveDateTime":"2022-04-12T00:00:00+00:00","valueCodeableConcept":{"coding":[{"system":"snomed","code":"123456","display":"fake snomed"}]}},"request":{"method":"POST","url":"Observation"}},{"fullUrl":"Observation/0ee6dff5-4040-4ab0-92fd-5edea2f3760e","resource":{"resourceType":"Observation","id":"0ee6dff5-4040-4ab0-92fd-5edea2f3760e","status":"final","code":{"coding":[{"system":"http://loinc.org","code":"49498-9"}]},"subject":{"reference":"Patient/d54e0522-67fd-4f28-84f5-8701a2ba3369"},"effectiveDateTime":"2022-08-29T00:00:00+00:00","valueCodeableConcept":{"coding":[{"system":"snomed","code":"123456","display":"fake snomed"}]}},"request":{"method":"POST","url":"Observation"}},{"fullUrl":"Observation/55825167-21f7-4324-b175-2e6155fc7107","resource":{"resourceType":"Observation","id":"55825167-21f7-4324-b175-2e6155fc7107","status":"final","code":{"coding":[{"system":"http://loinc.org","code":"49498-9"}]},"subject":{"reference":"Patient/d54e0522-67fd-4f28-84f5-8701a2ba3369"},"effectiveDateTime":"2022-11-04T00:00:00+00:00"},"request":{"method":"POST","url":"Observation"}},{"fullUrl":"Observation/a0bf6ab5-7077-453c-bf71-a1442b2d8ef3","resource":{"resourceType":"Observation","id":"a0bf6ab5-7077-453c-bf71-a1442b2d8ef3","status":"final","code":{"coding":[{"system":"http://loinc.org","code":"49498-9"}]},"subject":{"reference":"Patient/d54e0522-67fd-4f28-84f5-8701a2ba3369"},"effectiveDateTime":"2022-12-08T00:00:00+00:00"},"request":{"method":"POST","url":"Observation"}},{"fullUrl":"Observation/3eadf00b-b427-4d3d-8306-a165b8592171","resource":{"resourceType":"Observation","id":"3eadf00b-b427-4d3d-8306-a165b8592171","status":"final","code":{"coding":[{"system":"http://loinc.org","code":"49498-9"}]},"subject":{"reference":"Patient/d54e0522-67fd-4f28-84f5-8701a2ba3369"},"effectiveDateTime":"2022-04-04T00:00:00+00:00"},"request":{"method":"POST","url":"Observation"}},{"fullUrl":"Procedure/8e1311ab-41b1-48bb-811e-f166757b3396","resource":{"resourceType":"Procedure","id":"8e1311ab-41b1-48bb-811e-f166757b3396","status":"completed","code":{"coding":[{"system":"http://snomed.info/sct","code":"104001"}]},"subject":{"reference":"Patient/d54e0522-67fd-4f28-84f5-8701a2ba3369"},"performedDateTime":"2022-11-26T00:00:00+00:00"},"request":{"method":"POST","url":"Procedure"}},{"fullUrl":"Procedure/623398dc-c1e6-4df0-a3e3-67b53e14f702","resource":{"resourceType":"Procedure","id":"623398dc-c1e6-4df0-a3e3-67b53e14f702","status":"completed","code":{"coding":[{"system":"http://snomed.info/sct","code":"146005"}]},"subject":{"reference":"Patient/d54e0522-67fd-4f28-84f5-8701a2ba3369"},"performedDateTime":"2022-04-04T00:00:00+00:00"},"request":{"method":"POST","url":"Procedure"}},{"fullUrl":"Procedure/458cfc9a-e0c0-46c2-8616-617a753f6eea","resource":{"resourceType":"Procedure","id":"458cfc9a-e0c0-46c2-8616-617a753f6eea","status":"completed","code":{"coding":[{"system":"http://snomed.info/sct","code":"189009"}]},"subject":{"reference":"Patient/d54e0522-67fd-4f28-84f5-8701a2ba3369"},"performedDateTime":"2022-06-06T00:00:00+00:00"},"request":{"method":"POST","url":"Procedure"}},{"fullUrl":"MedicationStatement/5592ada1-cda5-44e8-9d63-eb0a3bf28f60","resource":{"resourceType":"MedicationStatement","id":"5592ada1-cda5-44e8-9d63-eb0a3bf28f60","status":"completed","medicationCodeableConcept":{"coding":[{"system":"http://www.nlm.nih.gov/research/umls/rxnorm","code":"7984"}]},"subject":{"reference":"Patient/d54e0522-67fd-4f28-84f5-8701a2ba3369"},"effectiveDateTime":"2022-10-23T00:00:00+00:00","dosage":[{"doseAndRate":[{"doseQuantity":{"value":1,"unit":"TAB","system":"http://terminology.hl7.org/CodeSystem/v3-orderableDrugForm","code":"TAB"}}]}]},"request":{"method":"POST","url":"MedicationStatement"}},{"fullUrl":"MedicationStatement/762ae876-e65d-4992-bfd4-e05643609e80","resource":{"resourceType":"MedicationStatement","id":"762ae876-e65d-4992-bfd4-e05643609e80","status":"completed","medicationCodeableConcept":{"coding":[{"system":"http://www.nlm.nih.gov/research/umls/rxnorm","code":"2193"}]},"subject":{"reference":"Patient/d54e0522-67fd-4f28-84f5-8701a2ba3369"},"effectiveDateTime":"2022-10-08T00:00:00+00:00","dosage":[{"doseAndRate":[{"doseQuantity":{"value":3.8,"unit":"TAB","system":"http://terminology.hl7.org/CodeSystem/v3-orderableDrugForm","code":"TAB"}}]}]},"request":{"method":"POST","url":"MedicationStatement"}},{"fullUrl":"MedicationStatement/fe4ad736-c54f-4e8c-b4b2-ba55849e1a3b","resource":{"resourceType":"MedicationStatement","id":"fe4ad736-c54f-4e8c-b4b2-ba55849e1a3b","status":"completed","medicationCodeableConcept":{"coding":[{"system":"http://www.nlm.nih.gov/research/umls/rxnorm","code":"18631"}]},"subject":{"reference":"Patient/d54e0522-67fd-4f28-84f5-8701a2ba3369"},"effectiveDateTime":"2022-01-22T00:00:00+00:00","dosage":[{"doseAndRate":[{"doseQuantity":{"value":3.4,"unit":"TAB","system":"http://terminology.hl7.org/CodeSystem/v3-orderableDrugForm","code":"TAB"}}]}]},"request":{"method":"POST","url":"MedicationStatement"}},{"fullUrl":"MedicationStatement/1665b396-4a53-4873-8bec-4a1ab10597e5","resource":{"resourceType":"MedicationStatement","id":"1665b396-4a53-4873-8bec-4a1ab10597e5","status":"completed","medicationCodeableConcept":{"coding":[{"system":"http://www.nlm.nih.gov/research/umls/rxnorm","code":"7980"}]},"subject":{"reference":"Patient/d54e0522-67fd-4f28-84f5-8701a2ba3369"},"effectiveDateTime":"2022-05-14T00:00:00+00:00","dosage":[{"doseAndRate":[{"doseQuantity":{"value":4.5,"unit":"TAB","system":"http://terminology.hl7.org/CodeSystem/v3-orderableDrugForm","code":"TAB"}}]}]},"request":{"method":"POST","url":"MedicationStatement"}},{"fullUrl":"MedicationStatement/16a9b102-1da6-4459-a1d8-7a2cf65b7bea","resource":{"resourceType":"MedicationStatement","id":"16a9b102-1da6-4459-a1d8-7a2cf65b7bea","status":"completed","medicationCodeableConcept":{"coding":[{"system":"http://www.nlm.nih.gov/research/umls/rxnorm","code":"7980"}]},"subject":{"reference":"Patient/d54e0522-67fd-4f28-84f5-8701a2ba3369"},"effectiveDateTime":"2022-06-28T00:00:00+00:00","dosage":[{"doseAndRate":[{"doseQuantity":{"value":4.6,"unit":"TAB","system":"http://terminology.hl7.org/CodeSystem/v3-orderableDrugForm","code":"TAB"}}]}]},"request":{"method":"POST","url":"MedicationStatement"}},{"fullUrl":"MedicationStatement/1559f2fe-e26c-4052-a3f3-c08b75c95eab","resource":{"resourceType":"MedicationStatement","id":"1559f2fe-e26c-4052-a3f3-c08b75c95eab","status":"completed","medicationCodeableConcept":{"coding":[{"system":"http://www.nlm.nih.gov/research/umls/rxnorm","code":"2193"}]},"subject":{"reference":"Patient/d54e0522-67fd-4f28-84f5-8701a2ba3369"},"effectiveDateTime":"2022-01-25T00:00:00+00:00","dosage":[{"doseAndRate":[{"doseQuantity":{"value":5.4,"unit":"TAB","system":"http://terminology.hl7.org/CodeSystem/v3-orderableDrugForm","code":"TAB"}}]}]},"request":{"method":"POST","url":"MedicationStatement"}},{"fullUrl":"MedicationStatement/2117800e-78d3-48fb-92e1-0526aa2722ae","resource":{"resourceType":"MedicationStatement","id":"2117800e-78d3-48fb-92e1-0526aa2722ae","status":"completed","medicationCodeableConcept":{"coding":[{"system":"http://www.nlm.nih.gov/research/umls/rxnorm","code":"2193"}]},"subject":{"reference":"Patient/d54e0522-67fd-4f28-84f5-8701a2ba3369"},"effectiveDateTime":"2022-02-07T00:00:00+00:00","dosage":[{"doseAndRate":[{"doseQuantity":{"value":6.2,"unit":"TAB","system":"http://terminology.hl7.org/CodeSystem/v3-orderableDrugForm","code":"TAB"}}]}]},"request":{"method":"POST","url":"MedicationStatement"}},{"fullUrl":"Encounter/5612c0bf-9a80-4872-a3ee-dee14778d2aa","resource":{"resourceType":"Encounter","id":"5612c0bf-9a80-4872-a3ee-dee14778d2aa","status":"finished","class":{"system":"http://terminology.hl7.org/CodeSystem/v3-ActCode","code":"IMP","display":"inpatient encounter"},"type":[{"coding":[{"system":"http://terminology.hl7.org/CodeSystem/encounter-type","code":"CCS60"}]}],"subject":{"reference":"Patient/d54e0522-67fd-4f28-84f5-8701a2ba3369"},"period":{"start":"2022-09-26T00:00:00+00:00","end":"2022-09-28T00:00:00+00:00"}},"request":{"method":"POST","url":"Encounter"}},{"fullUrl":"Encounter/641a56ae-6134-43ed-86c9-a17676a056fd","resource":{"resourceType":"Encounter","id":"641a56ae-6134-43ed-86c9-a17676a056fd","status":"finished","class":{"system":"http://terminology.hl7.org/CodeSystem/v3-ActCode","code":"IMP","display":"inpatient encounter"},"type":[{"coding":[{"system":"http://terminology.hl7.org/CodeSystem/encounter-type","code":"OKI"}]}],"subject":{"reference":"Patient/d54e0522-67fd-4f28-84f5-8701a2ba3369"},"period":{"start":"2022-08-07T00:00:00+00:00","end":"2022-08-12T00:00:00+00:00"}},"request":{"method":"POST","url":"Encounter"}},{"fullUrl":"Encounter/0a728335-6173-4666-90cd-259a5f1450f7","resource":{"resourceType":"Encounter","id":"0a728335-6173-4666-90cd-259a5f1450f7","status":"finished","class":{"system":"http://terminology.hl7.org/CodeSystem/v3-ActCode","code":"IMP","display":"inpatient encounter"},"type":[{"coding":[{"system":"http://terminology.hl7.org/CodeSystem/encounter-type","code":"CCS60"}]}],"subject":{"reference":"Patient/d54e0522-67fd-4f28-84f5-8701a2ba3369"},"period":{"start":"2022-02-11T00:00:00+00:00","end":"2022-02-19T00:00:00+00:00"}},"request":{"method":"POST","url":"Encounter"}},{"fullUrl":"Encounter/69a8c377-46c2-4c3d-aa3d-b6370cc0f7ae","resource":{"resourceType":"Encounter","id":"69a8c377-46c2-4c3d-aa3d-b6370cc0f7ae","status":"finished","class":{"system":"http://terminology.hl7.org/CodeSystem/v3-ActCode","code":"HH","display":"home health"},"type":[{"coding":[{"system":"http://terminology.hl7.org/CodeSystem/encounter-type","code":"CCS60"}]}],"subject":{"reference":"Patient/d54e0522-67fd-4f28-84f5-8701a2ba3369"},"period":{"start":"2022-01-23T00:00:00+00:00","end":"2022-01-29T00:00:00+00:00"}},"request":{"method":"POST","url":"Encounter"}},{"fullUrl":"Encounter/1390a504-19b8-422a-8aa2-8f60dd39f128","resource":{"resourceType":"Encounter","id":"1390a504-19b8-422a-8aa2-8f60dd39f128","status":"finished","class":{"system":"http://terminology.hl7.org/CodeSystem/v3-ActCode","code":"SS","display":"short-stay"},"type":[{"coding":[{"system":"http://terminology.hl7.org/CodeSystem/encounter-type","code":"CCS60"}]}],"subject":{"reference":"Patient/d54e0522-67fd-4f28-84f5-8701a2ba3369"},"period":{"start":"2022-10-20T00:00:00+00:00","end":"2022-10-29T00:00:00+00:00"}},"request":{"method":"POST","url":"Encounter"}},{"fullUrl":"Encounter/adb1b653-3e0c-4b1d-b4c0-33c7ffb19e2b","resource":{"resourceType":"Encounter","id":"adb1b653-3e0c-4b1d-b4c0-33c7ffb19e2b","status":"finished","class":{"system":"http://terminology.hl7.org/CodeSystem/v3-ActCode","code":"IMP","display":"inpatient encounter"},"type":[{"coding":[{"system":"http://terminology.hl7.org/CodeSystem/encounter-type","code":"OKI"}]}],"subject":{"reference":"Patient/d54e0522-67fd-4f28-84f5-8701a2ba3369"},"period":{"start":"2022-01-15T00:00:00+00:00","end":"2022-01-18T00:00:00+00:00"}},"request":{"method":"POST","url":"Encounter"}},{"fullUrl":"Patient/3c6bb96b-ef02-45b8-b24d-c13fe5dd4b92","resource":{"resourceType":"Patient","id":"3c6bb96b-ef02-45b8-b24d-c13fe5dd4b92","identifier":[{"type":{"coding":[{"system":"http://terminology.hl7.org/CodeSystem/v2-0203","code":"MR"}]},"system":"urn:fhirgen:mrn","value":"493-59-7761"}],"name":[{"use":"official","family":"Cook","given":["Whitney"]},{"use":"maiden","family":"Booth"}],"telecom":[{"system":"phone","value":"001-203-715-7981x3372","use":"work"},{"system":"email","value":"michellewyatt@hotmail.com","use":"mobile"}],"gender":"female","birthDate":"1974-01-11","address":[{"use":"home","line":["95269 Barker Alley Apt. 456"],"city":"South Stacey","state":"CO","postalCode":"02919"},{"use":"old","line":["291 Mark Manor Apt. 132"],"city":"South Marie","state":"OH","postalCode":"36366"}]},"request":{"method":"POST","url":"Patient"}},{"fullUrl":"Observation/74ad8403-199c-49d1-bf0a-a6cb6ad59ef0","resource":{"resourceType":"Observation","id":"74ad8403-199c-49d1-bf0a-a6cb6ad59ef0","status":"final","code":{"coding":[{"system":"http://loinc.org","code":"46203-6"}]},"subject":{"reference":"Patient/3c6bb96b-ef02-45b8-b24d-c13fe5dd4b92"},"effectiveDateTime":"2022-03-04T00:00:00+00:00","valueRatio":{"numerator":{"value":1},"denominator":{"value":4}}},"request":{"method":"POST","url":"Observation"}},{"fullUrl":"Observation/877f10ab-b0b7-4699-89bd-8aa20a1c6396","resource":{"resourceType":"Observation","id":"877f10ab-b0b7-4699-89bd-8aa20a1c6396","status":"final","code":{"coding":[{"system":"http://loinc.org","code":"51475-2"}]},"subject":{"reference":"Patient/3c6bb96b-ef02-45b8-b24d-c13fe5dd4b92"},"effectiveDateTime":"2022-06-06T00:00:00+00:00","valueRatio":{"numerator":{"value":1},"denominator":{"value":32}}},"request":{"method":"POST","url":"Observation"}},{"fullUrl":"Observation/778d9cba-3be5-4386-98a5-5cff9a5d957a","resource":{"resourceType":"Observation","id":"778d9cba-3be5-4386-98a5-5cff9a5d957a","status":"final","code":{"coding":[{"system":"http://loinc.org","code":"47476-7"}]},"subject":{"reference":"Patient/3c6bb96b-ef02-45b8-b24d-c13fe5dd4b92"},"effectiveDateTime":"2022-01-04T00:00:00+00:00","valueRatio":{"numerator":{"value":1},"denominator":{"value":4}}},"request":{"method":"POST","url":"Observation"}},{"fullUrl":"Condition/aa616bbd-6728-4aa0-a155-9cab2ea5fffb","resource":{"resourceType":"Condition","id":"aa616bbd-6728-4aa0-a155-9cab2ea5fffb","code":{"coding":[{"system":"http://snomed.info/sct","code":"44882003"}]},"subject":{"reference":"Patient/3c6bb96b-ef02-45b8-b24d-c13fe5dd4b92"},"onsetDateTime":"2022-10-16T00:00:00+00:00"},"request":{"method":"POST","url":"Condition"}},{"fullUrl":"Condition/163d4032-77bf-465a-b14b-07a0a5ef9844","resource":{"resourceType":"Condition","id":"163d4032-77bf-465a-b14b-07a0a5ef9844","code":{"coding":[{"system":"http://snomed.info/sct","code":"386661006"}]},"subject":{"reference":"Patient/3c6bb96b-ef02-45b8-b24d-c13fe5dd4b92"},"onsetDateTime":"2022-10-27T00:00:00+00:00"},"request":{"method":"POST","url":"Condition"}},{"fullUrl":"Condition/7eec4c91-db95-4710-be21-4a0ba992750d","resource":{"resourceType":"Condition","id":"7eec4c91-db95-4710-be21-4a0ba992750d","code":{"coding":[{"system":"http://snomed.info/sct","code":"271807003"}]},"subject":{"reference":"Patient/3c6bb96b-ef02-45b8-b24d-c13fe5dd4b92"},"onsetDateTime":"2022-05-17T00:00:00+00:00"},"request":{"method":"POST","url":"Condition"}},{"fullUrl":"Condition/25faa12e-ea15-4a6b-9a7f-f620214a2deb","resource":{"resourceType":"Condition","id":"25faa12e-ea15-4a6b-9a7f-f620214a2deb","code":{"coding":[{"system":"http://snomed.info/sct","code":"709977002"}]},"subject":{"reference":"Patient/3c6bb96b-ef02-45b8-b24d-c13fe5dd4b92"},"onsetDateTime":"2022-12-17T00:00:00+00:00"},"request":{"method":"POST","url":"Condition"}},{"fullUrl":"Condition/07090f75-cadf-467b-9ab4-cb5e218ebd37","resource":{"resourceType":"Condition","id":"07090f75-cadf-467b-9ab4-cb5e218ebd37","code":{"coding":[{"system":"http://snomed.info/sct","code":"709977002"}]},"subject":{"reference":"Patient/3c6bb96b-ef02-45b8-b24d-c13fe5dd4b92"},"onsetDateTime":"2022-03-20T00:00:00+00:00"},"request":{"method":"POST","url":"Condition"}},{"fullUrl":"Condition/ec28c770-bae5-41ca-aa11-4c2a05626508","resource":{"resourceType":"Condition","id":"ec28c770-bae5-41ca-aa11-4c2a05626508","code":{"coding":[{"system":"http://snomed.info/sct","code":"79342006"}]},"subject":{"reference":"Patient/3c6bb96b-ef02-45b8-b24d-c13fe5dd4b92"},"onsetDateTime":"2022-04-29T00:00:00+00:00"},"request":{"method":"POST","url":"Condition"}},{"fullUrl":"Condition/09eb4b10-6438-40f3-8a49-bbeb08b1adfd","resource":{"resourceType":"Condition","id":"09eb4b10-6438-40f3-8a49-bbeb08b1adfd","code":{"coding":[{"system":"http://snomed.info/sct","code":"21522001"}]},"subject":{"reference":"Patient/3c6bb96b-ef02-45b8-b24d-c13fe5dd4b92"},"onsetDateTime":"2022-02-09T00:00:00+00:00"},"request":{"method":"POST","url":"Condition"}},{"fullUrl":"Observation/9c91fbae-85f3-4387-b7b2-f7d545caf248","resource":{"resourceType":"Observation","id":"9c91fbae-85f3-4387-b7b2-f7d545caf248","status":"final","code":{"coding":[{"system":"http://loinc.org","code":"6690-2"}]},"subject":{"reference":"Patient/3c6bb96b-ef02-45b8-b24d-c13fe5dd4b92"},"effectiveDateTime":"2022-12-05T00:00:00+00:00","valueQuantity":{"value":9.8}},"request":{"method":"POST","url":"Observation"}},{"fullUrl":"Observation/761a76de-bc44-4390-a12e-5c19a35a73a0","resource":{"resourceType":"Observation","id":"761a76de-bc44-4390-a12e-5c19a35a73a0","status":"final","code":{"coding":[{"system":"http://loinc.org","code":"804-5"}]},"subject":{"reference":"Patient/3c6bb96b-ef02-45b8-b24d-c13fe5dd4b92"},"effectiveDateTime":"2022-06-10T00:00:00+00:00","valueQuantity":{"value":4.3}},"request":{"method":"POST","url":"Observation"}},{"fullUrl":"Observation/2b9bb997-ad9a-4552-afd6-f82f08ec056e","resource":{"resourceType":"Observation","id":"2b9bb997-ad9a-4552-afd6-f82f08ec056e","status":"final","code":{"coding":[{"system":"http://loinc.org","code":"6690-2"}]},"subject":{"reference":"Patient/3c6bb96b-ef02-45b8-b24d-c13fe5dd4b92"},"effectiveDateTime":"2022-01-11T00:00:00+00:00","valueCodeableConcept":{"coding":[{"system":"snomed","code":"123456","display":"fake snomed"}]}},"request":{"method":"POST","url":"Observation"}},{"fullUrl":"Observation/36d9f5fe-a40f-47b8-8da4-5ba3d192d593","resource":{"resourceType":"Observation","id":"36d9f5fe-a40f-47b8-8da4-5ba3d192d593","status":"final","code":{"coding":[{"system":"http://loinc.org","code":"49498-9"}]},"subject":{"reference":"Patient/3c6bb96b-ef02-45b8-b24d-c13fe5dd4b92"},"effectiveDateTime":"2022-04-06T00:00:00+00:00","valueCodeableConcept":{"coding":[{"system":"snomed","code":"123456","display":"fake snomed"}]}},"request":{"method":"POST","url":"Observation"}},{"fullUrl":"Observation/949047c5-7f31-40a2-9d0d-88f068a6402e","resource":{"resourceType":"Observation","id":"949047c5-7f31-40a2-9d0d-88f068a6402e","status":"final","code":{"coding":[{"system":"http://loinc.org","code":"49498-9"}]},"subject":{"reference":"Patient/3c6bb96b-ef02-45b8-b24d-c13fe5dd4b92"},"effectiveDateTime":"2022-08-14T00:00:00+00:00"},"request":{"method":"POST","url":"Observation"}},{"fullUrl":"Observation/a068dbac-3652-4a77-84f7-9dce35117225","resource":{"resourceType":"Observation","id":"a068dbac-3652-4a77-84f7-9dce35117225","status":"final","code":{"coding":[{"system":"http://loinc.org","code":"49498-9"}]},"subject":{"reference":"Patient/3c6bb96b-ef02-45b8-b24d-c13fe5dd4b92"},"effectiveDateTime":"2022-07-16T00:00:00+00:00"},"request":{"method":"POST","url":"Observation"}},{"fullUrl":"Procedure/7724484a-5236-4a4d-b8e0-988a536215a9","resource":{"resourceType":"Procedure","id":"7724484a-5236-4a4d-b8e0-988a536215a9","status":"completed","code":{"coding":[{"system":"http://snomed.info/sct","code":"146005"}]},"subject":{"reference":"Patient/3c6bb96b-ef02-45b8-b24d-c13fe5dd4b92"},"performedDateTime":"2022-07-05T00:00:00+00:00"},"request":{"method":"POST","url":"Procedure"}},{"fullUrl":"Procedure/21b701b5-248f-442d-adf1-89364b1c4646","resource":{"resourceType":"Procedure","id":"21b701b5-248f-442d-adf1-89364b1c4646","status":"completed","code":{"coding":[{"system":"http://snomed.info/sct","code":"104001"}]},"subject":{"reference":"Patient/3c6bb96b-ef02-45b8-b24d-c13fe5dd4b92"},"performedDateTime":"2022-12-26T00:00:00+00:00"},"request":{"method":"POST","url":"Procedure"}},{"fullUrl":"Procedure/1e9cbff9-68fb-4240-b848-e6de79000568","resource":{"resourceType":"Procedure","id":"1e9cbff9-68fb-4240-b848-e6de79000568","status":"completed","code":{"coding":[{"system":"http://snomed.info/sct","code":"115006"}]},"subject":{"reference":"Patient/3c6bb96b-ef02-45b8-b24d-c13fe5dd4b92"},"performedDateTime":"2022-09-01T00:00:00+00:00"},"request":{"method":"POST","url":"Procedure"}},{"fullUrl":"MedicationStatement/6ea736fe-a93e-40b4-adb7-bf85f9be4dbe","resource":{"resourceType":"MedicationStatement","id":"6ea736fe-a93e-40b4-adb7-bf85f9be4dbe","status":"completed","medicationCodeableConcept":{"coding":[{"system":"http://www.nlm.nih.gov/research/umls/rxnorm","code":"2193"}]},"subject":{"reference":"Patient/3c6bb96b-ef02-45b8-b24d-c13fe5dd4b92"},"effectiveDateTime":"2022-09-11T00:00:00+00:00","dosage":[{"doseAndRate":[{"doseQuantity":{"value":2,"unit":"TAB","system":"http://terminology.hl7.org/CodeSystem/v3-orderableDrugForm","code":"TAB"}}]}]},"request":{"method":"POST","url":"MedicationStatement"}},{"fullUrl":"MedicationStatement/06c3f0e8-3111-4ec0-b6ff-c631643860b1","resource":{"resourceType":"MedicationStatement","id":"06c3f0e8-3111-4ec0-b6ff-c631643860b1","status":"completed","medicationCodeableConcept":{"coding":[{"system":"http://www.nlm.nih.gov/research/umls/rxnorm","code":"3640"}]},"subject":{"reference":"Patient/3c6bb96b-ef02-45b8-b24d-c13fe5dd4b92"},"effectiveDateTime":"2022-05-06T00:00:00+00:00","dosage":[{"doseAndRate":[{"doseQuantity":{"value":2,"unit":"TAB","system":"http://terminology.hl7.org/CodeSystem/v3-orderableDrugForm","code":"TAB"}}]}]},"request":{"method":"POST","url":"MedicationStatement"}},{"fullUrl":"MedicationStatement/087f6b36-7c5b-466b-b464-82155fc57004","resource":{"resourceType":"MedicationStatement","id":"087f6b36-7c5b-466b-b464-82155fc57004","status":"completed","medicationCodeableConcept":{"coding":[{"system":"http://www.nlm.nih.gov/research/umls/rxnorm","code":"2193"}]},"subject":{"reference":"Patient/3c6bb96b-ef02-45b8-b24d-c13fe5dd4b92"},"effectiveDateTime":"2022-12-27T00:00:00+00:00","dosage":[{"doseAndRate":[{"doseQuantity":{"value":2,"unit":"TAB","system":"http://terminology.hl7.org/CodeSystem/v3-orderableDrugForm","code":"TAB"}}]}]},"request":{"method":"POST","url":"MedicationStatement"}},{"fullUrl":"MedicationStatement/cb53daf5-c4bb-4c46-bbe8-315e613f845a","resource":{"resourceType":"MedicationStatement","id":"cb53daf5-c4bb-4c46-bbe8-315e613f845a","status":"completed","medicationCodeableConcept":{"coding":[{"system":"http://www.nlm.nih.gov/research/umls/rxnorm","code":"3640"}]},"subject":{"reference":"Patient/3c6bb96b-ef02-45b8-b24d-c13fe5dd4b92"},"effectiveDateTime":"2022-11-26T00:00:00+00:00","dosage":[{"doseAndRate":[{"doseQuantity":{"value":2,"unit":"TAB","system":"http://terminology.hl7.org/CodeSystem/v3-orderableDrugForm","code":"TAB"}}]}]},"request":{"method":"POST","url":"MedicationStatement"}},{"fullUrl":"MedicationStatement/c0cc7c40-fbc0-4d21-96de-7aad2d1f61ef","resource":{"resourceType":"MedicationStatement","id":"c0cc7c40-fbc0-4d21-96de-7aad2d1f61ef","status":"completed","medicationCodeableConcept":{"coding":[{"system":"http://www.nlm.nih.gov/research/umls/rxnorm","code":"7984"}]},"subject":{"reference":"Patient/3c6bb96b-ef02-45b8-b24d-c13fe5dd4b92"},"effectiveDateTime":"2022-05-09T00:00:00+00:00","dosage":[{"doseAndRate":[{"doseQuantity":{"value":1,"unit":"TAB","system":"http://terminology.hl7.org/CodeSystem/v3-orderableDrugForm","code":"TAB"}}]}]},"request":{"method":"POST","url":"MedicationStatement"}},{"fullUrl":"MedicationStatement/5b152c6b-e8e4-480f-b731-87f4b97eb551","resource":{"resourceType":"MedicationStatement","id":"5b152c6b-e8e4-480f-b731-87f4b97eb551","status":"completed","medicationCodeableConcept":{"coding":[{"system":"http://www.nlm.nih.gov/research/umls/rxnorm","code":"10395"}]},"subject":{"reference":"Patient/3c6bb96b-ef02-45b8-b24d-c13fe5dd4b92"},"effectiveDateTime":"2022-10-12T00:00:00+00:00","dosage":[{"doseAndRate":[{"doseQuantity":{"value":2,"unit":"TAB","system":"http://terminology.hl7.org/CodeSystem/v3-orderableDrugForm","code":"TAB"}}]}]},"request":{"method":"POST","url":"MedicationStatement"}},{"fullUrl":"MedicationStatement/aa055f2a-f493-415a-ae53-414776a72adc","resource":{"resourceType":"MedicationStatement","id":"aa055f2a-f493-415a-ae53-414776a72adc","status":"completed","medicationCodeableConcept":{"coding":[{"system":"http://www.nlm.nih.gov/research/umls/rxnorm","code":"18631"}]},"subject":{"reference":"Patient/3c6bb96b-ef02-45b8-b24d-c13fe5dd4b92"},"effectiveDateTime":"2022-06-17T00:00:00+00:00","dosage":[{"doseAndRate":[{"doseQuantity":{"value":5.4,"unit":"TAB","system":"http://terminology.hl7.org/CodeSystem/v3-orderableDrugForm","code":"TAB"}}]}]},"request":{"method":"POST","url":"MedicationStatement"}},{"fullUrl":"MedicationStatement/f8ee277a-5b0c-4183-a385-3e315966b4c7","resource":{"resourceType":"MedicationStatement","id":"f8ee277a-5b0c-4183-a385-3e315966b4c7","status":"completed","medicationCodeableConcept":{"coding":[{"system":"http://www.nlm.nih.gov/research/umls/rxnorm","code":"2193"}]},"subject":{"reference":"Patient/3c6bb96b-ef02-45b8-b24d-c13fe5dd4b92"},"effectiveDateTime":"2022-07-08T00:00:00+00:00","dosage":[{"doseAndRate":[{"doseQuantity":{"value":4.1,"unit":"TAB","system":"http://terminology.hl7.org/CodeSystem/v3-orderableDrugForm","code":"TAB"}}]}]},"request":{"method":"POST","url":"MedicationStatement"}},{"fullUrl":"MedicationStatement/a5719b47-ce3d-49c5-aeef-6e519501b9ed","resource":{"resourceType":"MedicationStatement","id":"a5719b47-ce3d-49c5-aeef-6e519501b9ed","status":"completed","medicationCodeableConcept":{"coding":[{"system":"http://www.nlm.nih.gov/research/umls/rxnorm","code":"3640"}]},"subject":{"reference":"Patient/3c6bb96b-ef02-45b8-b24d-c13fe5dd4b92"},"effectiveDateTime":"2022-12-02T00:00:00+00:00","dosage":[{"doseAndRate":[{"doseQuantity":{"value":4.9,"unit":"TAB","system":"http://terminology.hl7.org/CodeSystem/v3-orderableDrugForm","code":"TAB"}}]}]},"request":{"method":"POST","url":"MedicationStatement"}},{"fullUrl":"MedicationStatement/de32df04-49e4-47a5-9720-0cd2ad3a2f67","resource":{"resourceType":"MedicationStatement","id":"de32df04-49e4-47a5-9720-0cd2ad3a2f67","status":"completed","medicationCodeableConcept":{"coding":[{"system":"http://www.nlm.nih.gov/research/umls/rxnorm","code":"7980"}]},"subject":{"reference":"Patient/3c6bb96b-ef02-45b8-b24d-c13fe5dd4b92"},"effectiveDateTime":"2022-10-21T00:00:00+00:00","dosage":[{"doseAndRate":[{"doseQuantity":{"value":6.2,"unit":"TAB","system":"http://terminology.hl7.org/CodeSystem/v3-orderableDrugForm","code":"TAB"}}]}]},"request":{"method":"POST","url":"MedicationStatement"}},{"fullUrl":"MedicationStatement/2b174566-e1cc-42ce-95d0-2df8943a39b9","resource":{"resourceType":"MedicationStatement","id":"2b174566-e1cc-42ce-95d0-2df8943a39b9","status":"completed","medicationCodeableConcept":{"coding":[{"system":"http://www.nlm.nih.gov/research/umls/rxnorm","code":"2193"}]},"subject":{"reference":"Patient/3c6bb96b-ef02-45b8-b24d-c13fe5dd4b92"},"effectiveDateTime":"2022-11-20T00:00:00+00:00","dosage":[{"doseAndRate":[{"doseQuantity":{"value":4,"unit":"TAB","system":"http://terminology.hl7.org/CodeSystem/v3-orderableDrugForm","code":"TAB"}}]}]},"request":{"method":"POST","url":"MedicationStatement"}},{"fullUrl":"MedicationStatement/7c29ecb2-8a1a-4194-b016-02da3bcc9245","resource":{"resourceType":"MedicationStatement","id":"7c29ecb2-8a1a-4194-b016-02da3bcc9245","status":"completed","medicationCodeableConcept":{"coding":[{"system":"http://www.nlm.nih.gov/research/umls/rxnorm","code":"8698"}]},"subject":{"reference":"Patient/3c6bb96b-ef02-45b8-b24d-c13fe5dd4b92"},"effectiveDateTime":"2022-02-23T00:00:00+00:00","dosage":[{"doseAndRate":[{"doseQuantity":{"value":4.8,"unit":"TAB","system":"http://terminology.hl7.org/CodeSystem/v3-orderableDrugForm","code":"TAB"}}]}]},"request":{"method":"POST","url":"MedicationStatement"}},{"fullUrl":"MedicationStatement/f88afe67-e0d1-4005-853a-33ca3170ddfd","resource":{"resourceType":"MedicationStatement","id":"f88afe67-e0d1-4005-853a-33ca3170ddfd","status":"completed","medicationCodeableConcept":{"coding":[{"system":"http://www.nlm.nih.gov/research/umls/rxnorm","code":"10395"}]},"subject":{"reference":"Patient/3c6bb96b-ef02-45b8-b24d-c13fe5dd4b92"},"effectiveDateTime":"2022-07-10T00:00:00+00:00","dosage":[{"doseAndRate":[{"doseQuantity":{"value":4.4,"unit":"TAB","system":"http://terminology.hl7.org/CodeSystem/v3-orderableDrugForm","code":"TAB"}}]}]},"request":{"method":"POST","url":"MedicationStatement"}},{"fullUrl":"Encounter/d7cd3763-5d98-44f0-a4c9-2359e22430e0","resource":{"resourceType":"Encounter","id":"d7cd3763-5d98-44f0-a4c9-2359e22430e0","status":"finished","class":{"system":"http://terminology.hl7.org/CodeSystem/v3-ActCode","code":"IMP","display":"inpatient encounter"},"type":[{"coding":[{"system":"http://terminology.hl7.org/CodeSystem/encounter-type","code":"OKI"}]}],"subject":{"reference":"Patient/3c6bb96b-ef02-45b8-b24d-c13fe5dd4b92"},"period":{"start":"2022-12-21T00:00:00+00:00","end":"2022-12-29T00:00:00+00:00"}},"request":{"method":"POST","url":"Encounter"}},{"fullUrl":"Encounter/00242ee7-5334-47a7-b06f-7a5cb4e5b38a","resource":{"resourceType":"Encounter","id":"00242ee7-5334-47a7-b06f-7a5cb4e5b38a","status":"finished","class":{"system":"http://terminology.hl7.org/CodeSystem/v3-ActCode","code":"IMP","display":"inpatient encounter"},"type":[{"coding":[{"system":"http://terminology.hl7.org/CodeSystem/encounter-type","code":"BD/BM-clin"}]}],"subject":{"reference":"Patient/3c6bb96b-ef02-45b8-b24d-c13fe5dd4b92"},"period":{"start":"2022-05-05T00:00:00+00:00","end":"2022-05-06T00:00:00+00:00"}},"request":{"method":"POST","url":"Encounter"}},{"fullUrl":"Encounter/1928145f-3570-45d3-a323-68e9561dbe48","resource":{"resourceType":"Encounter","id":"1928145f-3570-45d3-a323-68e9561dbe48","status":"finished","class":{"system":"http://terminology.hl7.org/CodeSystem/v3-ActCode","code":"FLD","display":"field"},"type":[{"coding":[{"system":"http://terminology.hl7.org/CodeSystem/encounter-type","code":"ADMS"}]}],"subject":{"reference":"Patient/3c6bb96b-ef02-45b8-b24d-c13fe5dd4b92"},"period":{"start":"2022-06-09T00:00:00+00:00","end":"2022-06-17T00:00:00+00:00"}},"request":{"method":"POST","url":"Encounter"}},{"fullUrl":"Encounter/f368f357-3d36-4874-aa8b-c29cf269758e","resource":{"resourceType":"Encounter","id":"f368f357-3d36-4874-aa8b-c29cf269758e","status":"finished","class":{"system":"http://terminology.hl7.org/CodeSystem/v3-ActCode","code":"ACUTE","display":"inpatient acute"},"type":[{"coding":[{"system":"http://terminology.hl7.org/CodeSystem/encounter-type","code":"ADMS"}]}],"subject":{"reference":"Patient/3c6bb96b-ef02-45b8-b24d-c13fe5dd4b92"},"period":{"start":"2022-01-30T00:00:00+00:00","end":"2022-01-31T00:00:00+00:00"}},"request":{"method":"POST","url":"Encounter"}},{"fullUrl":"Encounter/2ea83b5b-5374-40ba-8794-ab62abcc900c","resource":{"resourceType":"Encounter","id":"2ea83b5b-5374-40ba-8794-ab62abcc900c","status":"finished","class":{"system":"http://terminology.hl7.org/CodeSystem/v3-ActCode","code":"FLD","display":"field"},"type":[{"coding":[{"system":"http://terminology.hl7.org/CodeSystem/encounter-type","code":"ADMS"}]}],"subject":{"reference":"Patient/3c6bb96b-ef02-45b8-b24d-c13fe5dd4b92"},"period":{"start":"2022-07-12T00:00:00+00:00","end":"2022-07-21T00:00:00+00:00"}},"request":{"method":"POST","url":"Encounter"}},{"fullUrl":"Patient/4e61c998-3d47-4093-b9e0-79e7fae13bc2","resource":{"resourceType":"Patient","id":"4e61c998-3d47-4093-b9e0-79e7fae13bc2","identifier":[{"type":{"coding":[{"system":"http://terminology.hl7.org/CodeSystem/v2-0203","code":"MR"}]},"system":"urn:fhirgen:mrn","value":"166-14-2494"}],"name":[{"use":"official","family":"Curtis","given":["Deanna"]},{"use":"maiden","family":"Gonzales"}],"telecom":[{"system":"phone","value":"3320411130","use":"home"},{"system":"email","value":"brooksvincent@hotmail.com","use":"work"}],"gender":"female","birthDate":"1948-11-30","address":[{"use":"home","line":["94682 Mario Springs Suite 779"],"city":"Joelside","state":"CT","postalCode":"32376"},{"use":"old","line":["53124 Hughes Junctions Apt. 252"],"city":"Tamaramouth","state":"MI","postalCode":"60820"}]},"request":{"method":"POST","url":"Patient"}},{"fullUrl":"Observation/c1f4a7d9-d211-44d9-b520-4217e8267713","resource":{"resourceType":"Observation","id":"c1f4a7d9-d211-44d9-b520-4217e8267713","status":"final","code":{"coding":[{"system":"http://loinc.org","code":"47235-7"}]},"subject":{"reference":"Patient/4e61c998-3d47-4093-b9e0-79e7fae13bc2"},"effectiveDateTime":"2022-06-10T00:00:00+00:00","valueRatio":{"numerator":{"value":1},"denominator":{"value":64}}},"request":{"method":"POST","url":"Observation"}},{"fullUrl":"Observation/514a5a64-0e9d-4eb7-8eaf-6fcdf0ca4dac","resource":{"resourceType":"Observation","id":"514a5a64-0e9d-4eb7-8eaf-6fcdf0ca4dac","status":"final","code":{"coding":[{"system":"http://loinc.org","code":"26009-1"}]},"subject":{"reference":"Patient/4e61c998-3d47-4093-b9e0-79e7fae13bc2"},"effectiveDateTime":"2022-06-19T00:00:00+00:00","valueRatio":{"numerator":{"value":1},"denominator":{"value":32}}},"request":{"method":"POST","url":"Observation"}},{"fullUrl":"Condition/c94453a3-d273-4968-ba10-4894b52f9212","resource":{"resourceType":"Condition","id":"c94453a3-d273-4968-ba10-4894b52f9212","code":{"coding":[{"system":"http://snomed.info/sct","code":"386661006"}]},"subject":{"reference":"Patient/4e61c998-3d47-4093-b9e0-79e7fae13bc2"},"onsetDateTime":"2022-07-16T00:00:00+00:00"},"request":{"method":"POST","url":"Condition"}},{"fullUrl":"Condition/aee111db-074c-4dd1-84c3-9686f03a828b","resource":{"resourceType":"Condition","id":"aee111db-074c-4dd1-84c3-9686f03a828b","code":{"coding":[{"system":"http://snomed.info/sct","code":"736686006"}]},"subject":{"reference":"Patient/4e61c998-3d47-4093-b9e0-79e7fae13bc2"},"onsetDateTime":"2022-05-02T00:00:00+00:00"},"request":{"method":"POST","url":"Condition"}},{"fullUrl":"Condition/7fa2e707-6c81-4aff-8e9d-a32d90b6b150","resource":{"resourceType":"Condition","id":"7fa2e707-6c81-4aff-8e9d-a32d90b6b150","code":{"coding":[{"system":"http://snomed.info/sct","code":"18165001"}]},"subject":{"reference":"Patient/4e61c998-3d47-4093-b9e0-79e7fae13bc2"},"onsetDateTime":"2022-02-19T00:00:00+00:00"},"request":{"method":"POST","url":"Condition"}},{"fullUrl":"Condition/2169138b-22db-4bc2-ab88-1a994a092d27","resource":{"resourceType":"Condition","id":"2169138b-22db-4bc2-ab88-1a994a092d27","code":{"coding":[{"system":"http://snomed.info/sct","code":"297123002"}]},"subject":{"reference":"Patient/4e61c998-3d47-4093-b9e0-79e7fae13bc2"},"onsetDateTime":"2022-05-12T00:00:00+00:00"},"request":{"method":"POST","url":"Condition"}},{"fullUrl":"Condition/81a135f0-2876-4d4f-a47b-37a2050b51af","resource":{"resourceType":"Condition","id":"81a135f0-2876-4d4f-a47b-37a2050b51af","code":{"coding":[{"system":"http://snomed.info/sct","code":"198199009"}]},"subject":{"reference":"Patient/4e61c998-3d47-4093-b9e0-79e7fae13bc2"},"onsetDateTime":"2022-10-10T00:00:00+00:00"},"request":{"method":"POST","url":"Condition"}},{"fullUrl":"Condition/5276a89b-02c2-44ff-8eb6-220e9f7a101d","resource":{"resourceType":"Condition","id":"5276a89b-02c2-44ff-8eb6-220e9f7a101d","code":{"coding":[{"system":"http://snomed.info/sct","code":"386661006"}]},"subject":{"reference":"Patient/4e61c998-3d47-4093-b9e0-79e7fae13bc2"},"onsetDateTime":"2022-12-26T00:00:00+00:00"},"request":{"method":"POST","url":"Condition"}},{"fullUrl":"Condition/ab067192-08ee-4369-b993-f6882e79ad62","resource":{"resourceType":"Condition","id":"ab067192-08ee-4369-b993-f6882e79ad62","code":{"coding":[{"system":"http://snomed.info/sct","code":"418290006"}]},"subject":{"reference":"Patient/4e61c998-3d47-4093-b9e0-79e7fae13bc2"},"onsetDateTime":"2022-07-28T00:00:00+00:00"},"request":{"method":"POST","url":"Condition"}},{"fullUrl":"Condition/2d8a6f04-5c6e-4ab1-b962-188ea08af972","resource":{"resourceType":"Condition","id":"2d8a6f04-5c6e-4ab1-b962-188ea08af972","code":{"coding":[{"system":"http://snomed.info/sct","code":"418290006"}]},"subject":{"reference":"Patient/4e61c998-3d47-4093-b9e0-79e7fae13bc2"},"onsetDateTime":"2022-03-01T00:00:00+00:00"},"request":{"method":"POST","url":"Condition"}},{"fullUrl":"Observation/f2644952-21ca-41ca-8f6e-6ec7d3e3a67f","resource":{"resourceType":"Observation","id":"f2644952-21ca-41ca-8f6e-6ec7d3e3a67f","status":"final","code":{"coding":[{"system":"http://loinc.org","code":"6690-2"}]},"subject":{"reference":"Patient/4e61c998-3d47-4093-b9e0-79e7fae13bc2"},"effectiveDateTime":"2022-07-09T00:00:00+00:00","valueQuantity":{"value":4.9}},"request":{"method":"POST","url":"Observation"}},{"fullUrl":"Observation/85a95ad5-d643-4de0-8552-e3a3ceaf5870","resource":{"resourceType":"Observation","id":"85a95ad5-d643-4de0-8552-e3a3ceaf5870","status":"final","code":{"coding":[{"system":"http://www.ama-assn.org/go/cpt","code":"85048"}]},"subject":{"reference":"Patient/4e61c998-3d47-4093-b9e0-79e7fae13bc2"},"effectiveDateTime":"2022-02-12T00:00:00+00:00","valueQuantity":{"value":7.1}},"request":{"method":"POST","url":"Observation"}},{"fullUrl":"Observation/6d11dfe0-8ea9-4878-8650-5b14b91d2994","resource":{"resourceType":"Observation","id":"6d11dfe0-8ea9-4878-8650-5b14b91d2994","status":"final","code":{"coding":[{"system":"http://loinc.org","code":"6690-2"}]},"subject":{"reference":"Patient/4e61c998-3d47-4093-b9e0-79e7fae13bc2"},"effectiveDateTime":"2022-02-13T00:00:00+00:00","valueQuantity":{"value":7.4}},"request":{"method":"POST","url":"Observation"}},{"fullUrl":"Observation/cab61693-7f14-40c4-a528-5b3ffd0e7b4b","resource":{"resourceType":"Observation","id":"cab61693-7f14-40c4-a528-5b3ffd0e7b4b","status":"final","code":{"coding":[{"system":"http://loinc.org","code":"26464-8"}]},"subject":{"reference":"Patient/4e61c998-3d47-4093-b9e0-79e7fae13bc2"},"effectiveDateTime":"2022-06-20T00:00:00+00:00","valueCodeableConcept":{"coding":[{"system":"snomed","code":"123456","display":"fake snomed"}]}},"request":{"method":"POST","url":"Observation"}},{"fullUrl":"Observation/abe37ffc-c061-4f19-8eeb-b2b8fd7c0897","resource":{"resourceType":"Observation","id":"abe37ffc-c061-4f19-8eeb-b2b8fd7c0897","status":"final","code":{"coding":[{"system":"http://loinc.org","code":"6690-2"}]},"subject":{"reference":"Patient/4e61c998-3d47-4093-b9e0-79e7fae13bc2"},"effectiveDateTime":"2022-07-02T00:00:00+00:00","valueCodeableConcept":{"coding":[{"system":"snomed","code":"123456","display":"fake snomed"}]}},"request":{"method":"POST","url":"Observation"}},{"fullUrl":"Observation/3ca8381d-9423-4b38-96d7-7b28bde10f59","resource":{"resourceType":"Observation","id":"3ca8381d-9423-4b38-96d7-7b28bde10f59","status":"final","code":{"coding":[{"system":"http://loinc.org","code":"26464-8"}]},"subject":{"reference":"Patient/4e61c998-3d47-4093-b9e0-79e7fae13bc2"},"effectiveDateTime":"2022-02-10T00:00:00+00:00","valueCodeableConcept":{"coding":[{"system":"snomed","code":"123456","display":"fake snomed"}]}},"request":{"method":"POST","url":"Observation"}},{"fullUrl":"Observation/8954d328-6518-4d10-92ef-7bf070e0d67a","resource":{"resourceType":"Observation","id":"8954d328-6518-4d10-92ef-7bf070e0d67a","status":"final","code":{"coding":[{"system":"http://loinc.org","code":"49498-9"}]},"subject":{"reference":"Patient/4e61c998-3d47-4093-b9e0-79e7fae13bc2"},"effectiveDateTime":"2022-09-07T00:00:00+00:00"},"request":{"method":"POST","url":"Observation"}},{"fullUrl":"Observation/e549f0e7-55be-49ce-a418-33eaf382fd8d","resource":{"resourceType":"Observation","id":"e549f0e7-55be-49ce-a418-33eaf382fd8d","status":"final","code":{"coding":[{"system":"http://loinc.org","code":"49498-9"}]},"subject":{"reference":"Patient/4e61c998-3d47-4093-b9e0-79e7fae13bc2"},"effectiveDateTime":"2022-01-28T00:00:00+00:00"},"request":{"method":"POST","url":"Observation"}},{"fullUrl":"Observation/67209c0c-2eea-420e-86ed-0d3a566aedb1","resource":{"resourceType":"Observation","id":"67209c0c-2eea-420e-86ed-0d3a566aedb1","status":"final","code":{"coding":[{"system":"http://loinc.org","code":"49498-9"}]},"subject":{"reference":"Patient/4e61c998-3d47-4093-b9e0-79e7fae13bc2"},"effectiveDateTime":"2022-10-20T00:00:00+00:00"},"request":{"method":"POST","url":"Observation"}},{"fullUrl":"Procedure/d7a8e80f-fc0b-40c6-a607-40bb879d9075","resource":{"resourceType":"Procedure","id":"d7a8e80f-fc0b-40c6-a607-40bb879d9075","status":"completed","code":{"coding":[{"system":"http://snomed.info/sct","code":"647000"}]},"subject":{"reference":"Patient/4e61c998-3d47-4093-b9e0-79e7fae13bc2"},"performedDateTime":"2022-06-18T00:00:00+00:00"},"request":{"method":"POST","url":"Procedure"}},{"fullUrl":"Procedure/8d347d5f-6dac-4399-a169-d011e66788f5","resource":{"resourceType":"Procedure","id":"8d347d5f-6dac-4399-a169-d011e66788f5","status":"completed","code":{"coding":[{"system":"http://snomed.info/sct","code":"647000"}]},"subject":{"reference":"Patient/4e61c998-3d47-4093-b9e0-79e7fae13bc2"},"performedDateTime":"2022-05-25T00:00:00+00:00"},"request":{"method":"POST","url":"Procedure"}},{"fullUrl":"Procedure/b2d18545-7541-4c6e-9b28-941252b1d14b","resource":{"resourceType":"Procedure","id":"b2d18545-7541-4c6e-9b28-941252b1d14b","status":"completed","code":{"coding":[{"system":"http://snomed.info/sct","code":"104001"}]},"subject":{"reference":"Patient/4e61c998-3d47-4093-b9e0-79e7fae13bc2"},"performedDateTime":"2022-06-11T00:00:00+00:00"},"request":{"method":"POST","url":"Procedure"}},{"fullUrl":"MedicationStatement/e33a966d-c0c6-426e-a26d-cb44fcd103bb","resource":{"resourceType":"MedicationStatement","id":"e33a966d-c0c6-426e-a26d-cb44fcd103bb","status":"completed","medicationCodeableConcept":{"coding":[{"system":"http://www.nlm.nih.gov/research/umls/rxnorm","code":"7984"}]},"subject":{"reference":"Patient/4e61c998-3d47-4093-b9e0-79e7fae13bc2"},"effectiveDateTime":"2022-11-08T00:00:00+00:00","dosage":[{"doseAndRate":[{"doseQuantity":{"value":2,"unit":"TAB","system":"http://terminology.hl7.org/CodeSystem/v3-orderableDrugForm","code":"TAB"}}]}]},"request":{"method":"POST","url":"MedicationStatement"}},{"fullUrl":"MedicationStatement/6fe0660b-323d-4b8c-a06f-006111b4640c","resource":{"resourceType":"MedicationStatement","id":"6fe0660b-323d-4b8c-a06f-006111b4640c","status":"completed","medicationCodeableConcept":{"coding":[{"system":"http://www.nlm.nih.gov/research/umls/rxnorm","code":"2193"}]},"subject":{"reference":"Patient/4e61c998-3d47-4093-b9e0-79e7fae13bc2"},"effectiveDateTime":"2022-08-27T00:00:00+00:00","dosage":[{"doseAndRate":[{"doseQuantity":{"value":2,"unit":"TAB","system":"http://terminology.hl7.org/CodeSystem/v3-orderableDrugForm","code":"TAB"}}]}]},"request":{"method":"POST","url":"MedicationStatement"}},{"fullUrl":"MedicationStatement/3d310693-870e-42cf-9d0c-d93cb1a1314e","resource":{"resourceType":"MedicationStatement","id":"3d310693-870e-42cf-9d0c-d93cb1a1314e","status":"completed","medicationCodeableConcept":{"coding":[{"system":"http://www.nlm.nih.gov/research/umls/rxnorm","code":"8698"}]},"subject":{"reference":"Patient/4e61c998-3d47-4093-b9e0-79e7fae13bc2"},"effectiveDateTime":"2022-05-21T00:00:00+00:00","dosage":[{"doseAndRate":[{"doseQuantity":{"value":1,"unit":"TAB","system":"http://terminology.hl7.org/CodeSystem/v3-orderableDrugForm","code":"TAB"}}]}]},"request":{"method":"POST","url":"MedicationStatement"}},{"fullUrl":"MedicationStatement/516be006-dfe0-4f20-a268-bb27b02a0ef0","resource":{"resourceType":"MedicationStatement","id":"516be006-dfe0-4f20-a268-bb27b02a0ef0","status":"completed","medicationCodeableConcept":{"coding":[{"system":"http://www.nlm.nih.gov/research/umls/rxnorm","code":"18631"}]},"subject":{"reference":"Patient/4e61c998-3d47-4093-b9e0-79e7fae13bc2"},"effectiveDateTime":"2022-06-13T00:00:00+00:00","dosage":[{"doseAndRate":[{"doseQuantity":{"value":3.9,"unit":"TAB","system":"http://terminology.hl7.org/CodeSystem/v3-orderableDrugForm","code":"TAB"}}]}]},"request":{"method":"POST","url":"MedicationStatement"}},{"fullUrl":"MedicationStatement/137c69f7-efec-45ba-9973-12e7ed59c683","resource":{"resourceType":"MedicationStatement","id":"137c69f7-efec-45ba-9973-12e7ed59c683","status":"completed","medicationCodeableConcept":{"coding":[{"system":"http://www.nlm.nih.gov/research/umls/rxnorm","code":"18631"}]},"subject":{"reference":"Patient/4e61c998-3d47-4093-b9e0-79e7fae13bc2"},"effectiveDateTime":"2022-03-08T00:00:00+00:00","dosage":[{"doseAndRate":[{"doseQuantity":{"value":6,"unit":"TAB","system":"http://terminology.hl7.org/CodeSystem/v3-orderableDrugForm","code":"TAB"}}]}]},"request":{"method":"POST","url":"MedicationStatement"}},{"fullUrl":"MedicationStatement/ad808720-fa7e-4f9d-995f-f460477db574","resource":{"resourceType":"MedicationStatement","id":"ad808720-fa7e-4f9d-995f-f460477db574","status":"completed","medicationCodeableConcept":{"coding":[{"system":"http://www.nlm.nih.gov/research/umls/rxnorm","code":"7980"}]},"subject":{"reference":"Patient/4e61c998-3d47-4093-b9e0-79e7fae13bc2"},"effectiveDateTime":"2022-01-21T00:00:00+00:00","dosage":[{"doseAndRate":[{"doseQuantity":{"value":4.7,"unit":"TAB","system":"http://terminology.hl7.org/CodeSystem/v3-orderableDrugForm","code":"TAB"}}]}]},"request":{"method":"POST","url":"MedicationStatement"}},{"fullUrl":"Encounter/696eba2a-2e2a-4e0d-9293-39a520a9bb13","resource":{"resourceType":"Encounter","id":"696eba2a-2e2a-4e0d-9293-39a520a9bb13","status":"finished","class":{"system":"http://terminology.hl7.org/CodeSystem/v3-ActCode","code":"IMP","display":"inpatient encounter"},"type":[{"coding":[{"system":"http://terminology.hl7.org/CodeSystem/encounter-type","code":"ADMS"}]}],"subject":{"reference":"Patient/4e61c998-3d47-4093-b9e0-79e7fae13bc2"},"period":{"start":"2022-10-21T00:00:00+00:00","end":"2022-10-28T00:00:00+00:00"}},"request":{"method":"POST","url":"Encounter"}},{"fullUrl":"Encounter/5659c6b4-f211-4b25-9da7-560225299d53","resource":{"resourceType":"Encounter","id":"5659c6b4-f211-4b25-9da7-560225299d53","status":"finished","class":{"system":"http://terminology.hl7.org/CodeSystem/v3-ActCode","code":"IMP","display":"inpatient encounter"},"type":[{"coding":[{"system":"http://terminology.hl7.org/CodeSystem/encounter-type","code":"OKI"}]}],"subject":{"reference":"Patient/4e61c998-3d47-4093-b9e0-79e7fae13bc2"},"period":{"start":"2022-12-04T00:00:00+00:00","end":"2022-12-05T00:00:00+00:00"}},"request":{"method":"POST","url":"Encounter"}},{"fullUrl":"Encounter/d999f043-8ba8-48d0-b81b-5add1326c3f8","resource":{"resourceType":"Encounter","id":"d999f043-8ba8-48d0-b81b-5add1326c3f8","status":"finished","class":{"system":"http://terminology.hl7.org/CodeSystem/v3-ActCode","code":"AMB","display":"ambulatory"},"type":[{"coding":[{"system":"http://terminology.hl7.org/CodeSystem/encounter-type","code":"CCS60"}]}],"subject":{"reference":"Patient/4e61c998-3d47-4093-b9e0-79e7fae13bc2"},"period":{"start":"2022-08-07T00:00:00+00:00","end":"2022-08-09T00:00:00+00:00"}},"request":{"method":"POST","url":"Encounter"}},{"fullUrl":"Encounter/adb97943-857e-4a38-b1e6-a418f45bff14","resource":{"resourceType":"Encounter","id":"adb97943-857e-4a38-b1e6-a418f45bff14","status":"finished","class":{"system":"http://terminology.hl7.org/CodeSystem/v3-ActCode","code":"ACUTE","display":"inpatient acute"},"type":[{"coding":[{"system":"http://terminology.hl7.org/CodeSystem/encounter-type","code":"BD/BM-clin"}]}],"subject":{"reference":"Patient/4e61c998-3d47-4093-b9e0-79e7fae13bc2"},"period":{"start":"2022-08-14T00:00:00+00:00","end":"2022-08-14T00:00:00+00:00"}},"request":{"method":"POST","url":"Encounter"}},{"fullUrl":"Patient/ffc4d066-84d1-4d2a-8cc4-aa66e3a0c1c1","resource":{"resourceType":"Patient","id":"ffc4d066-84d1-4d2a-8cc4-aa66e3a0c1c1","identifier":[{"type":{"coding":[{"system":"http://terminology.hl7.org/CodeSystem/v2-0203","code":"MR"}]},"system":"urn:fhirgen:mrn","value":"213-23-0409"}],"name":[{"use":"official","family":"Miller","given":["William"]},{"use":"maiden","family":"Espinoza"}],"telecom":[{"system":"phone","value":"+1-070-600-9991","use":"home"},{"system":"email","value":"danielle95@hotmail.com","use":"mobile"}],"gender":"other","birthDate":"1955-12-08","address":[{"use":"home","line":["9571 Roberts Loop"],"city":"New Christina","state":"OH","postalCode":"33562"},{"use":"old","line":["597 Schultz Crossing"],"city":"Morenoville","state":"ND","postalCode":"66392"}]},"request":{"method":"POST","url":"Patient"}},{"fullUrl":"Observation/e997ed33-fdf9-4ecd-b917-1f2c412a6f1b","resource":{"resourceType":"Observation","id":"e997ed33-fdf9-4ecd-b917-1f2c412a6f1b","status":"final","code":{"coding":[{"system":"http://loinc.org","code":"47476-7"}]},"subject":{"reference":"Patient/ffc4d066-84d1-4d2a-8cc4-aa66e3a0c1c1"},"effectiveDateTime":"2022-03-29T00:00:00+00:00","valueRatio":{"numerator":{"value":1},"denominator":{"value":4}}},"request":{"method":"POST","url":"Observation"}},{"fullUrl":"Observation/dda7c240-a525-47de-ad17-fe8c4a233fc7","resource":{"resourceType":"Observation","id":"dda7c240-a525-47de-ad17-fe8c4a233fc7","status":"final","code":{"coding":[{"system":"http://loinc.org","code":"11084-1"}]},"subject":{"reference":"Patient/ffc4d066-84d1-4d2a-8cc4-aa66e3a0c1c1"},"effectiveDateTime":"2022-03-02T00:00:00+00:00","valueRatio":{"numerator":{"value":1},"denominator":{"value":4}}},"request":{"method":"POST","url":"Observation"}},{"fullUrl":"Condition/f9176d3e-16e6-4c1c-9950-6229f4841243","resource":{"resourceType":"Condition","id":"f9176d3e-16e6-4c1c-9950-6229f4841243","code":{"coding":[{"system":"http://snomed.info/sct","code":"79342006"}]},"subject":{"reference":"Patient/ffc4d066-84d1-4d2a-8cc4-aa66e3a0c1c1"},"onsetDateTime":"2022-10-06T00:00:00+00:00"},"request":{"method":"POST","url":"Condition"}},{"fullUrl":"Condition/1cd021ce-4493-44f6-907b-e9326e26533c","resource":{"resourceType":"Condition","id":"1cd021ce-4493-44f6-907b-e9326e26533c","code":{"coding":[{"system":"http://snomed.info/sct","code":"31070006"}]},"subject":{"reference":"Patient/ffc4d066-84d1-4d2a-8cc4-aa66e3a0c1c1"},"onsetDateTime":"2022-07-08T00:00:00+00:00"},"request":{"method":"POST","url":"Condition"}},{"fullUrl":"Condition/16321f4d-9919-4232-94d4-a976b162ca9c","resource":{"resourceType":"Condition","id":"16321f4d-9919-4232-94d4-a976b162ca9c","code":{"coding":[{"system":"http://snomed.info/sct","code":"709977002"}]},"subject":{"reference":"Patient/ffc4d066-84d1-4d2a-8cc4-aa66e3a0c1c1"},"onsetDateTime":"2022-12-16T00:00:00+00:00"},"request":{"method":"POST","url":"Condition"}},{"fullUrl":"Condition/3175416c-f330-4d5f-88dc-9e8afaecbbf8","resource":{"resourceType":"Condition","id":"3175416c-f330-4d5f-88dc-9e8afaecbbf8","code":{"coding":[{"system":"http://snomed.info/sct","code":"271939006"}]},"subject":{"reference":"Patient/ffc4d066-84d1-4d2a-8cc4-aa66e3a0c1c1"},"onsetDateTime":"2022-05-04T00:00:00+00:00"},"request":{"method":"POST","url":"Condition"}},{"fullUrl":"Condition/3e154fee-d013-4419-a3a3-56209d3d6988","resource":{"resourceType":"Condition","id":"3e154fee-d013-4419-a3a3-56209d3d6988","code":{"coding":[{"system":"http://snomed.info/sct","code":"44882003"}]},"subject":{"reference":"Patient/ffc4d066-84d1-4d2a-8cc4-aa66e3a0c1c1"},"onsetDateTime":"2022-05-09T00:00:00+00:00"},"request":{"method":"POST","url":"Condition"}},{"fullUrl":"Condition/5e683f94-a47f-415f-87ab-a5228a7ba5f7","resource":{"resourceType":"Condition","id":"5e683f94-a47f-415f-87ab-a5228a7ba5f7","code":{"coding":[{"system":"http://snomed.info/sct","code":"736686006"}]},"subject":{"reference":"Patient/ffc4d066-84d1-4d2a-8cc4-aa66e3a0c1c1"},"onsetDateTime":"2022-12-08T00:00:00+00:00"},"request":{"method":"POST","url":"Condition"}},{"fullUrl":"Condition/374602c6-6c7e-4d18-acff-bf96a2c032c9","resource":{"resourceType":"Condition","id":"374602c6-6c7e-4d18-acff-bf96a2c032c9","code":{"coding":[{"system":"http://snomed.info/sct","code":"71315007"}]},"subject":{"reference":"Patient/ffc4d066-84d1-4d2a-8cc4-aa66e3a0c1c1"},"onsetDateTime":"2022-11-10T00:00:00+00:00"},"request":{"method":"POST","url":"Condition"}},{"fullUrl":"Condition/37791954-0e39-46d9-800a-d32068bf432a","resource":{"resourceType":"Condition","id":"37791954-0e39-46d9-800a-d32068bf432a","code":{"coding":[{"system":"http://snomed.info/sct","code":"271807003"}]},"subject":{"reference":"Patient/ffc4d066-84d1-4d2a-8cc4-aa66e3a0c1c1"},"onsetDateTime":"2022-01-13T00:00:00+00:00"},"request":{"method":"POST","url":"Condition"}},{"fullUrl":"Observation/6bff0295-1925-4865-9ef5-ef73019dd9ff","resource":{"resourceType":"Observation","id":"6bff0295-1925-4865-9ef5-ef73019dd9ff","status":"final","code":{"coding":[{"system":"http://loinc.org","code":"49498-9"}]},"subject":{"reference":"Patient/ffc4d066-84d1-4d2a-8cc4-aa66e3a0c1c1"},"effectiveDateTime":"2022-05-30T00:00:00+00:00","valueQuantity":{"value":6.8}},"request":{"method":"POST","url":"Observation"}},{"fullUrl":"Observation/2dc26e50-f4d2-4fce-8d81-8077e65d1e57","resource":{"resourceType":"Observation","id":"2dc26e50-f4d2-4fce-8d81-8077e65d1e57","status":"final","code":{"coding":[{"system":"http://loinc.org","code":"49498-9"}]},"subject":{"reference":"Patient/ffc4d066-84d1-4d2a-8cc4-aa66e3a0c1c1"},"effectiveDateTime":"2022-06-09T00:00:00+00:00","valueQuantity":{"value":10.2}},"request":{"method":"POST","url":"Observation"}},{"fullUrl":"Observation/f8fa9bd9-9ce9-40e2-826c-e1ab1b16a985","resource":{"resourceType":"Observation","id":"f8fa9bd9-9ce9-40e2-826c-e1ab1b16a985","status":"final","code":{"coding":[{"system":"http://www.ama-assn.org/go/cpt","code":"85048"}]},"subject":{"reference":"Patient/ffc4d066-84d1-4d2a-8cc4-aa66e3a0c1c1"},"effectiveDateTime":"2022-10-31T00:00:00+00:00","valueCodeableConcept":{"coding":[{"system":"snomed","code":"123456","display":"fake snomed"}]}},"request":{"method":"POST","url":"Observation"}},{"fullUrl":"Observation/070a9d96-1123-4292-b623-56f8245fcb76","resource":{"resourceType":"Observation","id":"070a9d96-1123-4292-b623-56f8245fcb76","status":"final","code":{"coding":[{"system":"http://loinc.org","code":"26464-8"}]},"subject":{"reference":"Patient/ffc4d066-84d1-4d2a-8cc4-aa66e3a0c1c1"},"effectiveDateTime":"2022-03-31T00:00:00+00:00","valueCodeableConcept":{"coding":[{"system":"snomed","code":"123456","display":"fake snomed"}]}},"request":{"method":"POST","url":"Observation"}},{"fullUrl":"Observation/c1226f95-d40a-4083-83e2-d1123f49d966","resource":{"resourceType":"Observation","id":"c1226f95-d40a-4083-83e2-d1123f49d966","status":"final","code":{"coding":[{"system":"http://loinc.org","code":"49498-9"}]},"subject":{"reference":"Patient/ffc4d066-84d1-4d2a-8cc4-aa66e3a0c1c1"},"effectiveDateTime":"2022-07-10T00:00:00+00:00"},"request":{"method":"POST","url":"Observation"}},{"fullUrl":"Observation/0c6b61a1-5902-49e1-bf80-ec3b49faa568","resource":{"resourceType":"Observation","id":"0c6b61a1-5902-49e1-bf80-ec3b49faa568","status":"final","code":{"coding":[{"system":"http://loinc.org","code":"49498-9"}]},"subject":{"reference":"Patient/ffc4d066-84d1-4d2a-8cc4-aa66e3a0c1c1"},"effectiveDateTime":"2022-11-20T00:00:00+00:00"},"request":{"method":"POST","url":"Observation"}},{"fullUrl":"Procedure/42aefa30-f7f5-4953-804a-b961bd2a93b1","resource":{"resourceType":"Procedure","id":"42aefa30-f7f5-4953-804a-b961bd2a93b1","status":"completed","code":{"coding":[{"system":"http://snomed.info/sct","code":"189009"}]},"subject":{"reference":"Patient/ffc4d066-84d1-4d2a-8cc4-aa66e3a0c1c1"},"performedDateTime":"2022-06-07T00:00:00+00:00"},"request":{"method":"POST","url":"Procedure"}},{"fullUrl":"Procedure/137cf18b-23c8-48fb-ba49-07818cf3d3ba","resource":{"resourceType":"Procedure","id":"137cf18b-23c8-48fb-ba49-07818cf3d3ba","status":"completed","code":{"coding":[{"system":"http://snomed.info/sct","code":"189009"}]},"subject":{"reference":"Patient/ffc4d066-84d1-4d2a-8cc4-aa66e3a0c1c1"},"performedDateTime":"2022-04-09T00:00:00+00:00"},"request":{"method":"POST","url":"Procedure"}},{"fullUrl":"Procedure/90a449f3-6a9f-445f-8a82-3360b062dab4","resource":{"resourceType":"Procedure","id":"90a449f3-6a9f-445f-8a82-3360b062dab4","status":"completed","code":{"coding":[{"system":"http://snomed.info/sct","code":"189009"}]},"subject":{"reference":"Patient/ffc4d066-84d1-4d2a-8cc4-aa66e3a0c1c1"},"performedDateTime":"2022-10-27T00:00:00+00:00"},"request":{"method":"POST","url":"Procedure"}},{"fullUrl":"MedicationStatement/2602599c-672b-4e06-801c-acc51f36d0a4","resource":{"resourceType":"MedicationStatement","id":"2602599c-672b-4e06-801c-acc51f36d0a4","status":"completed","medicationCodeableConcept":{"coding":[{"system":"http://www.nlm.nih.gov/research/umls/rxnorm","code":"8698"}]},"subject":{"reference":"Patient/ffc4d066-84d1-4d2a-8cc4-aa66e3a0c1c1"},"effectiveDateTime":"2022-06-04T00:00:00+00:00","dosage":[{"doseAndRate":[{"doseQuantity":{"value":2,"unit":"TAB","system":"http://terminology.hl7.org/CodeSystem/v3-orderableDrugForm","code":"TAB"}}]}]},"request":{"method":"POST","url":"MedicationStatement"}},{"fullUrl":"MedicationStatement/53985658-1ab8-4af4-905b-ae642dea605f","resource":{"resourceType":"MedicationStatement","id":"53985658-1ab8-4af4-905b-ae642dea605f","status":"completed","medicationCodeableConcept":{"coding":[{"system":"http://www.nlm.nih.gov/research/umls/rxnorm","code":"8698"}]},"subject":{"reference":"Patient/ffc4d066-84d1-4d2a-8cc4-aa66e3a0c1c1"},"effectiveDateTime":"2022-10-18T00:00:00+00:00","dosage":[{"doseAndRate":[{"doseQuantity":{"value":3.7,"unit":"TAB","system":"http://terminology.hl7.org/CodeSystem/v3-orderableDrugForm","code":"TAB"}}]}]},"request":{"method":"POST","url":"MedicationStatement"}},{"fullUrl":"MedicationStatement/f630e924-54af-4396-a4d0-7b24707bad99","resource":{"resourceType":"MedicationStatement","id":"f630e924-54af-4396-a4d0-7b24707bad99","status":"completed","medicationCodeableConcept":{"coding":[{"system":"http://www.nlm.nih.gov/research/umls/rxnorm","code":"8698"}]},"subject":{"reference":"Patient/ffc4d066-84d1-4d2a-8cc4-aa66e3a0c1c1"},"effectiveDateTime":"2022-12-07T00:00:00+00:00","dosage":[{"doseAndRate":[{"doseQuantity":{"value":6.3,"unit":"TAB","system":"http://terminology.hl7.org/CodeSystem/v3-orderableDrugForm","code":"TAB"}}]}]},"request":{"method":"POST","url":"MedicationStatement"}},{"fullUrl":"MedicationStatement/9e75d630-ad41-4027-b0c9-f39f22ee07af","resource":{"resourceType":"MedicationStatement","id":"9e75d630-ad41-4027-b0c9-f39f22ee07af","status":"completed","medicationCodeableConcept":{"coding":[{"system":"http://www.nlm.nih.gov/research/umls/rxnorm","code":"2193"}]},"subject":{"reference":"Patient/ffc4d066-84d1-4d2a-8cc4-aa66e3a0c1c1"},"effectiveDateTime":"2022-08-09T00:00:00+00:00","dosage":[{"doseAndRate":[{"doseQuantity":{"value":5.5,"unit":"TAB","system":"http://terminology.hl7.org/CodeSystem/v3-orderableDrugForm","code":"TAB"}}]}]},"request":{"method":"POST","url":"MedicationStatement"}},{"fullUrl":"MedicationStatement/db8f105e-7907-4556-8d3b-78bae8f2c528","resource":{"resourceType":"MedicationStatement","id":"db8f105e-7907-4556-8d3b-78bae8f2c528","status":"completed","medicationCodeableConcept":{"coding":[{"system":"http://www.nlm.nih.gov/research/umls/rxnorm","code":"2193"}]},"subject":{"reference":"Patient/ffc4d066-84d1-4d2a-8cc4-aa66e3a0c1c1"},"effectiveDateTime":"2022-09-15T00:00:00+00:00","dosage":[{"doseAndRate":[{"doseQuantity":{"value":3.5,"unit":"TAB","system":"http://terminology.hl7.org/CodeSystem/v3-orderableDrugForm","code":"TAB"}}]}]},"request":{"method":"POST","url":"MedicationStatement"}},{"fullUrl":"Encounter/38fdc13b-7148-4752-b1f6-ebf094e0cc63","resource":{"resourceType":"Encounter","id":"38fdc13b-7148-4752-b1f6-ebf094e0cc63","status":"finished","class":{"system":"http://terminology.hl7.org/CodeSystem/v3-ActCode","code":"IMP","display":"inpatient encounter"},"type":[{"coding":[{"system":"http://terminology.hl7.org/CodeSystem/encounter-type","code":"CCS60"}]}],"subject":{"reference":"Patient/ffc4d066-84d1-4d2a-8cc4-aa66e3a0c1c1"},"period":{"start":"2022-03-25T00:00:00+00:00","end":"2022-04-03T00:00:00+00:00"}},"request":{"method":"POST","url":"Encounter"}},{"fullUrl":"Encounter/bf52ed98-9be0-482f-8934-ac5b275d2233","resource":{"resourceType":"Encounter","id":"bf52ed98-9be0-482f-8934-ac5b275d2233","status":"finished","class":{"system":"http://terminology.hl7.org/CodeSystem/v3-ActCode","code":"IMP","display":"inpatient encounter"},"type":[{"coding":[{"system":"http://terminology.hl7.org/CodeSystem/encounter-type","code":"ADMS"}]}],"subject":{"reference":"Patient/ffc4d066-84d1-4d2a-8cc4-aa66e3a0c1c1"},"period":{"start":"2022-07-21T00:00:00+00:00","end":"2022-07-25T00:00:00+00:00"}},"request":{"method":"POST","url":"Encounter"}},{"fullUrl":"Encounter/65c970a7-91fa-4b46-8b3d-0d1465a27447","resource":{"resourceType":"Encounter","id":"65c970a7-91fa-4b46-8b3d-0d1465a27447","status":"finished","class":{"system":"http://terminology.hl7.org/CodeSystem/v3-ActCode","code":"HH","display":"home health"},"type":[{"coding":[{"system":"http://terminology.hl7.org/CodeSystem/encounter-type","code":"BD/BM-clin"}]}],"subject":{"reference":"Patient/ffc4d066-84d1-4d2a-8cc4-aa66e3a0c1c1"},"period":{"start":"2022-07-25T00:00:00+00:00","end":"2022-07-31T00:00:00+00:00"}},"request":{"method":"POST","url":"Encounter"}},{"fullUrl":"Encounter/8a77f129-c4fb-4673-aee7-f4d7b2106b39","resource":{"resourceType":"Encounter","id":"8a77f129-c4fb-4673-aee7-f4d7b2106b39","status":"finished","class":{"system":"http://terminology.hl7.org/CodeSystem/v3-ActCode","code":"VR","display":"virtual"},"type":[{"coding":[{"system":"http://terminology.hl7.org/CodeSystem/encounter-type","code":"ADMS"}]}],"subject":{"reference":"Patient/ffc4d066-84d1-4d2a-8cc4-aa66e3a0c1c1"},"period":{"start":"2022-12-25T00:00:00+00:00","end":"2022-12-31T00:00:00+00:00"}},"request":{"method":"POST","url":"Encounter"}},{"fullUrl":"Encounter/7119bd78-67a8-41c2-8e03-c0004f14262a","resource":{"resourceType":"Encounter","id":"7119bd78-67a8-41c2-8e03-c0004f14262a","status":"finished","class":{"system":"http://terminology.hl7.org/CodeSystem/v3-ActCode","code":"NONAC","display":"inpatient non-acute"},"type":[{"coding":[{"system":"http://terminology.hl7.org/CodeSystem/encounter-type","code":"OKI"}]}],"subject":{"reference":"Patient/ffc4d066-84d1-4d2a-8cc4-aa66e3a0c1c1"},"period":{"start":"2022-01-26T00:00:00+00:00","end":"2022-01-31T00:00:00+00:00"}},"request":{"method":"POST","url":"Encounter"}}]}