{"resourceType":"Bundle","id":"0afc248f-9c83-4d90-89cd-004a362654db","type":"transaction","entry":[{"fullUrl":"Patient/8842fa6f-c5de-4c06-85cd-3e51048a58e9","resource":{"resourceType":"Patient","id":"8842fa6f-c5de-4c06-85cd-3e51048a58e9","identifier":[{"type":{"coding":[{"system":"http://terminology.hl7.org/CodeSystem/v2-0203","code":"MR"}]},"system":"urn:fhirgen:mrn","value":"819-52-5242"}],"name":[{"use":"official","family":"Neal","given":["Kyle"]},{"use":"maiden","family":"Skinner"}],"telecom":[{"system":"phone","value":"619-283-2807","use":"home"},{"system":"email","value":"thorne@yahoo.com","use":"home"}],"gender":"male","birthDate":"1973-05-13","address":[{"use":"home","line":["8761 Hardy Crossing"],"city":"South Elizabethhaven","state":"TN","postalCode":"41226"},{"use":"old","line":["6325 Park Plaza Suite 635"],"city":"Taylorburgh","state":"ND","postalCode":"49354"}]},"request":{"method":"POST","url":"Patient"}},{"fullUrl":"Observation/34e91566-b6a2-4871-b7db-e2bedbccf242","resource":{"resourceType":"Observation","id":"34e91566-b6a2-4871-b7db-e2bedbccf242","status":"final","code":{"coding":[{"system":"http://loinc.org","code":"31147-2"}]},"subject":{"reference":"Patient/8842fa6f-c5de-4c06-85cd-3e51048a58e9"},"effectiveDateTime":"2022-05-17T00:00:00+00:00","valueRatio":{"numerator":{"value":1},"denominator":{"value":64}}},"request":{"method":"POST","url":"Observation"}},{"fullUrl":"Observation/3be88b23-6924-4dcb-83c7-5d2449f50d0b","resource":{"resourceType":"Observation","id":"3be88b23-6924-4dcb-83c7-5d2449f50d0b","status":"final","code":{"coding":[{"system":"http://loinc.org","code":"50695-6"}]},"subject":{"reference":"Patient/8842fa6f-c5de-4c06-85cd-3e51048a58e9"},"effectiveDateTime":"2022-05-27T00:00:00+00:00","valueRatio":{"numerator":{"value":1},"denominator":{"value":32}}},"request":{"method":"POST","url":"Observation"}},{"fullUrl":"Observation/de2e1299-06ef-4bdd-a247-79ba80770038","resource":{"resourceType":"Observation","id":"de2e1299-06ef-4bdd-a247-79ba80770038","status":"final","code":{"coding":[{"system":"http://loinc.org","code":"5394-2"}]},"subject":{"reference":"Patient/8842fa6f-c5de-4c06-85cd-3e51048a58e9"},"effectiveDateTime":"2022-06-21T00:00:00+00:00","valueRatio":{"numerator":{"value":1},"denominator":{"value":32}}},"request":{"method":"POST","url":"Observation"}},{"fullUrl":"Condition/a15e9797-9b27-423e-bf7a-97b5309f44eb","resource":{"resourceType":"Condition","id":"a15e9797-9b27-423e-bf7a-97b5309f44eb","code":{"coding":[{"system":"http://snomed.info/sct","code":"418290006"}]},"subject":{"reference":"Patient/8842fa6f-c5de-4c06-85cd-3e51048a58e9"},"onsetDateTime":"2022-05-14T00:00:00+00:00"},"request":{"method":"POST","url":"Condition"}},{"fullUrl":"Condition/a841e79c-a450-4cb8-aa56-59a2c43df8f9","resource":{"resourceType":"Condition","id":"a841e79c-a450-4cb8-aa56-59a2c43df8f9","code":{"coding":[{"system":"http://snomed.info/sct","code":"386661006"}]},"subject":{"reference":"Patient/8842fa6f-c5de-4c06-85cd-3e51048a58e9"},"onsetDateTime":"2022-04-29T00:00:00+00:00"},"request":{"method":"POST","url":"Condition"}},{"fullUrl":"Condition/fb03085e-e258-4b61-a9c7-1b16d7c03956","resource":{"resourceType":"Condition","id":"fb03085e-e258-4b61-a9c7-1b16d7c03956","code":{"coding":[{"system":"http://snomed.info/sct","code":"248980004"}]},"subject":{"reference":"Patient/8842fa6f-c5de-4c06-85cd-3e51048a58e9"},"onsetDateTime":"2022-06-06T00:00:00+00:00"},"request":{"method":"POST","url":"Condition"}},{"fullUrl":"Condition/95368009-77b6-4c9f-b49b-e837643c2cc9","resource":{"resourceType":"Condition","id":"95368009-77b6-4c9f-b49b-e837643c2cc9","code":{"coding":[{"system":"http://snomed.info/sct","code":"297123002"}]},"subject":{"reference":"Patient/8842fa6f-c5de-4c06-85cd-3e51048a58e9"},"onsetDateTime":"2022-04-24T00:00:00+00:00"},"request":{"method":"POST","url":"Condition"}},{"fullUrl":"Condition/2a851061-b29d-464d-afa0-8bf024990db0","resource":{"resourceType":"Condition","id":"2a851061-b29d-464d-afa0-8bf024990db0","code":{"coding":[{"system":"http://snomed.info/sct","code":"71315007"}]},"subject":{"reference":"Patient/8842fa6f-c5de-4c06-85cd-3e51048a58e9"},"onsetDateTime":"2022-10-26T00:00:00+00:00"},"request":{"method":"POST","url":"Condition"}},{"fullUrl":"Observation/ed6f84ed-9c4a-46ca-a2f8-56be6fd664c8","resource":{"resourceType":"Observation","id":"ed6f84ed-9c4a-46ca-a2f8-56be6fd664c8","status":"final","code":{"coding":[{"system":"http://loinc.org","code":"49498-9"}]},"subject":{"reference":"Patient/8842fa6f-c5de-4c06-85cd-3e51048a58e9"},"effectiveDateTime":"2022-05-13T00:00:00+00:00","valueQuantity":{"value":5.4}},"request":{"method":"POST","url":"Observation"}},{"fullUrl":"Observation/4b4b1ca5-060f-419c-b6ca-e3cf57d8a6bb","resource":{"resourceType":"Observation","id":"4b4b1ca5-060f-419c-b6ca-e3cf57d8a6bb","status":"final","code":{"coding":[{"system":"http://loinc.org","code":"26464-8"}]},"subject":{"reference":"Patient/8842fa6f-c5de-4c06-85cd-3e51048a58e9"},"effectiveDateTime":"2022-12-20T00:00:00+00:00","valueQuantity":{"value":8.5}},"request":{"method":"POST","url":"Observation"}},{"fullUrl":"Observation/ecf924aa-9ff2-4acd-8fb7-439ba9247209","resource":{"resourceType":"Observation","id":"ecf924aa-9ff2-4acd-8fb7-439ba9247209","status":"final","code":{"coding":[{"system":"http://loinc.org","code":"49498-9"}]},"subject":{"reference":"Patient/8842fa6f-c5de-4c06-85cd-3e51048a58e9"},"effectiveDateTime":"2022-05-01T00:00:00+00:00"},"request":{"method":"POST","url":"Observation"}},{"fullUrl":"Observation/5831b6ce-3df8-4e67-a599-18c44f2eb058","resource":{"resourceType":"Observation","id":"5831b6ce-3df8-4e67-a599-18c44f2eb058","status":"final","code":{"coding":[{"system":"http://loinc.org","code":"49498-9"}]},"subject":{"reference":"Patient/8842fa6f-c5de-4c06-85cd-3e51048a58e9"},"effectiveDateTime":"2022-03-19T00:00:00+00:00"},"request":{"method":"POST","url":"Observation"}},{"fullUrl":"Procedure/c9e5a781-e368-4498-bcc5-ab2e04fd2ccb","resource":{"resourceType":"Procedure","id":"c9e5a781-e368-4498-bcc5-ab2e04fd2ccb","status":"completed","code":{"coding":[{"system":"http://snomed.info/sct","code":"104001"}]},"subject":{"reference":"Patient/8842fa6f-c5de-4c06-85cd-3e51048a58e9"},"performedDateTime":"2022-08-06T00:00:00+00:00"},"request":{"method":"POST","url":"Procedure"}},{"fullUrl":"Procedure/b9820a92-5a62-4490-a1fc-bbdec3c759ae","resource":{"resourceType":"Procedure","id":"b9820a92-5a62-4490-a1fc-bbdec3c759ae","status":"completed","code":{"coding":[{"system":"http://snomed.info/sct","code":"189009"}]},"subject":{"reference":"Patient/8842fa6f-c5de-4c06-85cd-3e51048a58e9"},"performedDateTime":"2022-12-09T00:00:00+00:00"},"request":{"method":"POST","url":"Procedure"}},{"fullUrl":"Procedure/c463be6f-6d9f-4fba-b8ce-62cf555bfc62","resource":{"resourceType":"Procedure","id":"c463be6f-6d9f-4fba-b8ce-62cf555bfc62","status":"completed","code":{"coding":[{"system":"http://snomed.info/sct","code":"146005"}]},"subject":{"reference":"Patient/8842fa6f-c5de-4c06-85cd-3e51048a58e9"},"performedDateTime":"2022-10-17T00:00:00+00:00"},"request":{"method":"POST","url":"Procedure"}},{"fullUrl":"MedicationStatement/5a3038c8-2351-474c-b8fe-92854818f741","resource":{"resourceType":"MedicationStatement","id":"5a3038c8-2351-474c-b8fe-92854818f741","status":"completed","medicationCodeableConcept":{"coding":[{"system":"http://www.nlm.nih.gov/research/umls/rxnorm","code":"18631"}]},"subject":{"reference":"Patient/8842fa6f-c5de-4c06-85cd-3e51048a58e9"},"effectiveDateTime":"2022-01-29T00:00:00+00:00","dosage":[{"doseAndRate":[{"doseQuantity":{"value":2,"unit":"TAB","system":"http://terminology.hl7.org/CodeSystem/v3-orderableDrugForm","code":"TAB"}}]}]},"request":{"method":"POST","url":"MedicationStatement"}},{"fullUrl":"MedicationStatement/fadcbdaa-2c22-469c-99bf-d9134c8a007b","resource":{"resourceType":"MedicationStatement","id":"fadcbdaa-2c22-469c-99bf-d9134c8a007b","status":"completed","medicationCodeableConcept":{"coding":[{"system":"http://www.nlm.nih.gov/research/umls/rxnorm","code":"10395"}]},"subject":{"reference":"Patient/8842fa6f-c5de-4c06-85cd-3e51048a58e9"},"effectiveDateTime":"2022-12-21T00:00:00+00:00","dosage":[{"doseAndRate":[{"doseQuantity":{"value":2,"unit":"TAB","system":"http://terminology.hl7.org/CodeSystem/v3-orderableDrugForm","code":"TAB"}}]}]},"request":{"method":"POST","url":"MedicationStatement"}},{"fullUrl":"MedicationStatement/1526da3b-c2b4-46bf-baac-385a52d64a13","resource":{"resourceType":"MedicationStatement","id":"1526da3b-c2b4-46bf-baac-385a52d64a13","status":"completed","medicationCodeableConcept":{"coding":[{"system":"http://www.nlm.nih.gov/research/umls/rxnorm","code":"2193"}]},"subject":{"reference":"Patient/8842fa6f-c5de-4c06-85cd-3e51048a58e9"},"effectiveDateTime":"2022-11-28T00:00:00+00:00","dosage":[{"doseAndRate":[{"doseQuantity":{"value":2,"unit":"TAB","system":"http://terminology.hl7.org/CodeSystem/v3-orderableDrugForm","code":"TAB"}}]}]},"request":{"method":"POST","url":"MedicationStatement"}},{"fullUrl":"MedicationStatement/f58ab129-3b68-437c-a040-e4cc3ee587d7","resource":{"resourceType":"MedicationStatement","id":"f58ab129-3b68-437c-a040-e4cc3ee587d7","status":"completed","medicationCodeableConcept":{"coding":[{"system":"http://www.nlm.nih.gov/research/umls/rxnorm","code":"3640"}]},"subject":{"reference":"Patient/8842fa6f-c5de-4c06-85cd-3e51048a58e9"},"effectiveDateTime":"2022-03-22T00:00:00+00:00","dosage":[{"doseAndRate":[{"doseQuantity":{"value":1,"unit":"TAB","system":"http://terminology.hl7.org/CodeSystem/v3-orderableDrugForm","code":"TAB"}}]}]},"request":{"method":"POST","url":"MedicationStatement"}},{"fullUrl":"MedicationStatement/5e51001c-4bce-40ef-be5e-bd0bc4999a6a","resource":{"resourceType":"MedicationStatement","id":"5e51001c-4bce-40ef-be5e-bd0bc4999a6a","status":"completed","medicationCodeableConcept":{"coding":[{"system":"http://www.nlm.nih.gov/research/umls/rxnorm","code":"3640"}]},"subject":{"reference":"Patient/8842fa6f-c5de-4c06-85cd-3e51048a58e9"},"effectiveDateTime":"2022-01-22T00:00:00+00:00","dosage":[{"doseAndRate":[{"doseQuantity":{"value":1,"unit":"TAB","system":"http://terminology.hl7.org/CodeSystem/v3-orderableDrugForm","code":"TAB"}}]}]},"request":{"method":"POST","url":"MedicationStatement"}},{"fullUrl":"MedicationStatement/81f12eb7-3209-4551-bff9-b4f6af805ee3","resource":{"resourceType":"MedicationStatement","id":"81f12eb7-3209-4551-bff9-b4f6af805ee3","status":"completed","medicationCodeableConcept":{"coding":[{"system":"http://www.nlm.nih.gov/research/umls/rxnorm","code":"18631"}]},"subject":{"reference":"Patient/8842fa6f-c5de-4c06-85cd-3e51048a58e9"},"effectiveDateTime":"2022-03-03T00:00:00+00:00","dosage":[{"doseAndRate":[{"doseQuantity":{"value":6,"unit":"TAB","system":"http://terminology.hl7.org/CodeSystem/v3-orderableDrugForm","code":"TAB"}}]}]},"request":{"method":"POST","url":"MedicationStatement"}},{"fullUrl":"MedicationStatement/6ef64d99-884e-4b9a-ade8-6cf24a138719","resource":{"resourceType":"MedicationStatement","id":"6ef64d99-884e-4b9a-ade8-6cf24a138719","status":"completed","medicationCodeableConcept":{"coding":[{"system":"http://www.nlm.nih.gov/research/umls/rxnorm","code":"2193"}]},"subject":{"reference":"Patient/8842fa6f-c5de-4c06-85cd-3e51048a58e9"},"effectiveDateTime":"2022-02-13T00:00:00+00:00","dosage":[{"doseAndRate":[{"doseQuantity":{"value":6.8,"unit":"TAB","system":"http://terminology.hl7.org/CodeSystem/v3-orderableDrugForm","code":"TAB"}}]}]},"request":{"method":"POST","url":"MedicationStatement"}},{"fullUrl":"MedicationStatement/1f78fe1b-c106-4dcf-abaf-63750cfb0314","resource":{"resourceType":"MedicationStatement","id":"1f78fe1b-c106-4dcf-abaf-63750cfb0314","status":"completed","medicationCodeableConcept":{"coding":[{"system":"http://www.nlm.nih.gov/research/umls/rxnorm","code":"10395"}]},"subject":{"reference":"Patient/8842fa6f-c5de-4c06-85cd-3e51048a58e9"},"effectiveDateTime":"2022-03-23T00:00:00+00:00","dosage":[{"doseAndRate":[{"doseQuantity":{"value":5,"unit":"TAB","system":"http://terminology.hl7.org/CodeSystem/v3-orderableDrugForm","code":"TAB"}}]}]},"request":{"method":"POST","url":"MedicationStatement"}},{"fullUrl":"MedicationStatement/8a3bb099-b400-48a2-b411-c3fdb544d91c","resource":{"resourceType":"MedicationStatement","id":"8a3bb099-b400-48a2-b411-c3fdb544d91c","status":"completed","medicationCodeableConcept":{"coding":[{"system":"http://www.nlm.nih.gov/research/umls/rxnorm","code":"10395"}]},"subject":{"reference":"Patient/8842fa6f-c5de-4c06-85cd-3e51048a58e9"},"effectiveDateTime":"2022-07-29T00:00:00+00:00","dosage":[{"doseAndRate":[{"doseQuantity":{"value":3.6,"unit":"TAB","system":"http://terminology.hl7.org/CodeSystem/v3-orderableDrugForm","code":"TAB"}}]}]},"request":{"method":"POST","url":"MedicationStatement"}},{"fullUrl":"Encounter/2d8251cf-dbe4-43cb-a248-22daf3d41d0e","resource":{"resourceType":"Encounter","id":"2d8251cf-dbe4-43cb-a248-22daf3d41d0e","status":"finished","class":{"system":"http://terminology.hl7.org/CodeSystem/v3-ActCode","code":"IMP","display":"inpatient encounter"},"type":[{"coding":[{"system":"http://terminology.hl7.org/CodeSystem/encounter-type","code":"OKI"}]}],"subject":{"reference":"Patient/8842fa6f-c5de-4c06-85cd-3e51048a58e9"},"period":{"start":"2022-02-21T00:00:00+00:00","end":"2022-02-23T00:00:00+00:00"}},"request":{"method":"POST","url":"Encounter"}},{"fullUrl":"Encounter/6578e178-625d-4642-ae8f-862cc0e993db","resource":{"resourceType":"Encounter","id":"6578e178-625d-4642-ae8f-862cc0e993db","status":"finished","class":{"system":"http://terminology.hl7.org/CodeSystem/v3-ActCode","code":"IMP","display":"inpatient encounter"},"type":[{"coding":[{"system":"http://terminology.hl7.org/CodeSystem/encounter-type","code":"OKI"}]}],"subject":{"reference":"Patient/8842fa6f-c5de-4c06-85cd-3e51048a58e9"},"period":{"start":"2022-08-18T00:00:00+00:00","end":"2022-08-27T00:00:00+00:00"}},"request":{"method":"POST","url":"Encounter"}},{"fullUrl":"Encounter/9ce77086-a969-426c-80d5-7afcf6b5fa5d","resource":{"resourceType":"Encounter","id":"9ce77086-a969-426c-80d5-7afcf6b5fa5d","status":"finished","class":{"system":"http://terminology.hl7.org/CodeSystem/v3-ActCode","code":"IMP","display":"inpatient encounter"},"type":[{"coding":[{"system":"http://terminology.hl7.org/CodeSystem/encounter-type","code":"BD/BM-clin"}]}],"subject":{"reference":"Patient/8842fa6f-c5de-4c06-85cd-3e51048a58e9"},"period":{"start":"2022-03-25T00:00:00+00:00","end":"2022-03-31T00:00:00+00:00"}},"request":{"method":"POST","url":"Encounter"}},{"fullUrl":"Encounter/67b9e69e-fc71-4b8b-a1c6-89d779a0e5bf","resource":{"resourceType":"Encounter","id":"67b9e69e-fc71-4b8b-a1c6-89d779a0e5bf","status":"finished","class":{"system":"http://terminology.hl7.org/CodeSystem/v3-ActCode","code":"AMB","display":"ambulatory"},"type":[{"coding":[{"system":"http://terminology.hl7.org/CodeSystem/encounter-type","code":"OKI"}]}],"subject":{"reference":"Patient/8842fa6f-c5de-4c06-85cd-3e51048a58e9"},"period":{"start":"2022-06-17T00:00:00+00:00","end":"2022-06-20T00:00:00+00:00"}},"request":{"method":"POST","url":"Encounter"}},{"fullUrl":"Encounter/6d922e26-984d-43b1-9de5-84a340965815","resource":{"resourceType":"Encounter","id":"6d922e26-984d-43b1-9de5-84a340965815","status":"finished","class":{"system":"http://terminology.hl7.org/CodeSystem/v3-ActCode","code":"FLD","display":"field"},"type":[{"coding":[{"system":"http://terminology.hl7.org/CodeSystem/encounter-type","code":"BD/BM-clin"}]}],"subject":{"reference":"Patient/8842fa6f-c5de-4c06-85cd-3e51048a58e9"},"period":{"start":"2022-12-31T00:00:00+00:00","end":"2023-01-06T00:00:00+00:00"}},"request":{"method":"POST","url":"Encounter"}},{"fullUrl":"Encounter/24f7452a-3384-42bb-b695-f41f3bbf1535","resource":{"resourceType":"Encounter","id":"24f7452a-3384-42bb-b695-f41f3bbf1535","status":"finished","class":{"system":"http://terminology.hl7.org/CodeSystem/v3-ActCode","code":"FLD","display":"field"},"type":[{"coding":[{"system":"http://terminology.hl7.org/CodeSystem/encounter-type","code":"CCS60"}]}],"subject":{"reference":"Patient/8842fa6f-c5de-4c06-85cd-3e51048a58e9"},"period":{"start":"2022-07-23T00:00:00+00:00","end":"2022-07-25T00:00:00+00:00"}},"request":{"method":"POST","url":"Encounter"}},{"fullUrl":"Patient/93cf73c7-9cf7-4aa6-b9d3-1210c6e39559","resource":{"resourceType":"Patient","id":"93cf73c7-9cf7-4aa6-b9d3-1210c6e39559","identifier":[{"type":{"coding":[{"system":"http://terminology.hl7.org/CodeSystem/v2-0203","code":"MR"}]},"system":"urn:fhirgen:mrn","value":"281-30-8784"}],"name":[{"use":"official","family":"Mckee","given":["Luke"]},{"use":"maiden","family":"Blackwell"}],"telecom":[{"system":"phone","value":"401-632-9870x79352","use":"mobile"},{"system":"email","value":"kelleymichelle@yahoo.com","use":"mobile"}],"gender":"male","birthDate":"1997-12-12","address":[{"use":"home","line":["28654 Sarah Manor Suite 626"],"city":"South Stephanieberg","state":"RI","postalCode":"24579"},{"use":"old","line":["36580 Davila Creek Apt. 297"],"city":"Lopezmouth","state":"HI","postalCode":"95649"}]},"request":{"method":"POST","url":"Patient"}},{"fullUrl":"Observation/c631717f-b4ce-4a3b-a02f-1391ad5fb341","resource":{"resourceType":"Observation","id":"c631717f-b4ce-4a3b-a02f-1391ad5fb341","status":"final","code":{"coding":[{"system":"http://loinc.org","code":"11084-1"}]},"subject":{"reference":"Patient/93cf73c7-9cf7-4aa6-b9d3-1210c6e39559"},"effectiveDateTime":"2022-10-07T00:00:00+00:00","valueRatio":{"numerator":{"value":1},"denominator":{"value":64}}},"request":{"method":"POST","url":"Observation"}},{"fullUrl":"Observation/ebec6da4-c178-490f-928a-05ccb54a8651","resource":{"resourceType":"Observation","id":"ebec6da4-c178-490f-928a-05ccb54a8651","status":"final","code":{"coding":[{"system":"http://loinc.org","code":"47476-7"}]},"subject":{"reference":"Patient/93cf73c7-9cf7-4aa6-b9d3-1210c6e39559"},"effectiveDateTime":"2022-11-04T00:00:00+00:00","valueRatio":{"numerator":{"value":1},"denominator":{"value":64}}},"request":{"method":"POST","url":"Observation"}},{"fullUrl":"Condition/98faf263-b46a-4645-aa80-07954cb19981","resource":{"resourceType":"Condition","id":"98faf263-b46a-4645-aa80-07954cb19981","code":{"coding":[{"system":"http://snomed.info/sct","code":"271939006"}]},"subject":{"reference":"Patient/93cf73c7-9cf7-4aa6-b9d3-1210c6e39559"},"onsetDateTime":"2022-12-07T00:00:00+00:00"},"request":{"method":"POST","url":"Condition"}},{"fullUrl":"Condition/01be175f-5a48-4ac2-8bfd-91fe5033c0f3","resource":{"resourceType":"Condition","id":"01be175f-5a48-4ac2-8bfd-91fe5033c0f3","code":{"coding":[{"system":"http://snomed.info/sct","code":"418290006"}]},"subject":{"reference":"Patient/93cf73c7-9cf7-4aa6-b9d3-1210c6e39559"},"onsetDateTime":"2022-11-05T00:00:00+00:00"},"request":{"method":"POST","url":"Condition"}},{"fullUrl":"Condition/dedf9fa9-08a2-4bcf-a39b-61e66de1dbba","resource":{"resourceType":"Condition","id":"dedf9fa9-08a2-4bcf-a39b-61e66de1dbba","code":{"coding":[{"system":"http://snomed.info/sct","code":"91554004"}]},"subject":{"reference":"Patient/93cf73c7-9cf7-4aa6-b9d3-1210c6e39559"},"onsetDateTime":"2022-08-26T00:00:00+00:00"},"request":{"method":"POST","url":"Condition"}},{"fullUrl":"Condition/a7d0724a-4608-47e7-ae0d-cc27c149f564","resource":{"resourceType":"Condition","id":"a7d0724a-4608-47e7-ae0d-cc27c149f564","code":{"coding":[{"system":"http://snomed.info/sct","code":"31070006"}]},"subject":{"reference":"Patient/93cf73c7-9cf7-4aa6-b9d3-1210c6e39559"},"onsetDateTime":"2022-10-29T00:00:00+00:00"},"request":{"method":"POST","url":"Condition"}},{"fullUrl":"Condition/e1a3638f-bcd7-421e-a9c9-60320b9c21d4","resource":{"resourceType":"Condition","id":"e1a3638f-bcd7-421e-a9c9-60320b9c21d4","code":{"coding":[{"system":"http://snomed.info/sct","code":"30746006"}]},"subject":{"reference":"Patient/93cf73c7-9cf7-4aa6-b9d3-1210c6e39559"},"onsetDateTime":"2022-06-18T00:00:00+00:00"},"request":{"method":"POST","url":"Condition"}},{"fullUrl":"Observation/9adcb2dc-7f29-4a3e-8b32-5bb81d552804","resource":{"resourceType":"Observation","id":"9adcb2dc-7f29-4a3e-8b32-5bb81d552804","status":"final","code":{"coding":[{"system":"http://loinc.org","code":"804-5"}]},"subject":{"reference":"Patient/93cf73c7-9cf7-4aa6-b9d3-1210c6e39559"},"effectiveDateTime":"2022-08-30T00:00:00+00:00","valueQuantity":{"value":7}},"request":{"method":"POST","url":"Observation"}},{"fullUrl":"Observation/e9b87c7e-0916-4126-9570-75113432d376","resource":{"resourceType":"Observation","id":"e9b87c7e-0916-4126-9570-75113432d376","status":"final","code":{"coding":[{"system":"http://loinc.org","code":"26464-8"}]},"subject":{"reference":"Patient/93cf73c7-9cf7-4aa6-b9d3-1210c6e39559"},"effectiveDateTime":"2022-05-11T00:00:00+00:00","valueQuantity":{"value":10.8}},"request":{"method":"POST","url":"Observation"}},{"fullUrl":"Observation/f74e5422-46f5-4a00-aa38-e4b4cb86db1c","resource":{"resourceType":"Observation","id":"f74e5422-46f5-4a00-aa38-e4b4cb86db1c","status":"final","code":{"coding":[{"system":"http://loinc.org","code":"49498-9"}]},"subject":{"reference":"Patient/93cf73c7-9cf7-4aa6-b9d3-1210c6e39559"},"effectiveDateTime":"2022-03-30T00:00:00+00:00"},"request":{"method":"POST","url":"Observation"}},{"fullUrl":"Observation/82dba8d4-8449-4271-9280-7b892e440f88","resource":{"resourceType":"Observation","id":"82dba8d4-8449-4271-9280-7b892e440f88","status":"final","code":{"coding":[{"system":"http://loinc.org","code":"49498-9"}]},"subject":{"reference":"Patient/93cf73c7-9cf7-4aa6-b9d3-1210c6e39559"},"effectiveDateTime":"2022-03-26T00:00:00+00:00"},"request":{"method":"POST","url":"Observation"}},{"fullUrl":"Procedure/cda5fc3e-c2fa-463a-828b-8a9f9a255f6d","resource":{"resourceType":"Procedure","id":"cda5fc3e-c2fa-463a-828b-8a9f9a255f6d","status":"completed","code":{"coding":[{"system":"http://snomed.info/sct","code":"146005"}]},"subject":{"reference":"Patient/93cf73c7-9cf7-4aa6-b9d3-1210c6e39559"},"performedDateTime":"2022-12-12T00:00:00+00:00"},"request":{"method":"POST","url":"Procedure"}},{"fullUrl":"Procedure/a89c1dae-2f40-4cfd-9366-e74a4c4f42b8","resource":{"resourceType":"Procedure","id":"a89c1dae-2f40-4cfd-9366-e74a4c4f42b8","status":"completed","code":{"coding":[{"system":"http://snomed.info/sct","code":"146005"}]},"subject":{"reference":"Patient/93cf73c7-9cf7-4aa6-b9d3-1210c6e39559"},"performedDateTime":"2022-03-28T00:00:00+00:00"},"request":{"method":"POST","url":"Procedure"}},{"fullUrl":"Procedure/388a83c2-f8f1-4fd1-9759-9fd04eb982ed","resource":{"resourceType":"Procedure","id":"388a83c2-f8f1-4fd1-9759-9fd04eb982ed","status":"completed","code":{"coding":[{"system":"http://snomed.info/sct","code":"189009"}]},"subject":{"reference":"Patient/93cf73c7-9cf7-4aa6-b9d3-1210c6e39559"},"performedDateTime":"2022-09-02T00:00:00+00:00"},"request":{"method":"POST","url":"Procedure"}},{"fullUrl":"MedicationStatement/3c49434b-502f-421f-8293-0094bd7a2db1","resource":{"resourceType":"MedicationStatement","id":"3c49434b-502f-421f-8293-0094bd7a2db1","status":"completed","medicationCodeableConcept":{"coding":[{"system":"http://www.nlm.nih.gov/research/umls/rxnorm","code":"7980"}]},"subject":{"reference":"Patient/93cf73c7-9cf7-4aa6-b9d3-1210c6e39559"},"effectiveDateTime":"2022-07-17T00:00:00+00:00","dosage":[{"doseAndRate":[{"doseQuantity":{"value":2,"unit":"TAB","system":"http://terminology.hl7.org/CodeSystem/v3-orderableDrugForm","code":"TAB"}}]}]},"request":{"method":"POST","url":"MedicationStatement"}},{"fullUrl":"MedicationStatement/16c30932-d274-42c4-bcd1-dfee7a89fc49","resource":{"resourceType":"MedicationStatement","id":"16c30932-d274-42c4-bcd1-dfee7a89fc49","status":"completed","medicationCodeableConcept":{"coding":[{"system":"http://www.nlm.nih.gov/research/umls/rxnorm","code":"7980"}]},"subject":{"reference":"Patient/93cf73c7-9cf7-4aa6-b9d3-1210c6e39559"},"effectiveDateTime":"2022-10-24T00:00:00+00:00","dosage":[{"doseAndRate":[{"doseQuantity":{"value":1,"unit":"TAB","system":"http://terminology.hl7.org/CodeSystem/v3-orderableDrugForm","code":"TAB"}}]}]},"request":{"method":"POST","url":"MedicationStatement"}},{"fullUrl":"MedicationStatement/39d4959d-e881-40ac-95cc-b3a44d21e19b","resource":{"resourceType":"MedicationStatement","id":"39d4959d-e881-40ac-95cc-b3a44d21e19b","status":"completed","medicationCodeableConcept":{"coding":[{"system":"http://www.nlm.nih.gov/research/umls/rxnorm","code":"18631"}]},"subject":{"reference":"Patient/93cf73c7-9cf7-4aa6-b9d3-1210c6e39559"},"effectiveDateTime":"2022-06-06T00:00:00+00:00","dosage":[{"doseAndRate":[{"doseQuantity":{"value":2,"unit":"TAB","system":"http://terminology.hl7.org/CodeSystem/v3-orderableDrugForm","code":"TAB"}}]}]},"request":{"method":"POST","url":"MedicationStatement"}},{"fullUrl":"MedicationStatement/cff7ab3e-488c-46d3-be36-85d7f68adabb","resource":{"resourceType":"MedicationStatement","id":"cff7ab3e-488c-46d3-be36-85d7f68adabb","status":"completed","medicationCodeableConcept":{"coding":[{"system":"http://www.nlm.nih.gov/research/umls/rxnorm","code":"18631"}]},"subject":{"reference":"Patient/93cf73c7-9cf7-4aa6-b9d3-1210c6e39559"},"effectiveDateTime":"2022-05-11T00:00:00+00:00","dosage":[{"doseAndRate":[{"doseQuantity":{"value":6.3,"unit":"TAB","system":"http://terminology.hl7.org/CodeSystem/v3-orderableDrugForm","code":"TAB"}}]}]},"request":{"method":"POST","url":"MedicationStatement"}},{"fullUrl":"Encounter/77058927-b90a-42a9-9877-486c7fc92e0b","resource":{"resourceType":"Encounter","id":"77058927-b90a-42a9-9877-486c7fc92e0b","status":"finished","class":{"system":"http://terminology.hl7.org/CodeSystem/v3-ActCode","code":"IMP","display":"inpatient encounter"},"type":[{"coding":[{"system":"http://terminology.hl7.org/CodeSystem/encounter-type","code":"ADMS"}]}],"subject":{"reference":"Patient/93cf73c7-9cf7-4aa6-b9d3-1210c6e39559"},"period":{"start":"2022-04-08T00:00:00+00:00","end":"2022-04-08T00:00:00+00:00"}},"request":{"method":"POST","url":"Encounter"}},{"fullUrl":"Encounter/eea9499a-2a49-4d0d-935b-209c737a1ed2","resource":{"resourceType":"Encounter","id":"eea9499a-2a49-4d0d-935b-209c737a1ed2","status":"finished","class":{"system":"http://terminology.hl7.org/CodeSystem/v3-ActCode","code":"IMP","display":"inpatient encounter"},"type":[{"coding":[{"system":"http://terminology.hl7.org/CodeSystem/encounter-type","code":"OKI"}]}],"subject":{"reference":"Patient/93cf73c7-9cf7-4aa6-b9d3-1210c6e39559"},"period":{"start":"2022-06-30T00:00:00+00:00","end":"2022-07-06T00:00:00+00:00"}},"request":{"method":"POST","url":"Encounter"}},{"fullUrl":"Encounter/f617589e-2ddc-49dc-8462-d011f677bf21","resource":{"resourceType":"Encounter","id":"f617589e-2ddc-49dc-8462-d011f677bf21","status":"finished","class":{"system":"http://terminology.hl7.org/CodeSystem/v3-ActCode","code":"IMP","display":"inpatient encounter"},"type":[{"coding":[{"system":"http://terminology.hl7.org/CodeSystem/encounter-type","code":"ADMS"}]}],"subject":{"reference":"Patient/93cf73c7-9cf7-4aa6-b9d3-1210c6e39559"},"period":{"start":"2022-03-02T00:00:00+00:00","end":"2022-03-07T00:00:00+00:00"}},"request":{"method":"POST","url":"Encounter"}},{"fullUrl":"Encounter/a4133031-7167-42c5-addb-7915ec97983a","resource":{"resourceType":"Encounter","id":"a4133031-7167-42c5-addb-7915ec97983a","status":"finished","class":{"system":"http://terminology.hl7.org/CodeSystem/v3-ActCode","code":"PRENC","display":"pre-admission"},"type":[{"coding":[{"system":"http://terminology.hl7.org/CodeSystem/encounter-type","code":"CCS60"}]}],"subject":{"reference":"Patient/93cf73c7-9cf7-4aa6-b9d3-1210c6e39559"},"period":{"start":"2022-10-11T00:00:00+00:00","end":"2022-10-17T00:00:00+00:00"}},"request":{"method":"POST","url":"Encounter"}},{"fullUrl":"Encounter/8ac18a13-871b-4135-806a-afd0970b0526","resource":{"resourceType":"Encounter","id":"8ac18a13-871b-4135-806a-afd0970b0526","status":"finished","class":{"system":"http://terminology.hl7.org/CodeSystem/v3-ActCode","code":"PRENC","display":"pre-admission"},"type":[{"coding":[{"system":"http://terminology.hl7.org/CodeSystem/encounter-type","code":"OKI"}]}],"subject":{"reference":"Patient/93cf73c7-9cf7-4aa6-b9d3-1210c6e39559"},"period":{"start":"2022-11-20T00:00:00+00:00","end":"2022-11-23T00:00:00+00:00"}},"request":{"method":"POST","url":"Encounter"}},{"fullUrl":"Encounter/b2ed8b53-8e08-40f8-a03b-ae180022e9cf","resource":{"resourceType":"Encounter","id":"b2ed8b53-8e08-40f8-a03b-ae180022e9cf","status":"finished","class":{"system":"http://terminology.hl7.org/CodeSystem/v3-ActCode","code":"HH","display":"home health"},"type":[{"coding":[{"system":"http://terminology.hl7.org/CodeSystem/encounter-type","code":"CCS60"}]}],"subject":{"reference":"Patient/93cf73c7-9cf7-4aa6-b9d3-1210c6e39559"},"period":{"start":"2022-09-15T00:00:00+00:00","end":"2022-09-17T00:00:00+00:00"}},"request":{"method":"POST","url":"Encounter"}},{"fullUrl":"Patient/e4ab5a6b-eb0d-4e86-a61e-c5271196512d","resource":{"resourceType":"Patient","id":"e4ab5a6b-eb0d-4e86-a61e-c5271196512d","identifier":[{"type":{"coding":[{"system":"http://terminology.hl7.org/CodeSystem/v2-0203","code":"MR"}]},"system":"urn:fhirgen:mrn","value":"270-88-9845"}],"name":[{"use":"official","family":"Greene","given":["Emily"]},{"use":"maiden","family":"Washington"}],"telecom":[{"system":"phone","value":"(120)931-1119x78627","use":"mobile"},{"system":"email","value":"daltongeorge@yahoo.com","use":"mobile"}],"gender":"female","birthDate":"2000-01-24","address":[{"use":"home","line":["14576 Jonathan Unions Apt. 390"],"city":"Nelsonside","state":"SC","postalCode":"58005"},{"use":"old","line":["86029 Christopher Turnpike Suite 184"],"city":"Avilaview","state":"AL","postalCode":"80038"}]},"request":{"method":"POST","url":"Patient"}},{"fullUrl":"Observation/eb11c4c4-03e3-495c-a493-8c0913f1d442","resource":{"resourceType":"Observation","id":"eb11c4c4-03e3-495c-a493-8c0913f1d442","status":"final","code":{"coding":[{"system":"http://loinc.org","code":"47476-7"}]},"subject":{"reference":"Patient/e4ab5a6b-eb0d-4e86-a61e-c5271196512d"},"effectiveDateTime":"2022-02-16T00:00:00+00:00","valueRatio":{"numerator":{"value":1},"denominator":{"value":64}}},"request":{"method":"POST","url":"Observation"}},{"fullUrl":"Observation/e19b71f1-55d9-4680-9796-e36d71df72db","resource":{"resourceType":"Observation","id":"e19b71f1-55d9-4680-9796-e36d71df72db","status":"final","code":{"coding":[{"system":"http://loinc.org","code":"71793-4"}]},"subject":{"reference":"Patient/e4ab5a6b-eb0d-4e86-a61e-c5271196512d"},"effectiveDateTime":"2022-03-11T00:00:00+00:00","valueRatio":{"numerator":{"value":1},"denominator":{"value":4}}},"request":{"method":"POST","url":"Observation"}},{"fullUrl":"Condition/f321dc86-d1a4-4719-a4c9-50cacab6f533","resource":{"resourceType":"Condition","id":"f321dc86-d1a4-4719-a4c9-50cacab6f533","code":{"coding":[{"system":"http://snomed.info/sct","code":"736686006"}]},"subject":{"reference":"Patient/e4ab5a6b-eb0d-4e86-a61e-c5271196512d"},"onsetDateTime":"2022-11-19T00:00:00+00:00"},"request":{"method":"POST","url":"Condition"}},{"fullUrl":"Condition/3ab77c67-b3c5-4dcc-9a87-c8db00167b1e","resource":{"resourceType":"Condition","id":"3ab77c67-b3c5-4dcc-9a87-c8db00167b1e","code":{"coding":[{"system":"http://snomed.info/sct","code":"44882003"}]},"subject":{"reference":"Patient/e4ab5a6b-eb0d-4e86-a61e-c5271196512d"},"onsetDateTime":"2022-08-17T00:00:00+00:00"},"request":{"method":"POST","url":"Condition"}},{"fullUrl":"Condition/bbb16a04-4b95-49fa-8758-2ec2b7029cca","resource":{"resourceType":"Condition","id":"bbb16a04-4b95-49fa-8758-2ec2b7029cca","code":{"coding":[{"system":"http://snomed.info/sct","code":"30746006"}]},"subject":{"reference":"Patient/e4ab5a6b-eb0d-4e86-a61e-c5271196512d"},"onsetDateTime":"2022-05-31T00:00:00+00:00"},"request":{"method":"POST","url":"Condition"}},{"fullUrl":"Condition/0fa563ba-c5d5-4db2-8fce-9813d8c797b3","resource":{"resourceType":"Condition","id":"0fa563ba-c5d5-4db2-8fce-9813d8c797b3","code":{"coding":[{"system":"http://snomed.info/sct","code":"297123002"}]},"subject":{"reference":"Patient/e4ab5a6b-eb0d-4e86-a61e-c5271196512d"},"onsetDateTime":"2022-08-09T00:00:00+00:00"},"request":{"method":"POST","url":"Condition"}},{"fullUrl":"Condition/a5d3a259-5e79-4bd8-a581-f0f1e9e3b752","resource":{"resourceType":"Condition","id":"a5d3a259-5e79-4bd8-a581-f0f1e9e3b752","code":{"coding":[{"system":"http://snomed.info/sct","code":"709977002"}]},"subject":{"reference":"Patient/e4ab5a6b-eb0d-4e86-a61e-c5271196512d"},"onsetDateTime":"2022-01-12T00:00:00+00:00"},"request":{"method":"POST","url":"Condition"}},{"fullUrl":"Condition/f3c0cdb9-1523-4775-a9c2-92c44c9ab8e5","resource":{"resourceType":"Condition","id":"f3c0cdb9-1523-4775-a9c2-92c44c9ab8e5","code":{"coding":[{"system":"http://snomed.info/sct","code":"405737000"}]},"subject":{"reference":"Patient/e4ab5a6b-eb0d-4e86-a61e-c5271196512d"},"onsetDateTime":"2022-07-07T00:00:00+00:00"},"request":{"method":"POST","url":"Condition"}},{"fullUrl":"Condition/0a63539d-b85e-4d2f-b2f5-88d3799f5a1a","resource":{"resourceType":"Condition","id":"0a63539d-b85e-4d2f-b2f5-88d3799f5a1a","code":{"coding":[{"system":"http://snomed.info/sct","code":"271939006"}]},"subject":{"reference":"Patient/e4ab5a6b-eb0d-4e86-a61e-c5271196512d"},"onsetDateTime":"2022-07-06T00:00:00+00:00"},"request":{"method":"POST","url":"Condition"}},{"fullUrl":"Condition/dbd4d582-a04f-4db3-8215-c8366e7ce1bf","resource":{"resourceType":"Condition","id":"dbd4d582-a04f-4db3-8215-c8366e7ce1bf","code":{"coding":[{"system":"http://snomed.info/sct","code":"248980004"}]},"subject":{"reference":"Patient/e4ab5a6b-eb0d-4e86-a61e-c5271196512d"},"onsetDateTime":"2022-06-14T00:00:00+00:00"},"request":{"method":"POST","url":"Condition"}},{"fullUrl":"Observation/ab355e67-df16-4857-8a0b-1411e649f8cc","resource":{"resourceType":"Observation","id":"ab355e67-df16-4857-8a0b-1411e649f8cc","status":"final","code":{"coding":[{"system":"http://loinc.org","code":"26464-8"}]},"subject":{"reference":"Patient/e4ab5a6b-eb0d-4e86-a61e-c5271196512d"},"effectiveDateTime":"2022-10-13T00:00:00+00:00","valueQuantity":{"value":10.9}},"request":{"method":"POST","url":"Observation"}},{"fullUrl":"Observation/7c9e230e-647f-4e1c-96a6-7bf633551b63","resource":{"resourceType":"Observation","id":"7c9e230e-647f-4e1c-96a6-7bf633551b63","status":"final","code":{"coding":[{"system":"http://loinc.org","code":"49498-9"}]},"subject":{"reference":"Patient/e4ab5a6b-eb0d-4e86-a61e-c5271196512d"},"effectiveDateTime":"2022-04-24T00:00:00+00:00","valueQuantity":{"value":10}},"request":{"method":"POST","url":"Observation"}},{"fullUrl":"Observation/bb1c69b4-48bc-4c14-996b-d4130ebf2a67","resource":{"resourceType":"Observation","id":"bb1c69b4-48bc-4c14-996b-d4130ebf2a67","status":"final","code":{"coding":[{"system":"http://loinc.org","code":"49498-9"}]},"subject":{"reference":"Patient/e4ab5a6b-eb0d-4e86-a61e-c5271196512d"},"effectiveDateTime":"2022-11-11T00:00:00+00:00","valueQuantity":{"value":5.1}},"request":{"method":"POST","url":"Observation"}},{"fullUrl":"Observation/5e979e55-75e9-4e50-912a-b9d2116688d7","resource":{"resourceType":"Observation","id":"5e979e55-75e9-4e50-912a-b9d2116688d7","status":"final","code":{"coding":[{"system":"http://loinc.org","code":"49498-9"}]},"subject":{"reference":"Patient/e4ab5a6b-eb0d-4e86-a61e-c5271196512d"},"effectiveDateTime":"2022-05-25T00:00:00+00:00"},"request":{"method":"POST","url":"Observation"}},{"fullUrl":"Observation/e5304494-3b26-4aa1-a745-cdad249eb871","resource":{"resourceType":"Observation","id":"e5304494-3b26-4aa1-a745-cdad249eb871","status":"final","code":{"coding":[{"system":"http://loinc.org","code":"49498-9"}]},"subject":{"reference":"Patient/e4ab5a6b-eb0d-4e86-a61e-c5271196512d"},"effectiveDateTime":"2022-05-07T00:00:00+00:00"},"request":{"method":"POST","url":"Observation"}},{"fullUrl":"Observation/c14f9e83-9e73-49f2-bff9-05a48b618fd2","resource":{"resourceType":"Observation","id":"c14f9e83-9e73-49f2-bff9-05a48b618fd2","status":"final","code":{"coding":[{"system":"http://loinc.org","code":"49498-9"}]},"subject":{"reference":"Patient/e4ab5a6b-eb0d-4e86-a61e-c5271196512d"},"effectiveDateTime":"2022-04-08T00:00:00+00:00"},"request":{"method":"POST","url":"Observation"}},{"fullUrl":"Procedure/81b1f74c-a5e4-4eaa-adbd-d4c6e4997752","resource":{"resourceType":"Procedure","id":"81b1f74c-a5e4-4eaa-adbd-d4c6e4997752","status":"completed","code":{"coding":[{"system":"http://snomed.info/sct","code":"189009"}]},"subject":{"reference":"Patient/e4ab5a6b-eb0d-4e86-a61e-c5271196512d"},"performedDateTime":"2022-10-03T00:00:00+00:00"},"request":{"method":"POST","url":"Procedure"}},{"fullUrl":"Procedure/dac33b1a-ea0e-4710-a3f7-83dbdbb041ea","resource":{"resourceType":"Procedure","id":"dac33b1a-ea0e-4710-a3f7-83dbdbb041ea","status":"completed","code":{"coding":[{"system":"http://snomed.info/sct","code":"647000"}]},"subject":{"reference":"Patient/e4ab5a6b-eb0d-4e86-a61e-c5271196512d"},"performedDateTime":"2022-10-08T00:00:00+00:00"},"request":{"method":"POST","url":"Procedure"}},{"fullUrl":"Procedure/fe757ba8-2c6d-4110-b374-ffd8e404608f","resource":{"resourceType":"Procedure","id":"fe757ba8-2c6d-4110-b374-ffd8e404608f","status":"completed","code":{"coding":[{"system":"http://snomed.info/sct","code":"189009"}]},"subject":{"reference":"Patient/e4ab5a6b-eb0d-4e86-a61e-c5271196512d"},"performedDateTime":"2022-03-19T00:00:00+00:00"},"request":{"method":"POST","url":"Procedure"}},{"fullUrl":"MedicationStatement/4a3393f2-f369-457e-8013-27ee9943b86d","resource":{"resourceType":"MedicationStatement","id":"4a3393f2-f369-457e-8013-27ee9943b86d","status":"completed","medicationCodeableConcept":{"coding":[{"system":"http://www.nlm.nih.gov/research/umls/rxnorm","code":"2193"}]},"subject":{"reference":"Patient/e4ab5a6b-eb0d-4e86-a61e-c5271196512d"},"effectiveDateTime":"2022-07-29T00:00:00+00:00","dosage":[{"doseAndRate":[{"doseQuantity":{"value":2,"unit":"TAB","system":"http://terminology.hl7.org/CodeSystem/v3-orderableDrugForm","code":"TAB"}}]}]},"request":{"method":"POST","url":"MedicationStatement"}},{"fullUrl":"MedicationStatement/84c1c821-64da-407d-9a4b-5356c9355cdc","resource":{"resourceType":"MedicationStatement","id":"84c1c821-64da-407d-9a4b-5356c9355cdc","status":"completed","medicationCodeableConcept":{"coding":[{"system":"http://www.nlm.nih.gov/research/umls/rxnorm","code":"3640"}]},"subject":{"reference":"Patient/e4ab5a6b-eb0d-4e86-a61e-c5271196512d"},"effectiveDateTime":"2022-07-16T00:00:00+00:00","dosage":[{"doseAndRate":[{"doseQuantity":{"value":2,"unit":"TAB","system":"http://terminology.hl7.org/CodeSystem/v3-orderableDrugForm","code":"TAB"}}]}]},"request":{"method":"POST","url":"MedicationStatement"}},{"fullUrl":"MedicationStatement/4fb4812a-763c-4d84-85be-a8e5f40088a6","resource":{"resourceType":"MedicationStatement","id":"4fb4812a-763c-4d84-85be-a8e5f40088a6","status":"completed","medicationCodeableConcept":{"coding":[{"system":"http://www.nlm.nih.gov/research/umls/rxnorm","code":"10395"}]},"subject":{"reference":"Patient/e4ab5a6b-eb0d-4e86-a61e-c5271196512d"},"effectiveDateTime":"2022-05-23T00:00:00+00:00","dosage":[{"doseAndRate":[{"doseQuantity":{"value":1,"unit":"TAB","system":"http://terminology.hl7.org/CodeSystem/v3-orderableDrugForm","code":"TAB"}}]}]},"request":{"method":"POST","url":"MedicationStatement"}},{"fullUrl":"MedicationStatement/06c9e6f4-6209-4f52-a16c-64b52c0bbaaa","resource":{"resourceType":"MedicationStatement","id":"06c9e6f4-6209-4f52-a16c-64b52c0bbaaa","status":"completed","medicationCodeableConcept":{"coding":[{"system":"http://www.nlm.nih.gov/research/umls/rxnorm","code":"7980"}]},"subject":{"reference":"Patient/e4ab5a6b-eb0d-4e86-a61e-c5271196512d"},"effectiveDateTime":"2022-03-25T00:00:00+00:00","dosage":[{"doseAndRate":[{"doseQuantity":{"value":1,"unit":"TAB","system":"http://terminology.hl7.org/CodeSystem/v3-orderableDrugForm","code":"TAB"}}]}]},"request":{"method":"POST","url":"MedicationStatement"}},{"fullUrl":"MedicationStatement/18f16c26-83e0-4736-8057-46e078ce168c","resource":{"resourceType":"MedicationStatement","id":"18f16c26-83e0-4736-8057-46e078ce168c","status":"completed","medicationCodeableConcept":{"coding":[{"system":"http://www.nlm.nih.gov/research/umls/rxnorm","code":"10395"}]},"subject":{"reference":"Patient/e4ab5a6b-eb0d-4e86-a61e-c5271196512d"},"effectiveDateTime":"2022-05-29T00:00:00+00:00","dosage":[{"doseAndRate":[{"doseQuantity":{"value":2,"unit":"TAB","system":"http://terminology.hl7.org/CodeSystem/v3-orderableDrugForm","code":"TAB"}}]}]},"request":{"method":"POST","url":"MedicationStatement"}},{"fullUrl":"MedicationStatement/d5e86aa1-64c2-462e-b9ae-2fc00a8c2320","resource":{"resourceType":"MedicationStatement","id":"d5e86aa1-64c2-462e-b9ae-2fc00a8c2320","status":"completed","medicationCodeableConcept":{"coding":[{"system":"http://www.nlm.nih.gov/research/umls/rxnorm","code":"7980"}]},"subject":{"reference":"Patient/e4ab5a6b-eb0d-4e86-a61e-c5271196512d"},"effectiveDateTime":"2022-09-06T00:00:00+00:00","dosage":[{"doseAndRate":[{"doseQuantity":{"value":1,"unit":"TAB","system":"http://terminology.hl7.org/CodeSystem/v3-orderableDrugForm","code":"TAB"}}]}]},"request":{"method":"POST","url":"MedicationStatement"}},{"fullUrl":"MedicationStatement/e93ff0c7-7168-4de9-b474-d72536f08f5f","resource":{"resourceType":"MedicationStatement","id":"e93ff0c7-7168-4de9-b474-d72536f08f5f","status":"completed","medicationCodeableConcept":{"coding":[{"system":"http://www.nlm.nih.gov/research/umls/rxnorm","code":"10395"}]},"subject":{"reference":"Patient/e4ab5a6b-eb0d-4e86-a61e-c5271196512d"},"effectiveDateTime":"2022-09-14T00:00:00+00:00","dosage":[{"doseAndRate":[{"doseQuantity":{"value":2,"unit":"TAB","system":"http://terminology.hl7.org/CodeSystem/v3-orderableDrugForm","code":"TAB"}}]}]},"request":{"method":"POST","url":"MedicationStatement"}},{"fullUrl":"MedicationStatement/39167aa4-236e-4044-ba07-14a57da3ec6e","resource":{"resourceType":"MedicationStatement","id":"39167aa4-236e-4044-ba07-14a57da3ec6e","status":"completed","medicationCodeableConcept":{"coding":[{"system":"http://www.nlm.nih.gov/research/umls/rxnorm","code":"2193"}]},"subject":{"reference":"Patient/e4ab5a6b-eb0d-4e86-a61e-c5271196512d"},"effectiveDateTime":"2022-02-25T00:00:00+00:00","dosage":[{"doseAndRate":[{"doseQuantity":{"value":1,"unit":"TAB","system":"http://terminology.hl7.org/CodeSystem/v3-orderableDrugForm","code":"TAB"}}]}]},"request":{"method":"POST","url":"MedicationStatement"}},{"fullUrl":"MedicationStatement/b46e6660-cfff-446b-987f-51e96c73b41f","resource":{"resourceType":"MedicationStatement","id":"b46e6660-cfff-446b-987f-51e96c73b41f","status":"completed","medicationCodeableConcept":{"coding":[{"system":"http://www.nlm.nih.gov/research/umls/rxnorm","code":"3640"}]},"subject":{"reference":"Patient/e4ab5a6b-eb0d-4e86-a61e-c5271196512d"},"effectiveDateTime":"2022-03-22T00:00:00+00:00","dosage":[{"doseAndRate":[{"doseQuantity":{"value":3.8,"unit":"TAB","system":"http://terminology.hl7.org/CodeSystem/v3-orderableDrugForm","code":"TAB"}}]}]},"request":{"method":"POST","url":"MedicationStatement"}},{"fullUrl":"MedicationStatement/6a0b6cc5-8b37-4bef-bf34-b4846769b723","resource":{"resourceType":"MedicationStatement","id":"6a0b6cc5-8b37-4bef-bf34-b4846769b723","status":"completed","medicationCodeableConcept":{"coding":[{"system":"http://www.nlm.nih.gov/research/umls/rxnorm","code":"2193"}]},"subject":{"reference":"Patient/e4ab5a6b-eb0d-4e86-a61e-c5271196512d"},"effectiveDateTime":"2022-10-14T00:00:00+00:00","dosage":[{"doseAndRate":[{"doseQuantity":{"value":6.1,"unit":"TAB","system":"http://terminology.hl7.org/CodeSystem/v3-orderableDrugForm","code":"TAB"}}]}]},"request":{"method":"POST","url":"MedicationStatement"}},{"fullUrl":"MedicationStatement/49e4a70e-9c32-4d30-aaa8-5dc58d290a9a","resource":{"resourceType":"MedicationStatement","id":"49e4a70e-9c32-4d30-aaa8-5dc58d290a9a","status":"completed","medicationCodeableConcept":{"coding":[{"system":"http://www.nlm.nih.gov/research/umls/rxnorm","code":"18631"}]},"subject":{"reference":"Patient/e4ab5a6b-eb0d-4e86-a61e-c5271196512d"},"effectiveDateTime":"2022-06-03T00:00:00+00:00","dosage":[{"doseAndRate":[{"doseQuantity":{"value":4.8,"unit":"TAB","system":"http://terminology.hl7.org/CodeSystem/v3-orderableDrugForm","code":"TAB"}}]}]},"request":{"method":"POST","url":"MedicationStatement"}},{"fullUrl":"Encounter/fb2f9d43-4ef4-4b97-8eb3-9feaacaab22f","resource":{"resourceType":"Encounter","id":"fb2f9d43-4ef4-4b97-8eb3-9feaacaab22f","status":"finished","class":{"system":"http://terminology.hl7.org/CodeSystem/v3-ActCode","code":"IMP","display":"inpatient encounter"},"type":[{"coding":[{"system":"http://terminology.hl7.org/CodeSystem/encounter-type","code":"BD/BM-clin"}]}],"subject":{"reference":"Patient/e4ab5a6b-eb0d-4e86-a61e-c5271196512d"},"period":{"start":"2022-01-03T00:00:00+00:00","end":"2022-01-10T00:00:00+00:00"}},"request":{"method":"POST","url":"Encounter"}},{"fullUrl":"Encounter/2d209758-f3df-4088-8437-e7b80572fbd4","resource":{"resourceType":"Encounter","id":"2d209758-f3df-4088-8437-e7b80572fbd4","status":"finished","class":{"system":"http://terminology.hl7.org/CodeSystem/v3-ActCode","code":"IMP","display":"inpatient encounter"},"type":[{"coding":[{"system":"http://terminology.hl7.org/CodeSystem/encounter-type","code":"BD/BM-clin"}]}],"subject":{"reference":"Patient/e4ab5a6b-eb0d-4e86-a61e-c5271196512d"},"period":{"start":"2022-08-08T00:00:00+00:00","end":"2022-08-08T00:00:00+00:00"}},"request":{"method":"POST","url":"Encounter"}},{"fullUrl":"Encounter/d146c051-2491-4c5d-9775-496cde5b2320","resource":{"resourceType":"Encounter","id":"d146c051-2491-4c5d-9775-496cde5b2320","status":"finished","class":{"system":"http://terminology.hl7.org/CodeSystem/v3-ActCode","code":"NONAC","display":"inpatient non-acute"},"type":[{"coding":[{"system":"http://terminology.hl7.org/CodeSystem/encounter-type","code":"CCS60"}]}],"subject":{"reference":"Patient/e4ab5a6b-eb0d-4e86-a61e-c5271196512d"},"period":{"start":"2022-10-07T00:00:00+00:00","end":"2022-10-13T00:00:00+00:00"}},"request":{"method":"POST","url":"Encounter"}},{"fullUrl":"Encounter/a12a074d-991a-4c1e-83c9-9c3b9c6a59cb","resource":{"resourceType":"Encounter","id":"a12a074d-991a-4c1e-83c9-9c3b9c6a59cb","status":"finished","class":{"system":"http://terminology.hl7.org/CodeSystem/v3-ActCode","code":"ACUTE","display":"inpatient acute"},"type":[{"coding":[{"system":"http://terminology.hl7.org/CodeSystem/encounter-type","code":"ADMS"}]}],"subject":{"reference":"Patient/e4ab5a6b-eb0d-4e86-a61e-c5271196512d"},"period":{"start":"2022-04-27T00:00:00+00:00","end":"2022-05-06T00:00:00+00:00"}},"request":{"method":"POST","url":"Encounter"}},{"fullUrl":"Patient/8daecb15-410d-4614-affe-235623e01518","resource":{"resourceType":"Patient","id":"8daecb15-410d-4614-affe-235623e01518","identifier":[{"type":{"coding":[{"system":"http://terminology.hl7.org/CodeSystem/v2-0203","code":"MR"}]},"system":"urn:fhirgen:mrn","value":"702-32-7585"}],"name":[{"use":"official","family":"Wagner","given":["Leslie"]},{"use":"maiden","family":"Hensley"}],"telecom":[{"system":"phone","value":"+1-171-901-8669x292","use":"work"},{"system":"email","value":"mhanna@hotmail.com","use":"mobile"}],"gender":"female","birthDate":"1968-05-09","address":[{"use":"home","line":["670 Landry Shoals"],"city":"South Sandra","state":"MD","postalCode":"89099"},{"use":"old","line":["981 Garcia Trace Apt. 434"],"city":"Cardenasmouth","state":"SC","postalCode":"43156"}]},"request":{"method":"POST","url":"Patient"}},{"fullUrl":"Observation/a5f71c0b-fbbf-410b-a568-04f31f1d6bb7","resource":{"resourceType":"Observation","id":"a5f71c0b-fbbf-410b-a568-04f31f1d6bb7","status":"final","code":{"coding":[{"system":"http://loinc.org","code":"34382-2"}]},"subject":{"reference":"Patient/8daecb15-410d-4614-affe-235623e01518"},"effectiveDateTime":"2022-05-22T00:00:00+00:00","valueRatio":{"numerator":{"value":1},"denominator":{"value":32}}},"request":{"method":"POST","url":"Observation"}},{"fullUrl":"Observation/86f2aac4-6887-428d-9c5c-00e4b9e61290","resource":{"resourceType":"Observation","id":"86f2aac4-6887-428d-9c5c-00e4b9e61290","status":"final","code":{"coding":[{"system":"http://loinc.org","code":"47476-7"}]},"subject":{"reference":"Patient/8daecb15-410d-4614-affe-235623e01518"},"effectiveDateTime":"2022-03-01T00:00:00+00:00","valueRatio":{"numerator":{"value":1},"denominator":{"value":64}}},"request":{"method":"POST","url":"Observation"}},{"fullUrl":"Condition/d92567ac-3295-4f81-bbef-c63ef2fe4f1f","resource":{"resourceType":"Condition","id":"d92567ac-3295-4f81-bbef-c63ef2fe4f1f","code":{"coding":[{"system":"http://snomed.info/sct","code":"56317004"}]},"subject":{"reference":"Patient/8daecb15-410d-4614-affe-235623e01518"},"onsetDateTime":"2022-09-20T00:00:00+00:00"},"request":{"method":"POST","url":"Condition"}},{"fullUrl":"Condition/272c3a1d-3be8-4e76-8889-351e0fe72744","resource":{"resourceType":"Condition","id":"272c3a1d-3be8-4e76-8889-351e0fe72744","code":{"coding":[{"system":"http://snomed.info/sct","code":"30746006"}]},"subject":{"reference":"Patient/8daecb15-410d-4614-affe-235623e01518"},"onsetDateTime":"2022-11-02T00:00:00+00:00"},"request":{"method":"POST","url":"Condition"}},{"fullUrl":"Condition/1a0aa84c-53bf-4f54-be45-67dd445f170e","resource":{"resourceType":"Condition","id":"1a0aa84c-53bf-4f54-be45-67dd445f170e","code":{"coding":[{"system":"http://snomed.info/sct","code":"79342006"}]},"subject":{"reference":"Patient/8daecb15-410d-4614-affe-235623e01518"},"onsetDateTime":"2022-01-18T00:00:00+00:00"},"request":{"method":"POST","url":"Condition"}},{"fullUrl":"Condition/b492e960-0e86-4548-abfe-e5f8e7cf24ba","resource":{"resourceType":"Condition","id":"b492e960-0e86-4548-abfe-e5f8e7cf24ba","code":{"coding":[{"system":"http://snomed.info/sct","code":"79342006"}]},"subject":{"reference":"Patient/8daecb15-410d-4614-affe-235623e01518"},"onsetDateTime":"2022-08-26T00:00:00+00:00"},"request":{"method":"POST","url":"Condition"}},{"fullUrl":"Observation/6e877b23-721d-4018-9d03-62bb5062da9f","resource":{"resourceType":"Observation","id":"6e877b23-721d-4018-9d03-62bb5062da9f","status":"final","code":{"coding":[{"system":"http://loinc.org","code":"804-5"}]},"subject":{"reference":"Patient/8daecb15-410d-4614-affe-235623e01518"},"effectiveDateTime":"2022-01-07T00:00:00+00:00","valueQuantity":{"value":8.1}},"request":{"method":"POST","url":"Observation"}},{"fullUrl":"Observation/cf187952-f463-4c68-8974-4d51e0b6e884","resource":{"resourceType":"Observation","id":"cf187952-f463-4c68-8974-4d51e0b6e884","status":"final","code":{"coding":[{"system":"http://loinc.org","code":"26464-8"}]},"subject":{"reference":"Patient/8daecb15-410d-4614-affe-235623e01518"},"effectiveDateTime":"2022-10-20T00:00:00+00:00","valueQuantity":{"value":7.4}},"request":{"method":"POST","url":"Observation"}},{"fullUrl":"Observation/0a10dbfc-fc2c-445a-8ea5-7d9f3ed5a2bd","resource":{"resourceType":"Observation","id":"0a10dbfc-fc2c-445a-8ea5-7d9f3ed5a2bd","status":"final","code":{"coding":[{"system":"http://loinc.org","code":"49498-9"}]},"subject":{"reference":"Patient/8daecb15-410d-4614-affe-235623e01518"},"effectiveDateTime":"2022-01-20T00:00:00+00:00","valueQuantity":{"value":10.3}},"request":{"method":"POST","url":"Observation"}},{"fullUrl":"Observation/352584cf-4748-4531-a939-3e956d2588a1","resource":{"resourceType":"Observation","id":"352584cf-4748-4531-a939-3e956d2588a1","status":"final","code":{"coding":[{"system":"http://loinc.org","code":"49498-9"}]},"subject":{"reference":"Patient/8daecb15-410d-4614-affe-235623e01518"},"effectiveDateTime":"2022-11-15T00:00:00+00:00"},"request":{"method":"POST","url":"Observation"}},{"fullUrl":"Observation/63a10ed8-852e-4212-8ecd-e2ddf7d40503","resource":{"resourceType":"Observation","id":"63a10ed8-852e-4212-8ecd-e2ddf7d40503","status":"final","code":{"coding":[{"system":"http://loinc.org","code":"49498-9"}]},"subject":{"reference":"Patient/8daecb15-410d-4614-affe-235623e01518"},"effectiveDateTime":"2022-04-11T00:00:00+00:00"},"request":{"method":"POST","url":"Observation"}},{"fullUrl":"Observation/3fd81554-6dc9-4818-a5c6-f46a8888bd42","resource":{"resourceType":"Observation","id":"3fd81554-6dc9-4818-a5c6-f46a8888bd42","status":"final","code":{"coding":[{"system":"http://loinc.org","code":"49498-9"}]},"subject":{"reference":"Patient/8daecb15-410d-4614-affe-235623e01518"},"effectiveDateTime":"2022-08-28T00:00:00+00:00"},"request":{"method":"POST","url":"Observation"}},{"fullUrl":"Procedure/fb786015-586e-46e7-8104-7e9720687448","resource":{"resourceType":"Procedure","id":"fb786015-586e-46e7-8104-7e9720687448","status":"completed","code":{"coding":[{"system":"http://snomed.info/sct","code":"146005"}]},"subject":{"reference":"Patient/8daecb15-410d-4614-affe-235623e01518"},"performedDateTime":"2022-11-14T00:00:00+00:00"},"request":{"method":"POST","url":"Procedure"}},{"fullUrl":"Procedure/d5d8f95b-1841-4e68-9a89-4bc031ccfe88","resource":{"resourceType":"Procedure","id":"d5d8f95b-1841-4e68-9a89-4bc031ccfe88","status":"completed","code":{"coding":[{"system":"http://snomed.info/sct","code":"189009"}]},"subject":{"reference":"Patient/8daecb15-410d-4614-affe-235623e01518"},"performedDateTime":"2022-03-21T00:00:00+00:00"},"request":{"method":"POST","url":"Procedure"}},{"fullUrl":"Procedure/31246139-562b-4bcc-9fa6-5da9825ec409","resource":{"resourceType":"Procedure","id":"31246139-562b-4bcc-9fa6-5da9825ec409","status":"completed","code":{"coding":[{"system":"http://snomed.info/sct","code":"146005"}]},"subject":{"reference":"Patient/8daecb15-410d-4614-affe-235623e01518"},"performedDateTime":"2022-12-18T00:00:00+00:00"},"request":{"method":"POST","url":"Procedure"}},{"fullUrl":"MedicationStatement/a95dbc2e-b925-4b83-b197-0ea879cc348a","resource":{"resourceType":"MedicationStatement","id":"a95dbc2e-b925-4b83-b197-0ea879cc348a","status":"completed","medicationCodeableConcept":{"coding":[{"system":"http://www.nlm.nih.gov/research/umls/rxnorm","code":"2193"}]},"subject":{"reference":"Patient/8daecb15-410d-4614-affe-235623e01518"},"effectiveDateTime":"2022-03-06T00:00:00+00:00","dosage":[{"doseAndRate":[{"doseQuantity":{"value":1,"unit":"TAB","system":"http://terminology.hl7.org/CodeSystem/v3-orderableDrugForm","code":"TAB"}}]}]},"request":{"method":"POST","url":"MedicationStatement"}},{"fullUrl":"MedicationStatement/204fde56-e770-4658-9206-37390d245b64","resource":{"resourceType":"MedicationStatement","id":"204fde56-e770-4658-9206-37390d245b64","status":"completed","medicationCodeableConcept":{"coding":[{"system":"http://www.nlm.nih.gov/research/umls/rxnorm","code":"7980"}]},"subject":{"reference":"Patient/8daecb15-410d-4614-affe-235623e01518"},"effectiveDateTime":"2022-05-25T00:00:00+00:00","dosage":[{"doseAndRate":[{"doseQuantity":{"value":2,"unit":"TAB","system":"http://terminology.hl7.org/CodeSystem/v3-orderableDrugForm","code":"TAB"}}]}]},"request":{"method":"POST","url":"MedicationStatement"}},{"fullUrl":"MedicationStatement/e4da6a06-525a-44ae-8be6-b891b0c0612d","resource":{"resourceType":"MedicationStatement","id":"e4da6a06-525a-44ae-8be6-b891b0c0612d","status":"completed","medicationCodeableConcept":{"coding":[{"system":"http://www.nlm.nih.gov/research/umls/rxnorm","code":"10395"}]},"subject":{"reference":"Patient/8daecb15-410d-4614-affe-235623e01518"},"effectiveDateTime":"2022-12-30T00:00:00+00:00","dosage":[{"doseAndRate":[{"doseQuantity":{"value":1,"unit":"TAB","system":"http://terminology.hl7.org/CodeSystem/v3-orderableDrugForm","code":"TAB"}}]}]},"request":{"method":"POST","url":"MedicationStatement"}},{"fullUrl":"MedicationStatement/cdf44617-4e5e-4941-aaae-5d7d4a09c0ed","resource":{"resourceType":"MedicationStatement","id":"cdf44617-4e5e-4941-aaae-5d7d4a09c0ed","status":"completed","medicationCodeableConcept":{"coding":[{"system":"http://www.nlm.nih.gov/research/umls/rxnorm","code":"8698"}]},"subject":{"reference":"Patient/8daecb15-410d-4614-affe-235623e01518"},"effectiveDateTime":"2022-05-20T00:00:00+00:00","dosage":[{"doseAndRate":[{"doseQuantity":{"value":4.7,"unit":"TAB","system":"http://terminology.hl7.org/CodeSystem/v3-orderableDrugForm","code":"TAB"}}]}]},"request":{"method":"POST","url":"MedicationStatement"}},{"fullUrl":"MedicationStatement/f6667ffb-5d3e-4f18-89cd-56db1c0b4e46","resource":{"resourceType":"MedicationStatement","id":"f6667ffb-5d3e-4f18-89cd-56db1c0b4e46","status":"completed","medicationCodeableConcept":{"coding":[{"system":"http://www.nlm.nih.gov/research/umls/rxnorm","code":"18631"}]},"subject":{"reference":"Patient/8daecb15-410d-4614-affe-235623e01518"},"effectiveDateTime":"2022-10-09T00:00:00+00:00","dosage":[{"doseAndRate":[{"doseQuantity":{"value":5.2,"unit":"TAB","system":"http://terminology.hl7.org/CodeSystem/v3-orderableDrugForm","code":"TAB"}}]}]},"request":{"method":"POST","url":"MedicationStatement"}},{"fullUrl":"MedicationStatement/49afe740-b9b5-4a42-838f-d68499144412","resource":{"resourceType":"MedicationStatement","id":"49afe740-b9b5-4a42-838f-d68499144412","status":"completed","medicationCodeableConcept":{"coding":[{"system":"http://www.nlm.nih.gov/research/umls/rxnorm","code":"10395"}]},"subject":{"reference":"Patient/8daecb15-410d-4614-affe-235623e01518"},"effectiveDateTime":"2022-12-10T00:00:00+00:00","dosage":[{"doseAndRate":[{"doseQuantity":{"value":4.1,"unit":"TAB","system":"http://terminology.hl7.org/CodeSystem/v3-orderableDrugForm","code":"TAB"}}]}]},"request":{"method":"POST","url":"MedicationStatement"}},{"fullUrl":"MedicationStatement/6adf7d31-394d-4c7f-b80c-0f3f6835fc56","resource":{"resourceType":"MedicationStatement","id":"6adf7d31-394d-4c7f-b80c-0f3f6835fc56","status":"completed","medicationCodeableConcept":{"coding":[{"system":"http://www.nlm.nih.gov/research/umls/rxnorm","code":"3640"}]},"subject":{"reference":"Patient/8daecb15-410d-4614-affe-235623e01518"},"effectiveDateTime":"2022-09-03T00:00:00+00:00","dosage":[{"doseAndRate":[{"doseQuantity":{"value":6.2,"unit":"TAB","system":"http://terminology.hl7.org/CodeSystem/v3-orderableDrugForm","code":"TAB"}}]}]},"request":{"method":"POST","url":"MedicationStatement"}},{"fullUrl":"MedicationStatement/87cfd3c2-54e1-4049-8d6d-633d505b1dd1","resource":{"resourceType":"MedicationStatement","id":"87cfd3c2-54e1-4049-8d6d-633d505b1dd1","status":"completed","medicationCodeableConcept":{"coding":[{"system":"http://www.nlm.nih.gov/research/umls/rxnorm","code":"18631"}]},"subject":{"reference":"Patient/8daecb15-410d-4614-affe-235623e01518"},"effectiveDateTime":"2022-09-29T00:00:00+00:00","dosage":[{"doseAndRate":[{"doseQuantity":{"value":5,"unit":"TAB","system":"http://terminology.hl7.org/CodeSystem/v3-orderableDrugForm","code":"TAB"}}]}]},"request":{"method":"POST","url":"MedicationStatement"}},{"fullUrl":"MedicationStatement/198c28fd-b99f-44ba-9226-89c63b3959fc","resource":{"resourceType":"MedicationStatement","id":"198c28fd-b99f-44ba-9226-89c63b3959fc","status":"completed","medicationCodeableConcept":{"coding":[{"system":"http://www.nlm.nih.gov/research/umls/rxnorm","code":"7980"}]},"subject":{"reference":"Patient/8daecb15-410d-4614-affe-235623e01518"},"effectiveDateTime":"2022-06-12T00:00:00+00:00","dosage":[{"doseAndRate":[{"doseQuantity":{"value":6.4,"unit":"TAB","system":"http://terminology.hl7.org/CodeSystem/v3-orderableDrugForm","code":"TAB"}}]}]},"request":{"method":"POST","url":"MedicationStatement"}},{"fullUrl":"MedicationStatement/9f951497-4aa8-408c-ba65-8351fc0b8a34","resource":{"resourceType":"MedicationStatement","id":"9f951497-4aa8-408c-ba65-8351fc0b8a34","status":"completed","medicationCodeableConcept":{"coding":[{"system":"http://www.nlm.nih.gov/research/umls/rxnorm","code":"7984"}]},"subject":{"reference":"Patient/8daecb15-410d-4614-affe-235623e01518"},"effectiveDateTime":"2022-05-29T00:00:00+00:00","dosage":[{"doseAndRate":[{"doseQuantity":{"value":3.7,"unit":"TAB","system":"http://terminology.hl7.org/CodeSystem/v3-orderableDrugForm","code":"TAB"}}]}]},"request":{"method":"POST","url":"MedicationStatement"}},{"fullUrl":"MedicationStatement/3ae20035-3c60-4256-85bf-6d8dea6727de","resource":{"resourceType":"MedicationStatement","id":"3ae20035-3c60-4256-85bf-6d8dea6727de","status":"completed","medicationCodeableConcept":{"coding":[{"system":"http://www.nlm.nih.gov/research/umls/rxnorm","code":"2193"}]},"subject":{"reference":"Patient/8daecb15-410d-4614-affe-235623e01518"},"effectiveDateTime":"2022-07-14T00:00:00+00:00","dosage":[{"doseAndRate":[{"doseQuantity":{"value":4.9,"unit":"TAB","system":"http://terminology.hl7.org/CodeSystem/v3-orderableDrugForm","code":"TAB"}}]}]},"request":{"method":"POST","url":"MedicationStatement"}},{"fullUrl":"Encounter/6cd606c9-bc48-432f-ad85-57d9c216fca3","resource":{"resourceType":"Encounter","id":"6cd606c9-bc48-432f-ad85-57d9c216fca3","status":"finished","class":{"system":"http://terminology.hl7.org/CodeSystem/v3-ActCode","code":"IMP","display":"inpatient encounter"},"type":[{"coding":[{"system":"http://terminology.hl7.org/CodeSystem/encounter-type","code":"CCS60"}]}],"subject":{"reference":"Patient/8daecb15-410d-4614-affe-235623e01518"},"period":{"start":"2022-04-01T00:00:00+00:00","end":"2022-04-08T00:00:00+00:00"}},"request":{"method":"POST","url":"Encounter"}},{"fullUrl":"Encounter/ae591b55-7456-4ba1-9954-0e21760483d7","resource":{"resourceType":"Encounter","id":"ae591b55-7456-4ba1-9954-0e21760483d7","status":"finished","class":{"system":"http://terminology.hl7.org/CodeSystem/v3-ActCode","code":"IMP","display":"inpatient encounter"},"type":[{"coding":[{"system":"http://terminology.hl7.org/CodeSystem/encounter-type","code":"OKI"}]}],"subject":{"reference":"Patient/8daecb15-410d-4614-affe-235623e01518"},"period":{"start":"2022-12-23T00:00:00+00:00","end":"2022-12-25T00:00:00+00:00"}},"request":{"method":"POST","url":"Encounter"}},{"fullUrl":"Encounter/d47ff9c9-4b47-44c0-aa68-3630145e710d","resource":{"resourceType":"Encounter","id":"d47ff9c9-4b47-44c0-aa68-3630145e710d","status":"finished","class":{"system":"http://terminology.hl7.org/CodeSystem/v3-ActCode","code":"IMP","display":"inpatient encounter"},"type":[{"coding":[{"system":"http://terminology.hl7.org/CodeSystem/encounter-type","code":"CCS60"}]}],"subject":{"reference":"Patient/8daecb15-410d-4614-affe-235623e01518"},"period":{"start":"2022-08-01T00:00:00+00:00","end":"2022-08-07T00:00:00+00:00"}},"request":{"method":"POST","url":"Encounter"}},{"fullUrl":"Encounter/e877693f-0d84-4fee-b2c6-bb0db9e11669","resource":{"resourceType":"Encounter","id":"e877693f-0d84-4fee-b2c6-bb0db9e11669","status":"finished","class":{"system":"http://terminology.hl7.org/CodeSystem/v3-ActCode","code":"OBSENC","display":"observation encounter"},"type":[{"coding":[{"system":"http://terminology.hl7.org/CodeSystem/encounter-type","code":"BD/BM-clin"}]}],"subject":{"reference":"Patient/8daecb15-410d-4614-affe-235623e01518"},"period":{"start":"2022-01-12T00:00:00+00:00","end":"2022-01-19T00:00:00+00:00"}},"request":{"method":"POST","url":"Encounter"}},{"fullUrl":"Encounter/e6066f5f-9286-4719-8040-68afa13d3a01","resource":{"resourceType":"Encounter","id":"e6066f5f-9286-4719-8040-68afa13d3a01","status":"finished","class":{"system":"http://terminology.hl7.org/CodeSystem/v3-ActCode","code":"ACUTE","display":"inpatient acute"},"type":[{"coding":[{"system":"http://terminology.hl7.org/CodeSystem/encounter-type","code":"OKI"}]}],"subject":{"reference":"Patient/8daecb15-410d-4614-affe-235623e01518"},"period":{"start":"2022-05-04T00:00:00+00:00","end":"2022-05-04T00:00:00+00:00"}},"request":{"method":"POST","url":"Encounter"}},{"fullUrl":"Encounter/9a6fa539-7cad-41b8-b41d-5985c87c9d0a","resource":{"resourceType":"Encounter","id":"9a6fa539-7cad-41b8-b41d-5985c87c9d0a","status":"finished","class":{"system":"http://terminology.hl7.org/CodeSystem/v3-ActCode","code":"NONAC","display":"inpatient non-acute"},"type":[{"coding":[{"system":"http://terminology.hl7.org/CodeSystem/encounter-type","code":"OKI"}]}],"subject":{"reference":"Patient/8daecb15-410d-4614-affe-235623e01518"},"period":{"start":"2022-05-23T00:00:00+00:00","end":"2022-05-23T00:00:00+00:00"}},"request":{"method":"POST","url":"Encounter"}},{"fullUrl":"Patient/3d0914e0-9bf5-42a6-8b83-0194ce2a8e0a","resource":{"resourceType":"Patient","id":"3d0914e0-9bf5-42a6-8b83-0194ce2a8e0a","identifier":[{"type":{"coding":[{"system":"http://terminology.hl7.org/CodeSystem/v2-0203","code":"MR"}]},"system":"urn:fhirgen:mrn","value":"063-04-6029"}],"name":[{"use":"official","family":"Craig","given":["Peter"]},{"use":"maiden","family":"Stevens"}],"telecom":[{"system":"phone","value":"(964)779-7311x3138","use":"mobile"},{"system":"email","value":"cindylopez@gmail.com","use":"mobile"}],"gender":"other","birthDate":"1982-12-17","address":[{"use":"home","line":["263 Allen Corners"],"city":"North Jamesbury","state":"NY","postalCode":"40756"},{"use":"old","line":["0955 Espinoza Vista Apt. 351"],"city":"Port Denise","state":"VA","postalCode":"33040"}]},"request":{"method":"POST","url":"Patient"}},{"fullUrl":"Observation/1dd522ba-1936-4594-9028-d6cac9ba20d5","resource":{"resourceType":"Observation","id":"1dd522ba-1936-4594-9028-d6cac9ba20d5","status":"final","code":{"coding":[{"system":"http://loinc.org","code":"31146-4"}]},"subject":{"reference":"Patient/3d0914e0-9bf5-42a6-8b83-0194ce2a8e0a"},"effectiveDateTime":"2022-01-29T00:00:00+00:00","valueRatio":{"numerator":{"value":1},"denominator":{"value":64}}},"request":{"method":"POST","url":"Observation"}},{"fullUrl":"Observation/27a4172e-a66b-4c7f-888d-fa9eb7e36148","resource":{"resourceType":"Observation","id":"27a4172e-a66b-4c7f-888d-fa9eb7e36148","status":"final","code":{"coding":[{"system":"http://loinc.org","code":"22590-4"}]},"subject":{"reference":"Patient/3d0914e0-9bf5-42a6-8b83-0194ce2a8e0a"},"effectiveDateTime":"2022-07-22T00:00:00+00:00","valueRatio":{"numerator":{"value":1},"denominator":{"value":64}}},"request":{"method":"POST","url":"Observation"}},{"fullUrl":"Condition/e596808d-ce9a-41f7-8f50-55771fd385cd","resource":{"resourceType":"Condition","id":"e596808d-ce9a-41f7-8f50-55771fd385cd","code":{"coding":[{"system":"http://snomed.info/sct","code":"91554004"}]},"subject":{"reference":"Patient/3d0914e0-9bf5-42a6-8b83-0194ce2a8e0a"},"onsetDateTime":"2022-11-09T00:00:00+00:00"},"request":{"method":"POST","url":"Condition"}},{"fullUrl":"Condition/37f0e18a-eaba-4077-ab39-2b64b68f3f0c","resource":{"resourceType":"Condition","id":"37f0e18a-eaba-4077-ab39-2b64b68f3f0c","code":{"coding":[{"system":"http://snomed.info/sct","code":"271939006"}]},"subject":{"reference":"Patient/3d0914e0-9bf5-42a6-8b83-0194ce2a8e0a"},"onsetDateTime":"2022-07-23T00:00:00+00:00"},"request":{"method":"POST","url":"Condition"}},{"fullUrl":"Condition/532ea117-4460-4e65-838d-6d97c4cf02a3","resource":{"resourceType":"Condition","id":"532ea117-4460-4e65-838d-6d97c4cf02a3","code":{"coding":[{"system":"http://snomed.info/sct","code":"271807003"}]},"subject":{"reference":"Patient/3d0914e0-9bf5-42a6-8b83-0194ce2a8e0a"},"onsetDateTime":"2022-04-19T00:00:00+00:00"},"request":{"method":"POST","url":"Condition"}},{"fullUrl":"Condition/004eb8f1-86a7-4bad-8db8-ed0c5048d64f","resource":{"resourceType":"Condition","id":"004eb8f1-86a7-4bad-8db8-ed0c5048d64f","code":{"coding":[{"system":"http://snomed.info/sct","code":"271807003"}]},"subject":{"reference":"Patient/3d0914e0-9bf5-42a6-8b83-0194ce2a8e0a"},"onsetDateTime":"2022-09-16T00:00:00+00:00"},"request":{"method":"POST","url":"Condition"}},{"fullUrl":"Condition/3fd3d7c5-2827-4cb7-9103-1b443f562ab5","resource":{"resourceType":"Condition","id":"3fd3d7c5-2827-4cb7-9103-1b443f562ab5","code":{"coding":[{"system":"http://snomed.info/sct","code":"736686006"}]},"subject":{"reference":"Patient/3d0914e0-9bf5-42a6-8b83-0194ce2a8e0a"},"onsetDateTime":"2022-09-04T00:00:00+00:00"},"request":{"method":"POST","url":"Condition"}},{"fullUrl":"Condition/990fed55-2d24-4f9f-9d92-9d49843f449d","resource":{"resourceType":"Condition","id":"990fed55-2d24-4f9f-9d92-9d49843f449d","code":{"coding":[{"system":"http://snomed.info/sct","code":"18165001"}]},"subject":{"reference":"Patient/3d0914e0-9bf5-42a6-8b83-0194ce2a8e0a"},"onsetDateTime":"2022-12-24T00:00:00+00:00"},"request":{"method":"POST","url":"Condition"}},{"fullUrl":"Condition/c81b96ae-82f8-4e4f-8d4c-2718ba3f6d66","resource":{"resourceType":"Condition","id":"c81b96ae-82f8-4e4f-8d4c-2718ba3f6d66","code":{"coding":[{"system":"http://snomed.info/sct","code":"248980004"}]},"subject":{"reference":"Patient/3d0914e0-9bf5-42a6-8b83-0194ce2a8e0a"},"onsetDateTime":"2022-12-31T00:00:00+00:00"},"request":{"method":"POST","url":"Condition"}},{"fullUrl":"Condition/1c4a912f-ee67-4212-937d-38b7a9292cd4","resource":{"resourceType":"Condition","id":"1c4a912f-ee67-4212-937d-38b7a9292cd4","code":{"coding":[{"system":"http://snomed.info/sct","code":"21522001"}]},"subject":{"reference":"Patient/3d0914e0-9bf5-42a6-8b83-0194ce2a8e0a"},"onsetDateTime":"2022-01-28T00:00:00+00:00"},"request":{"method":"POST","url":"Condition"}},{"fullUrl":"Observation/4591d418-5687-46da-b36f-4c1760fa927f","resource":{"resourceType":"Observation","id":"4591d418-5687-46da-b36f-4c1760fa927f","status":"final","code":{"coding":[{"system":"http://loinc.org","code":"26464-8"}]},"subject":{"reference":"Patient/3d0914e0-9bf5-42a6-8b83-0194ce2a8e0a"},"effectiveDateTime":"2022-09-10T00:00:00+00:00","valueQuantity":{"value":4.1}},"request":{"method":"POST","url":"Observation"}},{"fullUrl":"Observation/97928c45-9a77-4bf8-a2bf-df050d32ccab","resource":{"resourceType":"Observation","id":"97928c45-9a77-4bf8-a2bf-df050d32ccab","status":"final","code":{"coding":[{"system":"http://loinc.org","code":"49498-9"}]},"subject":{"reference":"Patient/3d0914e0-9bf5-42a6-8b83-0194ce2a8e0a"},"effectiveDateTime":"2022-11-25T00:00:00+00:00","valueQuantity":{"value":5.1}},"request":{"method":"POST","url":"Observation"}},{"fullUrl":"Observation/836d68c8-0510-4dad-912b-2ba3f0173235","resource":{"resourceType":"Observation","id":"836d68c8-0510-4dad-912b-2ba3f0173235","status":"final","code":{"coding":[{"system":"http://loinc.org","code":"49498-9"}]},"subject":{"reference":"Patient/3d0914e0-9bf5-42a6-8b83-0194ce2a8e0a"},"effectiveDateTime":"2022-09-19T00:00:00+00:00"},"request":{"method":"POST","url":"Observation"}},{"fullUrl":"Observation/da844642-05ac-456e-9571-ecad13971c63","resource":{"resourceType":"Observation","id":"da844642-05ac-456e-9571-ecad13971c63","status":"final","code":{"coding":[{"system":"http://loinc.org","code":"49498-9"}]},"subject":{"reference":"Patient/3d0914e0-9bf5-42a6-8b83-0194ce2a8e0a"},"effectiveDateTime":"2022-11-01T00:00:00+00:00"},"request":{"method":"POST","url":"Observation"}},{"fullUrl":"Observation/ef94a744-a6d3-4fad-9264-5acb08ba2573","resource":{"resourceType":"Observation","id":"ef94a744-a6d3-4fad-9264-5acb08ba2573","status":"final","code":{"coding":[{"system":"http://loinc.org","code":"49498-9"}]},"subject":{"reference":"Patient/3d0914e0-9bf5-42a6-8b83-0194ce2a8e0a"},"effectiveDateTime":"2022-02-02T00:00:00+00:00"},"request":{"method":"POST","url":"Observation"}},{"fullUrl":"Procedure/bdbbf81b-eb54-4820-8f5a-ed115861c3af","resource":{"resourceType":"Procedure","id":"bdbbf81b-eb54-4820-8f5a-ed115861c3af","status":"completed","code":{"coding":[{"system":"http://snomed.info/sct","code":"115006"}]},"subject":{"reference":"Patient/3d0914e0-9bf5-42a6-8b83-0194ce2a8e0a"},"performedDateTime":"2022-08-16T00:00:00+00:00"},"request":{"method":"POST","url":"Procedure"}},{"fullUrl":"Procedure/4c3a71cb-7454-4cc6-809b-2de14bb75394","resource":{"resourceType":"Procedure","id":"4c3a71cb-7454-4cc6-809b-2de14bb75394","status":"completed","code":{"coding":[{"system":"http://snomed.info/sct","code":"104001"}]},"subject":{"reference":"Patient/3d0914e0-9bf5-42a6-8b83-0194ce2a8e0a"},"performedDateTime":"2022-04-10T00:00:00+00:00"},"request":{"method":"POST","url":"Procedure"}},{"fullUrl":"Procedure/d6a50234-818b-40b7-91b4-07352bccc8c1","resource":{"resourceType":"Procedure","id":"d6a50234-818b-40b7-91b4-07352bccc8c1","status":"completed","code":{"coding":[{"system":"http://snomed.info/sct","code":"647000"}]},"subject":{"reference":"Patient/3d0914e0-9bf5-42a6-8b83-0194ce2a8e0a"},"performedDateTime":"2022-12-04T00:00:00+00:00"},"request":{"method":"POST","url":"Procedure"}},{"fullUrl":"MedicationStatement/7a949e90-5ed0-42d7-833f-043f8febf559","resource":{"resourceType":"MedicationStatement","id":"7a949e90-5ed0-42d7-833f-043f8febf559","status":"completed","medicationCodeableConcept":{"coding":[{"system":"http://www.nlm.nih.gov/research/umls/rxnorm","code":"8698"}]},"subject":{"reference":"Patient/3d0914e0-9bf5-42a6-8b83-0194ce2a8e0a"},"effectiveDateTime":"2022-06-11T00:00:00+00:00","dosage":[{"doseAndRate":[{"doseQuantity":{"value":1,"unit":"TAB","system":"http://terminology.hl7.org/CodeSystem/v3-orderableDrugForm","code":"TAB"}}]}]},"request":{"method":"POST","url":"MedicationStatement"}},{"fullUrl":"MedicationStatement/74d2f84b-b828-4f44-a097-003172ac99b8","resource":{"resourceType":"MedicationStatement","id":"74d2f84b-b828-4f44-a097-003172ac99b8","status":"completed","medicationCodeableConcept":{"coding":[{"system":"http://www.nlm.nih.gov/research/umls/rxnorm","code":"3640"}]},"subject":{"reference":"Patient/3d0914e0-9bf5-42a6-8b83-0194ce2a8e0a"},"effectiveDateTime":"2022-09-02T00:00:00+00:00","dosage":[{"doseAndRate":[{"doseQuantity":{"value":1,"unit":"TAB","system":"http://terminology.hl7.org/CodeSystem/v3-orderableDrugForm","code":"TAB"}}]}]},"request":{"method":"POST","url":"MedicationStatement"}},{"fullUrl":"MedicationStatement/5361d372-8a2f-4a10-ba8f-42c2d02fc128","resource":{"resourceType":"MedicationStatement","id":"5361d372-8a2f-4a10-ba8f-42c2d02fc128","status":"completed","medicationCodeableConcept":{"coding":[{"system":"http://www.nlm.nih.gov/research/umls/rxnorm","code":"8698"}]},"subject":{"reference":"Patient/3d0914e0-9bf5-42a6-8b83-0194ce2a8e0a"},"effectiveDateTime":"2022-09-17T00:00:00+00:00","dosage":[{"doseAndRate":[{"doseQuantity":{"value":5,"unit":"TAB","system":"http://terminology.hl7.org/CodeSystem/v3-orderableDrugForm","code":"TAB"}}]}]},"request":{"method":"POST","url":"MedicationStatement"}},{"fullUrl":"MedicationStatement/cfcd8cc2-45e4-4e11-ad23-270e25662b1a","resource":{"resourceType":"MedicationStatement","id":"cfcd8cc2-45e4-4e11-ad23-270e25662b1a","status":"completed","medicationCodeableConcept":{"coding":[{"system":"http://www.nlm.nih.gov/research/umls/rxnorm","code":"10395"}]},"subject":{"reference":"Patient/3d0914e0-9bf5-42a6-8b83-0194ce2a8e0a"},"effectiveDateTime":"2022-03-14T00:00:00+00:00","dosage":[{"doseAndRate":[{"doseQuantity":{"value":4.9,"unit":"TAB","system":"http://terminology.hl7.org/CodeSystem/v3-orderableDrugForm","code":"TAB"}}]}]},"request":{"method":"POST","url":"MedicationStatement"}},{"fullUrl":"MedicationStatement/11156637-c5f5-4e9a-8073-c696fceba906","resource":{"resourceType":"MedicationStatement","id":"11156637-c5f5-4e9a-8073-c696fceba906","status":"completed","medicationCodeableConcept":{"coding":[{"system":"http://www.nlm.nih.gov/research/umls/rxnorm","code":"3640"}]},"subject":{"reference":"Patient/3d0914e0-9bf5-42a6-8b83-0194ce2a8e0a"},"effectiveDateTime":"2022-03-05T00:00:00+00:00","dosage":[{"doseAndRate":[{"doseQuantity":{"value":5,"unit":"TAB","system":"http://terminology.hl7.org/CodeSystem/v3-orderableDrugForm","code":"TAB"}}]}]},"request":{"method":"POST","url":"MedicationStatement"}},{"fullUrl":"MedicationStatement/157f6e8e-a1fe-4a6a-a52e-1f8f1dbe6669","resource":{"resourceType":"MedicationStatement","id":"157f6e8e-a1fe-4a6a-a52e-1f8f1dbe6669","status":"completed","medicationCodeableConcept":{"coding":[{"system":"http://www.nlm.nih.gov/research/umls/rxnorm","code":"7984"}]},"subject":{"reference":"Patient/3d0914e0-9bf5-42a6-8b83-0194ce2a8e0a"},"effectiveDateTime":"2022-03-05T00:00:00+00:00","dosage":[{"doseAndRate":[{"doseQuantity":{"value":5.6,"unit":"TAB","system":"http://terminology.hl7.org/CodeSystem/v3-orderableDrugForm","code":"TAB"}}]}]},"request":{"method":"POST","url":"MedicationStatement"}},{"fullUrl":"MedicationStatement/f7faf0b2-a780-4b77-818d-6aeaedb7f108","resource":{"resourceType":"MedicationStatement","id":"f7faf0b2-a780-4b77-818d-6aeaedb7f108","status":"completed","medicationCodeableConcept":{"coding":[{"system":"http://www.nlm.nih.gov/research/umls/rxnorm","code":"7980"}]},"subject":{"reference":"Patient/3d0914e0-9bf5-42a6-8b83-0194ce2a8e0a"},"effectiveDateTime":"2022-04-26T00:00:00+00:00","dosage":[{"doseAndRate":[{"doseQuantity":{"value":4,"unit":"TAB","system":"http://terminology.hl7.org/CodeSystem/v3-orderableDrugForm","code":"TAB"}}]}]},"request":{"method":"POST","url":"MedicationStatement"}},{"fullUrl":"MedicationStatement/17d7098b-5771-4e6d-9028-a23adc7cf558","resource":{"resourceType":"MedicationStatement","id":"17d7098b-5771-4e6d-9028-a23adc7cf558","status":"completed","medicationCodeableConcept":{"coding":[{"system":"http://www.nlm.nih.gov/research/umls/rxnorm","code":"18631"}]},"subject":{"reference":"Patient/3d0914e0-9bf5-42a6-8b83-0194ce2a8e0a"},"effectiveDateTime":"2022-08-16T00:00:00+00:00","dosage":[{"doseAndRate":[{"doseQuantity":{"value":5.6,"unit":"TAB","system":"http://terminology.hl7.org/CodeSystem/v3-orderableDrugForm","code":"TAB"}}]}]},"request":{"method":"POST","url":"MedicationStatement"}},{"fullUrl":"Encounter/a245379a-56e2-4f7f-aca5-e831d1894ddd","resource":{"resourceType":"Encounter","id":"a245379a-56e2-4f7f-aca5-e831d1894ddd","status":"finished","class":{"system":"http://terminology.hl7.org/CodeSystem/v3-ActCode","code":"IMP","display":"inpatient encounter"},"type":[{"coding":[{"system":"http://terminology.hl7.org/CodeSystem/encounter-type","code":"CCS60"}]}],"subject":{"reference":"Patient/3d0914e0-9bf5-42a6-8b83-0194ce2a8e0a"},"period":{"start":"2022-07-14T00:00:00+00:00","end":"2022-07-22T00:00:00+00:00"}},"request":{"method":"POST","url":"Encounter"}},{"fullUrl":"Encounter/d10970a9-47bf-4047-96e5-8ffe82375118","resource":{"resourceType":"Encounter","id":"d10970a9-47bf-4047-96e5-8ffe82375118","status":"finished","class":{"system":"http://terminology.hl7.org/CodeSystem/v3-ActCode","code":"IMP","display":"inpatient encounter"},"type":[{"coding":[{"system":"http://terminology.hl7.org/CodeSystem/encounter-type","code":"CCS60"}]}],"subject":{"reference":"Patient/3d0914e0-9bf5-42a6-8b83-0194ce2a8e0a"},"period":{"start":"2022-10-27T00:00:00+00:00","end":"2022-11-05T00:00:00+00:00"}},"request":{"method":"POST","url":"Encounter"}},{"fullUrl":"Encounter/791e0bad-9d3d-491c-9be2-6159f91570b6","resource":{"resourceType":"Encounter","id":"791e0bad-9d3d-491c-9be2-6159f91570b6","status":"finished","class":{"system":"http://terminology.hl7.org/CodeSystem/v3-ActCode","code":"SS","display":"short-stay"},"type":[{"coding":[{"system":"http://terminology.hl7.org/CodeSystem/encounter-type","code":"ADMS"}]}],"subject":{"reference":"Patient/3d0914e0-9bf5-42a6-8b83-0194ce2a8e0a"},"period":{"start":"2022-11-12T00:00:00+00:00","end":"2022-11-19T00:00:00+00:00"}},"request":{"method":"POST","url":"Encounter"}},{"fullUrl":"Encounter/296060dc-9875-4074-9ffc-1d92fb7496f0","resource":{"resourceType":"Encounter","id":"296060dc-9875-4074-9ffc-1d92fb7496f0","status":"finished","class":{"system":"http://terminology.hl7.org/CodeSystem/v3-ActCode","code":"SS","display":"short-stay"},"type":[{"coding":[{"system":"http://terminology.hl7.org/CodeSystem/encounter-type","code":"CCS60"}]}],"subject":{"reference":"Patient/3d0914e0-9bf5-42a6-8b83-0194ce2a8e0a"},"period":{"start":"2022-03-26T00:00:00+00:00","end":"2022-03-31T00:00:00+00:00"}},"request":{"method":"POST","url":"Encounter"}},{"fullUrl":"Encounter/cf7c7feb-ca29-403b-b5b5-25fea316a083","resource":{"resourceType":"Encounter","id":"cf7c7feb-ca29-403b-b5b5-25fea316a083","status":"finished","class":{"system":"http://terminology.hl7.org/CodeSystem/v3-ActCode","code":"NONAC","display":"inpatient non-acute"},"type":[{"coding":[{"system":"http://terminology.hl7.org/CodeSystem/encounter-type","code":"CCS60"}]}],"subject":{"reference":"Patient/3d0914e0-9bf5-42a6-8b83-0194ce2a8e0a"},"period":{"start":"2022-11-14T00:00:00+00:00","end":"2022-11-20T00:00:00+00:00"}},"request":{"method":"POST","url":"Encounter"}}]}