{"resourceType":"Bundle","id":"54f3888c-e556-4555-8482-2ef9be3472f2","type":"transaction","entry":[{"fullUrl":"Patient/a21c26b7-73c9-4c06-b6e1-11bf220d0476","resource":{"resourceType":"Patient","id":"a21c26b7-73c9-4c06-b6e1-11bf220d0476","meta":{"profile":["http://hl7.org/fhir/us/core/StructureDefinition/us-core-patient"]},"extension":[{"extension":[{"url":"ombCategory","valueCoding":{"system":"urn:oid:2.16.840.1.113883.6.238","code":"2106-3","display":"White"}},{"url":"text","valueString":"White"}],"url":"http://hl7.org/fhir/us/core/StructureDefinition/us-core-race"},{"extension":[{"url":"ombCategory","valueCoding":{"system":"urn:oid:2.16.840.1.113883.6.238","code":"2135-2","display":"Hispanic or Latino"}},{"url":"text","valueString":"Hispanic or Latino"}],"url":"http://hl7.org/fhir/us/core/StructureDefinition/us-core-ethnicity"}],"identifier":[{"type":{"coding":[{"system":"http://terminology.hl7.org/CodeSystem/v2-0203","code":"MR"}]},"system":"urn:fhirgen:mrn","value":"538-02-7900"}],"name":[{"use":"official","family":"Jefferson","given":["Devin"]},{"use":"maiden","family":"Hernandez"}],"telecom":[{"system":"phone","value":"(463)272-3958x003","use":"home"},{"system":"email","value":"yjohnson@hotmail.com","use":"work"}],"gender":"male","birthDate":"1981-07-18","address":[{"use":"home","line":["941 Jeffrey Cape"],"city":"Grayhaven","state":"DC","postalCode":"96864"},{"use":"old","line":["6636 Vargas Mills Apt. 897"],"city":"Gravesshire","state":"FL","postalCode":"96599"}]},"request":{"method":"POST","url":"Patient"}},{"fullUrl":"Observation/894c15fe-5cbd-45f0-8564-776d2b850d62","resource":{"resourceType":"Observation","id":"894c15fe-5cbd-45f0-8564-776d2b850d62","meta":{"profile":["http://hl7.org/fhir/us/core/StructureDefinition/us-core-observation-lab"]},"status":"final","category":[{"coding":[{"system":"http://terminology.hl7.org/CodeSystem/observation-category","code":"laboratory","display":"Laboratory"}]}],"code":{"coding":[{"system":"http://loinc.org","code":"51475-2"}]},"subject":{"reference":"Patient/a21c26b7-73c9-4c06-b6e1-11bf220d0476"},"effectiveDateTime":"2022-06-05T00:00:00+00:00","valueRatio":{"numerator":{"value":1},"denominator":{"value":4}}},"request":{"method":"POST","url":"Observation"}},{"fullUrl":"Observation/d89eb4aa-4ffc-4da3-bb6b-7f3ee719d236","resource":{"resourceType":"Observation","id":"d89eb4aa-4ffc-4da3-bb6b-7f3ee719d236","meta":{"profile":["http://hl7.org/fhir/us/core/StructureDefinition/us-core-observation-lab"]},"status":"final","category":[{"coding":[{"system":"http://terminology.hl7.org/CodeSystem/observation-category","code":"laboratory","display":"Laboratory"}]}],"code":{"coding":[{"system":"http://loinc.org","code":"50690-7"}]},"subject":{"reference":"Patient/a21c26b7-73c9-4c06-b6e1-11bf220d0476"},"effectiveDateTime":"2022-06-11T00:00:00+00:00","valueRatio":{"numerator":{"value":1},"denominator":{"value":64}}},"request":{"method":"POST","url":"Observation"}},{"fullUrl":"Observation/9b7a75b5-7ec1-4c19-83b9-d20f5b12e801","resource":{"resourceType":"Observation","id":"9b7a75b5-7ec1-4c19-83b9-d20f5b12e801","meta":{"profile":["http://hl7.org/fhir/us/core/StructureDefinition/us-core-observation-lab"]},"status":"final","category":[{"coding":[{"system":"http://terminology.hl7.org/CodeSystem/observation-category","code":"laboratory","display":"Laboratory"}]}],"code":{"coding":[{"system":"http://loinc.org","code":"50690-7"}]},"subject":{"reference":"Patient/a21c26b7-73c9-4c06-b6e1-11bf220d0476"},"effectiveDateTime":"2022-10-07T00:00:00+00:00","valueRatio":{"numerator":{"value":1},"denominator":{"value":4}}},"request":{"method":"POST","url":"Observation"}},{"fullUrl":"Condition/c2189bf5-4612-4a27-8f5a-a0e6e50c02bb","resource":{"resourceType":"Condition","id":"c2189bf5-4612-4a27-8f5a-a0e6e50c02bb","meta":{"profile":["http://hl7.org/fhir/us/core/StructureDefinition/us-core-condition"]},"clinicalStatus":{"coding":[{"system":"http://terminology.hl7.org/CodeSystem/condition-clinical","code":"active","display":"Active"}]},"category":[{"coding":[{"system":"http://terminology.hl7.org/CodeSystem/condition-category","code":"problem-list-item"}]}],"code":{"coding":[{"system":"http://snomed.info/sct","code":"709977002"}]},"subject":{"reference":"Patient/a21c26b7-73c9-4c06-b6e1-11bf220d0476"},"onsetDateTime":"2022-10-22T00:00:00+00:00"},"request":{"method":"POST","url":"Condition"}},{"fullUrl":"Condition/65e52373-665e-420f-b9cc-96483ada0ee1","resource":{"resourceType":"Condition","id":"65e52373-665e-420f-b9cc-96483ada0ee1","meta":{"profile":["http://hl7.org/fhir/us/core/StructureDefinition/us-core-condition"]},"clinicalStatus":{"coding":[{"system":"http://terminology.hl7.org/CodeSystem/condition-clinical","code":"active","display":"Active"}]},"category":[{"coding":[{"system":"http://terminology.hl7.org/CodeSystem/condition-category","code":"problem-list-item"}]}],"code":{"coding":[{"system":"http://snomed.info/sct","code":"44882003"}]},"subject":{"reference":"Patient/a21c26b7-73c9-4c06-b6e1-11bf220d0476"},"onsetDateTime":"2022-06-30T00:00:00+00:00"},"request":{"method":"POST","url":"Condition"}},{"fullUrl":"Condition/a1283e81-36de-4b4f-8338-8aae13e41087","resource":{"resourceType":"Condition","id":"a1283e81-36de-4b4f-8338-8aae13e41087","meta":{"profile":["http://hl7.org/fhir/us/core/StructureDefinition/us-core-condition"]},"clinicalStatus":{"coding":[{"system":"http://terminology.hl7.org/CodeSystem/condition-clinical","code":"active","display":"Active"}]},"category":[{"coding":[{"system":"http://terminology.hl7.org/CodeSystem/condition-category","code":"problem-list-item"}]}],"code":{"coding":[{"system":"http://snomed.info/sct","code":"91554004"}]},"subject":{"reference":"Patient/a21c26b7-73c9-4c06-b6e1-11bf220d0476"},"onsetDateTime":"2022-11-04T00:00:00+00:00"},"request":{"method":"POST","url":"Condition"}},{"fullUrl":"Condition/9ce033a0-f1ee-4122-afe2-8d0830797b61","resource":{"resourceType":"Condition","id":"9ce033a0-f1ee-4122-afe2-8d0830797b61","meta":{"profile":["http://hl7.org/fhir/us/core/StructureDefinition/us-core-condition"]},"clinicalStatus":{"coding":[{"system":"http://terminology.hl7.org/CodeSystem/condition-clinical","code":"active","display":"Active"}]},"category":[{"coding":[{"system":"http://terminology.hl7.org/CodeSystem/condition-category","code":"problem-list-item"}]}],"code":{"coding":[{"system":"http://snomed.info/sct","code":"709977002"}]},"subject":{"reference":"Patient/a21c26b7-73c9-4c06-b6e1-11bf220d0476"},"onsetDateTime":"2022-08-19T00:00:00+00:00"},"request":{"method":"POST","url":"Condition"}},{"fullUrl":"Condition/9947ae1c-3fe2-4ca0-8ae0-3fb2e0d565ba","resource":{"resourceType":"Condition","id":"9947ae1c-3fe2-4ca0-8ae0-3fb2e0d565ba","meta":{"profile":["http://hl7.org/fhir/us/core/StructureDefinition/us-core-condition"]},"clinicalStatus":{"coding":[{"system":"http://terminology.hl7.org/CodeSystem/condition-clinical","code":"active","display":"Active"}]},"category":[{"coding":[{"system":"http://terminology.hl7.org/CodeSystem/condition-category","code":"problem-list-item"}]}],"code":{"coding":[{"system":"http://snomed.info/sct","code":"418290006"}]},"subject":{"reference":"Patient/a21c26b7-73c9-4c06-b6e1-11bf220d0476"},"onsetDateTime":"2022-06-18T00:00:00+00:00"},"request":{"method":"POST","url":"Condition"}},{"fullUrl":"Condition/7d79f8f3-44f7-4cd1-950f-689ebc6de884","resource":{"resourceType":"Condition","id":"7d79f8f3-44f7-4cd1-950f-689ebc6de884","meta":{"profile":["http://hl7.org/fhir/us/core/StructureDefinition/us-core-condition"]},"clinicalStatus":{"coding":[{"system":"http://terminology.hl7.org/CodeSystem/condition-clinical","code":"active","display":"Active"}]},"category":[{"coding":[{"system":"http://terminology.hl7.org/CodeSystem/condition-category","code":"problem-list-item"}]}],"code":{"coding":[{"system":"http://snomed.info/sct","code":"736686006"}]},"subject":{"reference":"Patient/a21c26b7-73c9-4c06-b6e1-11bf220d0476"},"onsetDateTime":"2022-08-08T00:00:00+00:00"},"request":{"method":"POST","url":"Condition"}},{"fullUrl":"Condition/bb7406ab-67e7-4f4b-980a-43bfa50a7ce2","resource":{"resourceType":"Condition","id":"bb7406ab-67e7-4f4b-980a-43bfa50a7ce2","meta":{"profile":["http://hl7.org/fhir/us/core/StructureDefinition/us-core-condition"]},"clinicalStatus":{"coding":[{"system":"http://terminology.hl7.org/CodeSystem/condition-clinical","code":"active","display":"Active"}]},"category":[{"coding":[{"system":"http://terminology.hl7.org/CodeSystem/condition-category","code":"problem-list-item"}]}],"code":{"coding":[{"system":"http://snomed.info/sct","code":"91554004"}]},"subject":{"reference":"Patient/a21c26b7-73c9-4c06-b6e1-11bf220d0476"},"onsetDateTime":"2022-09-28T00:00:00+00:00"},"request":{"method":"POST","url":"Condition"}},{"fullUrl":"Observation/f7cbee03-93c4-4488-b9b7-72383f44cbc3","resource":{"resourceType":"Observation","id":"f7cbee03-93c4-4488-b9b7-72383f44cbc3","meta":{"profile":["http://hl7.org/fhir/us/core/StructureDefinition/us-core-observation-lab"]},"status":"final","category":[{"coding":[{"system":"http://terminology.hl7.org/CodeSystem/observation-category","code":"laboratory","display":"Laboratory"}]}],"code":{"coding":[{"system":"http://loinc.org","code":"49498-9"}]},"subject":{"reference":"Patient/a21c26b7-73c9-4c06-b6e1-11bf220d0476"},"effectiveDateTime":"2022-05-08T00:00:00+00:00","valueQuantity":{"value":8.7}},"request":{"method":"POST","url":"Observation"}},{"fullUrl":"Observation/609a1ce2-95d6-4948-85d5-3120bacb96e4","resource":{"resourceType":"Observation","id":"609a1ce2-95d6-4948-85d5-3120bacb96e4","meta":{"profile":["http://hl7.org/fhir/us/core/StructureDefinition/us-core-observation-lab"]},"status":"final","category":[{"coding":[{"system":"http://terminology.hl7.org/CodeSystem/observation-category","code":"laboratory","display":"Laboratory"}]}],"code":{"coding":[{"system":"http://loinc.org","code":"49498-9"}]},"subject":{"reference":"Patient/a21c26b7-73c9-4c06-b6e1-11bf220d0476"},"effectiveDateTime":"2022-02-19T00:00:00+00:00","valueQuantity":{"value":4.9}},"request":{"method":"POST","url":"Observation"}},{"fullUrl":"Observation/93b7d35d-b3fe-43c6-8be4-e211c845aa41","resource":{"resourceType":"Observation","id":"93b7d35d-b3fe-43c6-8be4-e211c845aa41","meta":{"profile":["http://hl7.org/fhir/us/core/StructureDefinition/us-core-observation-lab"]},"status":"final","category":[{"coding":[{"system":"http://terminology.hl7.org/CodeSystem/observation-category","code":"laboratory","display":"Laboratory"}]}],"code":{"coding":[{"system":"http://loinc.org","code":"26464-8"}]},"subject":{"reference":"Patient/a21c26b7-73c9-4c06-b6e1-11bf220d0476"},"effectiveDateTime":"2022-01-31T00:00:00+00:00","valueQuantity":{"value":9.3}},"request":{"method":"POST","url":"Observation"}},{"fullUrl":"Observation/d1ee1de2-f2ed-414a-9b7b-3ac032e1955f","resource":{"resourceType":"Observation","id":"d1ee1de2-f2ed-414a-9b7b-3ac032e1955f","meta":{"profile":["http://hl7.org/fhir/us/core/StructureDefinition/us-core-bmi"]},"status":"final","category":[{"coding":[{"system":"http://terminology.hl7.org/CodeSystem/observation-category","code":"vital-signs","display":"Vital Signs"}]}],"code":{"coding":[{"system":"http://loinc.org","code":"39156-5"}]},"subject":{"reference":"Patient/a21c26b7-73c9-4c06-b6e1-11bf220d0476"},"effectiveDateTime":"2022-12-23T00:00:00+00:00","valueQuantity":{"value":28.68,"unit":"kg/m2","system":"http://unitsofmeasure.org","code":"kg/m2"}},"request":{"method":"POST","url":"Observation"}},{"fullUrl":"Observation/68bb2ce5-47a8-4548-ab0e-fc771e481876","resource":{"resourceType":"Observation","id":"68bb2ce5-47a8-4548-ab0e-fc771e481876","meta":{"profile":["http://hl7.org/fhir/us/core/StructureDefinition/us-core-head-circumference"]},"status":"final","category":[{"coding":[{"system":"http://terminology.hl7.org/CodeSystem/observation-category","code":"vital-signs","display":"Vital Signs"}]}],"code":{"coding":[{"system":"http://loinc.org","code":"9843-4"}]},"subject":{"reference":"Patient/a21c26b7-73c9-4c06-b6e1-11bf220d0476"},"effectiveDateTime":"2022-06-24T00:00:00+00:00","valueQuantity":{"value":3.2,"unit":"Inch","system":"http://unitsofmeasure.org","code":"[in_i]"}},"request":{"method":"POST","url":"Observation"}},{"fullUrl":"Observation/86097f1c-db0e-4c95-b6d5-62737891e7ed","resource":{"resourceType":"Observation","id":"86097f1c-db0e-4c95-b6d5-62737891e7ed","meta":{"profile":["http://hl7.org/fhir/us/core/StructureDefinition/us-core-head-circumference"]},"status":"final","category":[{"coding":[{"system":"http://terminology.hl7.org/CodeSystem/observation-category","code":"vital-signs","display":"Vital Signs"}]}],"code":{"coding":[{"system":"http://loinc.org","code":"9843-4"}]},"subject":{"reference":"Patient/a21c26b7-73c9-4c06-b6e1-11bf220d0476"},"effectiveDateTime":"2022-04-03T00:00:00+00:00","valueQuantity":{"value":2.8,"unit":"Inch","system":"http://unitsofmeasure.org","code":"[in_i]"}},"request":{"method":"POST","url":"Observation"}},{"fullUrl":"Observation/6a284abe-64b9-41fb-a22c-10ac00d5f78c","resource":{"resourceType":"Observation","id":"6a284abe-64b9-41fb-a22c-10ac00d5f78c","meta":{"profile":["http://hl7.org/fhir/us/core/StructureDefinition/us-core-body-height"]},"status":"final","category":[{"coding":[{"system":"http://terminology.hl7.org/CodeSystem/observation-category","code":"vital-signs","display":"Vital Signs"}]}],"code":{"coding":[{"system":"http://loinc.org","code":"8302-2"}]},"subject":{"reference":"Patient/a21c26b7-73c9-4c06-b6e1-11bf220d0476"},"effectiveDateTime":"2022-03-07T00:00:00+00:00","valueQuantity":{"value":66.3,"unit":"Inch","system":"http://unitsofmeasure.org","code":"[in_i]"}},"request":{"method":"POST","url":"Observation"}},{"fullUrl":"Observation/292a96aa-1552-4e69-843c-5aa90f033991","resource":{"resourceType":"Observation","id":"292a96aa-1552-4e69-843c-5aa90f033991","meta":{"profile":["http://hl7.org/fhir/us/core/StructureDefinition/us-core-body-weight"]},"status":"final","category":[{"coding":[{"system":"http://terminology.hl7.org/CodeSystem/observation-category","code":"vital-signs","display":"Vital Signs"}]}],"code":{"coding":[{"system":"http://loinc.org","code":"29463-7"}]},"subject":{"reference":"Patient/a21c26b7-73c9-4c06-b6e1-11bf220d0476"},"effectiveDateTime":"2022-10-05T00:00:00+00:00","valueQuantity":{"value":146.59,"unit":"kilogram","system":"http://unitsofmeasure.org","code":"kg"}},"request":{"method":"POST","url":"Observation"}},{"fullUrl":"Observation/26f98c4b-3c50-4e72-8756-a4b9b5e1e95c","resource":{"resourceType":"Observation","id":"26f98c4b-3c50-4e72-8756-a4b9b5e1e95c","meta":{"profile":["http://hl7.org/fhir/us/core/StructureDefinition/us-core-body-temperature"]},"status":"final","category":[{"coding":[{"system":"http://terminology.hl7.org/CodeSystem/observation-category","code":"vital-signs","display":"Vital Signs"}]}],"code":{"coding":[{"system":"http://loinc.org","code":"8310-5"}]},"subject":{"reference":"Patient/a21c26b7-73c9-4c06-b6e1-11bf220d0476"},"effectiveDateTime":"2022-10-11T00:00:00+00:00","valueQuantity":{"value":72.24,"unit":"Degrees Fahrenheit","system":"http://unitsofmeasure.org","code":"[degF]"}},"request":{"method":"POST","url":"Observation"}},{"fullUrl":"Observation/6cd4b651-dca7-48b9-90cf-7173456552f6","resource":{"resourceType":"Observation","id":"6cd4b651-dca7-48b9-90cf-7173456552f6","meta":{"profile":["http://hl7.org/fhir/us/core/StructureDefinition/us-core-body-temperature"]},"status":"final","category":[{"coding":[{"system":"http://terminology.hl7.org/CodeSystem/observation-category","code":"vital-signs","display":"Vital Signs"}]}],"code":{"coding":[{"system":"http://loinc.org","code":"8310-5"}]},"subject":{"reference":"Patient/a21c26b7-73c9-4c06-b6e1-11bf220d0476"},"effectiveDateTime":"2022-11-14T00:00:00+00:00","valueQuantity":{"value":93.59,"unit":"Degrees Fahrenheit","system":"http://unitsofmeasure.org","code":"[degF]"}},"request":{"method":"POST","url":"Observation"}},{"fullUrl":"Observation/97e866a6-5676-42e7-a67e-dfea8c311339","resource":{"resourceType":"Observation","id":"97e866a6-5676-42e7-a67e-dfea8c311339","meta":{"profile":["http://hl7.org/fhir/us/core/StructureDefinition/us-core-heart-rate"]},"status":"final","category":[{"coding":[{"system":"http://terminology.hl7.org/CodeSystem/observation-category","code":"vital-signs","display":"Vital Signs"}]}],"code":{"coding":[{"system":"http://loinc.org","code":"8867-4"}]},"subject":{"reference":"Patient/a21c26b7-73c9-4c06-b6e1-11bf220d0476"},"effectiveDateTime":"2022-07-10T00:00:00+00:00","valueQuantity":{"value":98.7,"unit":"Per Minute","system":"http://unitsofmeasure.org","code":"/min"}},"request":{"method":"POST","url":"Observation"}},{"fullUrl":"Observation/013e7301-fedf-4a70-89e2-3eda117a9543","resource":{"resourceType":"Observation","id":"013e7301-fedf-4a70-89e2-3eda117a9543","meta":{"profile":["http://hl7.org/fhir/us/core/StructureDefinition/us-core-heart-rate"]},"status":"final","category":[{"coding":[{"system":"http://terminology.hl7.org/CodeSystem/observation-category","code":"vital-signs","display":"Vital Signs"}]}],"code":{"coding":[{"system":"http://loinc.org","code":"8867-4"}]},"subject":{"reference":"Patient/a21c26b7-73c9-4c06-b6e1-11bf220d0476"},"effectiveDateTime":"2022-02-04T00:00:00+00:00","valueQuantity":{"value":96.4,"unit":"Per Minute","system":"http://unitsofmeasure.org","code":"/min"}},"request":{"method":"POST","url":"Observation"}},{"fullUrl":"Patient/0e9cfa88-2259-4339-9cc9-b754df9f28af","resource":{"resourceType":"Patient","id":"0e9cfa88-2259-4339-9cc9-b754df9f28af","meta":{"profile":["http://hl7.org/fhir/us/core/StructureDefinition/us-core-patient"]},"extension":[{"extension":[{"url":"ombCategory","valueCoding":{"system":"urn:oid:2.16.840.1.113883.6.238","code":"2028-9","display":"Asian"}},{"url":"text","valueString":"Asian"}],"url":"http://hl7.org/fhir/us/core/StructureDefinition/us-core-race"},{"extension":[{"url":"ombCategory","valueCoding":{"system":"urn:oid:2.16.840.1.113883.6.238","code":"2135-2","display":"Hispanic or Latino"}},{"url":"text","valueString":"Hispanic or Latino"}],"url":"http://hl7.org/fhir/us/core/StructureDefinition/us-core-ethnicity"}],"identifier":[{"type":{"coding":[{"system":"http://terminology.hl7.org/CodeSystem/v2-0203","code":"MR"}]},"system":"urn:fhirgen:mrn","value":"742-07-3750"}],"name":[{"use":"official","family":"Carney","given":["George"]},{"use":"maiden","family":"Carr"}],"telecom":[{"system":"phone","value":"668.858.2787","use":"mobile"},{"system":"email","value":"isimmons@gmail.com","use":"home"}],"gender":"male","birthDate":"1964-04-01","address":[{"use":"home","line":["750 Buckley Burg"],"city":"Marthaton","state":"AZ","postalCode":"00084"},{"use":"old","line":["6693 Richards Place Suite 078"],"city":"Abigailtown","state":"ND","postalCode":"57796"}]},"request":{"method":"POST","url":"Patient"}},{"fullUrl":"Observation/47131c0b-cc32-4504-98d1-0d9a22cf4b33","resource":{"resourceType":"Observation","id":"47131c0b-cc32-4504-98d1-0d9a22cf4b33","meta":{"profile":["http://hl7.org/fhir/us/core/StructureDefinition/us-core-observation-lab"]},"status":"final","category":[{"coding":[{"system":"http://terminology.hl7.org/CodeSystem/observation-category","code":"laboratory","display":"Laboratory"}]}],"code":{"coding":[{"system":"http://loinc.org","code":"5394-2"}]},"subject":{"reference":"Patient/0e9cfa88-2259-4339-9cc9-b754df9f28af"},"effectiveDateTime":"2022-01-30T00:00:00+00:00","valueRatio":{"numerator":{"value":1},"denominator":{"value":64}}},"request":{"method":"POST","url":"Observation"}},{"fullUrl":"Observation/08b1d372-7307-4359-93b2-21fb8bc4270e","resource":{"resourceType":"Observation","id":"08b1d372-7307-4359-93b2-21fb8bc4270e","meta":{"profile":["http://hl7.org/fhir/us/core/StructureDefinition/us-core-observation-lab"]},"status":"final","category":[{"coding":[{"system":"http://terminology.hl7.org/CodeSystem/observation-category","code":"laboratory","display":"Laboratory"}]}],"code":{"coding":[{"system":"http://loinc.org","code":"34382-2"}]},"subject":{"reference":"Patient/0e9cfa88-2259-4339-9cc9-b754df9f28af"},"effectiveDateTime":"2022-11-22T00:00:00+00:00","valueRatio":{"numerator":{"value":1},"denominator":{"value":32}}},"request":{"method":"POST","url":"Observation"}},{"fullUrl":"Observation/00c254d0-b6d0-423b-8795-b393b32c57e1","resource":{"resourceType":"Observation","id":"00c254d0-b6d0-423b-8795-b393b32c57e1","meta":{"profile":["http://hl7.org/fhir/us/core/StructureDefinition/us-core-observation-lab"]},"status":"final","category":[{"coding":[{"system":"http://terminology.hl7.org/CodeSystem/observation-category","code":"laboratory","display":"Laboratory"}]}],"code":{"coding":[{"system":"http://loinc.org","code":"11084-1"}]},"subject":{"reference":"Patient/0e9cfa88-2259-4339-9cc9-b754df9f28af"},"effectiveDateTime":"2022-08-12T00:00:00+00:00","valueRatio":{"numerator":{"value":1},"denominator":{"value":32}}},"request":{"method":"POST","url":"Observation"}},{"fullUrl":"Condition/ff9c4bc6-e07b-4749-a2e2-020e9a57ae92","resource":{"resourceType":"Condition","id":"ff9c4bc6-e07b-4749-a2e2-020e9a57ae92","meta":{"profile":["http://hl7.org/fhir/us/core/StructureDefinition/us-core-condition"]},"clinicalStatus":{"coding":[{"system":"http://terminology.hl7.org/CodeSystem/condition-clinical","code":"active","display":"Active"}]},"category":[{"coding":[{"system":"http://terminology.hl7.org/CodeSystem/condition-category","code":"problem-list-item"}]}],"code":{"coding":[{"system":"http://snomed.info/sct","code":"44882003"}]},"subject":{"reference":"Patient/0e9cfa88-2259-4339-9cc9-b754df9f28af"},"onsetDateTime":"2022-03-20T00:00:00+00:00"},"request":{"method":"POST","url":"Condition"}},{"fullUrl":"Condition/f885b662-90f6-4090-ac79-74df02383578","resource":{"resourceType":"Condition","id":"f885b662-90f6-4090-ac79-74df02383578","meta":{"profile":["http://hl7.org/fhir/us/core/StructureDefinition/us-core-condition"]},"clinicalStatus":{"coding":[{"system":"http://terminology.hl7.org/CodeSystem/condition-clinical","code":"active","display":"Active"}]},"category":[{"coding":[{"system":"http://terminology.hl7.org/CodeSystem/condition-category","code":"problem-list-item"}]}],"code":{"coding":[{"system":"http://snomed.info/sct","code":"709977002"}]},"subject":{"reference":"Patient/0e9cfa88-2259-4339-9cc9-b754df9f28af"},"onsetDateTime":"2022-12-04T00:00:00+00:00"},"request":{"method":"POST","url":"Condition"}},{"fullUrl":"Condition/4ed6ee07-2158-444d-8cb1-764f860edd0b","resource":{"resourceType":"Condition","id":"4ed6ee07-2158-444d-8cb1-764f860edd0b","meta":{"profile":["http://hl7.org/fhir/us/core/StructureDefinition/us-core-condition"]},"clinicalStatus":{"coding":[{"system":"http://terminology.hl7.org/CodeSystem/condition-clinical","code":"active","display":"Active"}]},"category":[{"coding":[{"system":"http://terminology.hl7.org/CodeSystem/condition-category","code":"problem-list-item"}]}],"code":{"coding":[{"system":"http://snomed.info/sct","code":"709977002"}]},"subject":{"reference":"Patient/0e9cfa88-2259-4339-9cc9-b754df9f28af"},"onsetDateTime":"2022-11-26T00:00:00+00:00"},"request":{"method":"POST","url":"Condition"}},{"fullUrl":"Condition/419fe41e-592f-4df9-b91a-659a62e58277","resource":{"resourceType":"Condition","id":"419fe41e-592f-4df9-b91a-659a62e58277","meta":{"profile":["http://hl7.org/fhir/us/core/StructureDefinition/us-core-condition"]},"clinicalStatus":{"coding":[{"system":"http://terminology.hl7.org/CodeSystem/condition-clinical","code":"active","display":"Active"}]},"category":[{"coding":[{"system":"http://terminology.hl7.org/CodeSystem/condition-category","code":"problem-list-item"}]}],"code":{"coding":[{"system":"http://snomed.info/sct","code":"709977002"}]},"subject":{"reference":"Patient/0e9cfa88-2259-4339-9cc9-b754df9f28af"},"onsetDateTime":"2022-04-12T00:00:00+00:00"},"request":{"method":"POST","url":"Condition"}},{"fullUrl":"Condition/2ea7dca8-811f-40c3-af43-b98ae3515bf3","resource":{"resourceType":"Condition","id":"2ea7dca8-811f-40c3-af43-b98ae3515bf3","meta":{"profile":["http://hl7.org/fhir/us/core/StructureDefinition/us-core-condition"]},"clinicalStatus":{"coding":[{"system":"http://terminology.hl7.org/CodeSystem/condition-clinical","code":"active","display":"Active"}]},"category":[{"coding":[{"system":"http://terminology.hl7.org/CodeSystem/condition-category","code":"problem-list-item"}]}],"code":{"coding":[{"system":"http://snomed.info/sct","code":"709977002"}]},"subject":{"reference":"Patient/0e9cfa88-2259-4339-9cc9-b754df9f28af"},"onsetDateTime":"2022-06-11T00:00:00+00:00"},"request":{"method":"POST","url":"Condition"}},{"fullUrl":"Observation/a05a4b06-c14b-49ef-9ea5-28d7bb327a4b","resource":{"resourceType":"Observation","id":"a05a4b06-c14b-49ef-9ea5-28d7bb327a4b","meta":{"profile":["http://hl7.org/fhir/us/core/StructureDefinition/us-core-observation-lab"]},"status":"final","category":[{"coding":[{"system":"http://terminology.hl7.org/CodeSystem/observation-category","code":"laboratory","display":"Laboratory"}]}],"code":{"coding":[{"system":"http://loinc.org","code":"49498-9"}]},"subject":{"reference":"Patient/0e9cfa88-2259-4339-9cc9-b754df9f28af"},"effectiveDateTime":"2022-12-06T00:00:00+00:00","valueQuantity":{"value":6.7}},"request":{"method":"POST","url":"Observation"}},{"fullUrl":"Observation/6f4d0adc-17d1-4cc9-ade9-6ba719c18506","resource":{"resourceType":"Observation","id":"6f4d0adc-17d1-4cc9-ade9-6ba719c18506","meta":{"profile":["http://hl7.org/fhir/us/core/StructureDefinition/us-core-observation-lab"]},"status":"final","category":[{"coding":[{"system":"http://terminology.hl7.org/CodeSystem/observation-category","code":"laboratory","display":"Laboratory"}]}],"code":{"coding":[{"system":"http://loinc.org","code":"6690-2"}]},"subject":{"reference":"Patient/0e9cfa88-2259-4339-9cc9-b754df9f28af"},"effectiveDateTime":"2022-11-01T00:00:00+00:00","valueQuantity":{"value":5.7}},"request":{"method":"POST","url":"Observation"}},{"fullUrl":"Observation/26ac3e3f-0c61-482d-8e0c-afb90ad39c2f","resource":{"resourceType":"Observation","id":"26ac3e3f-0c61-482d-8e0c-afb90ad39c2f","meta":{"profile":["http://hl7.org/fhir/us/core/StructureDefinition/us-core-observation-lab"]},"status":"final","category":[{"coding":[{"system":"http://terminology.hl7.org/CodeSystem/observation-category","code":"laboratory","display":"Laboratory"}]}],"code":{"coding":[{"system":"http://loinc.org","code":"804-5"}]},"subject":{"reference":"Patient/0e9cfa88-2259-4339-9cc9-b754df9f28af"},"effectiveDateTime":"2022-11-27T00:00:00+00:00","valueQuantity":{"value":8.8}},"request":{"method":"POST","url":"Observation"}},{"fullUrl":"Observation/08726c1a-d421-43b1-8c11-3089729b46e2","resource":{"resourceType":"Observation","id":"08726c1a-d421-43b1-8c11-3089729b46e2","meta":{"profile":["http://hl7.org/fhir/us/core/StructureDefinition/us-core-bmi"]},"status":"final","category":[{"coding":[{"system":"http://terminology.hl7.org/CodeSystem/observation-category","code":"vital-signs","display":"Vital Signs"}]}],"code":{"coding":[{"system":"http://loinc.org","code":"39156-5"}]},"subject":{"reference":"Patient/0e9cfa88-2259-4339-9cc9-b754df9f28af"},"effectiveDateTime":"2022-07-31T00:00:00+00:00","valueQuantity":{"value":15.1,"unit":"kg/m2","system":"http://unitsofmeasure.org","code":"kg/m2"}},"request":{"method":"POST","url":"Observation"}},{"fullUrl":"Observation/1d6f8211-2687-4e2f-ae51-9df4429b1e9f","resource":{"resourceType":"Observation","id":"1d6f8211-2687-4e2f-ae51-9df4429b1e9f","meta":{"profile":["http://hl7.org/fhir/us/core/StructureDefinition/us-core-head-circumference"]},"status":"final","category":[{"coding":[{"system":"http://terminology.hl7.org/CodeSystem/observation-category","code":"vital-signs","display":"Vital Signs"}]}],"code":{"coding":[{"system":"http://loinc.org","code":"9843-4"}]},"subject":{"reference":"Patient/0e9cfa88-2259-4339-9cc9-b754df9f28af"},"effectiveDateTime":"2022-11-09T00:00:00+00:00","valueQuantity":{"value":4.9,"unit":"Inch","system":"http://unitsofmeasure.org","code":"[in_i]"}},"request":{"method":"POST","url":"Observation"}},{"fullUrl":"Observation/d8e11304-afb0-4762-9858-efc5ebfecb23","resource":{"resourceType":"Observation","id":"d8e11304-afb0-4762-9858-efc5ebfecb23","meta":{"profile":["http://hl7.org/fhir/us/core/StructureDefinition/us-core-head-circumference"]},"status":"final","category":[{"coding":[{"system":"http://terminology.hl7.org/CodeSystem/observation-category","code":"vital-signs","display":"Vital Signs"}]}],"code":{"coding":[{"system":"http://loinc.org","code":"9843-4"}]},"subject":{"reference":"Patient/0e9cfa88-2259-4339-9cc9-b754df9f28af"},"effectiveDateTime":"2022-02-01T00:00:00+00:00","valueQuantity":{"value":3.6,"unit":"Inch","system":"http://unitsofmeasure.org","code":"[in_i]"}},"request":{"method":"POST","url":"Observation"}},{"fullUrl":"Observation/4c2214c2-dd8d-4255-85ee-5b5bef30775c","resource":{"resourceType":"Observation","id":"4c2214c2-dd8d-4255-85ee-5b5bef30775c","meta":{"profile":["http://hl7.org/fhir/us/core/StructureDefinition/us-core-body-height"]},"status":"final","category":[{"coding":[{"system":"http://terminology.hl7.org/CodeSystem/observation-category","code":"vital-signs","display":"Vital Signs"}]}],"code":{"coding":[{"system":"http://loinc.org","code":"8302-2"}]},"subject":{"reference":"Patient/0e9cfa88-2259-4339-9cc9-b754df9f28af"},"effectiveDateTime":"2022-09-08T00:00:00+00:00","valueQuantity":{"value":81.4,"unit":"Inch","system":"http://unitsofmeasure.org","code":"[in_i]"}},"request":{"method":"POST","url":"Observation"}},{"fullUrl":"Observation/bc696ec5-67a3-422f-8da4-809c217d7633","resource":{"resourceType":"Observation","id":"bc696ec5-67a3-422f-8da4-809c217d7633","meta":{"profile":["http://hl7.org/fhir/us/core/StructureDefinition/us-core-body-weight"]},"status":"final","category":[{"coding":[{"system":"http://terminology.hl7.org/CodeSystem/observation-category","code":"vital-signs","display":"Vital Signs"}]}],"code":{"coding":[{"system":"http://loinc.org","code":"29463-7"}]},"subject":{"reference":"Patient/0e9cfa88-2259-4339-9cc9-b754df9f28af"},"effectiveDateTime":"2022-07-29T00:00:00+00:00","valueQuantity":{"value":87.69,"unit":"kilogram","system":"http://unitsofmeasure.org","code":"kg"}},"request":{"method":"POST","url":"Observation"}},{"fullUrl":"Observation/724714af-807f-4be2-ad8d-ccb244fca1c1","resource":{"resourceType":"Observation","id":"724714af-807f-4be2-ad8d-ccb244fca1c1","meta":{"profile":["http://hl7.org/fhir/us/core/StructureDefinition/us-core-body-weight"]},"status":"final","category":[{"coding":[{"system":"http://terminology.hl7.org/CodeSystem/observation-category","code":"vital-signs","display":"Vital Signs"}]}],"code":{"coding":[{"system":"http://loinc.org","code":"29463-7"}]},"subject":{"reference":"Patient/0e9cfa88-2259-4339-9cc9-b754df9f28af"},"effectiveDateTime":"2022-11-26T00:00:00+00:00","valueQuantity":{"value":93.93,"unit":"kilogram","system":"http://unitsofmeasure.org","code":"kg"}},"request":{"method":"POST","url":"Observation"}},{"fullUrl":"Observation/13b4c7d1-a53c-40ea-86af-ac317eeb8b8f","resource":{"resourceType":"Observation","id":"13b4c7d1-a53c-40ea-86af-ac317eeb8b8f","meta":{"profile":["http://hl7.org/fhir/us/core/StructureDefinition/us-core-body-temperature"]},"status":"final","category":[{"coding":[{"system":"http://terminology.hl7.org/CodeSystem/observation-category","code":"vital-signs","display":"Vital Signs"}]}],"code":{"coding":[{"system":"http://loinc.org","code":"8310-5"}]},"subject":{"reference":"Patient/0e9cfa88-2259-4339-9cc9-b754df9f28af"},"effectiveDateTime":"2022-05-13T00:00:00+00:00","valueQuantity":{"value":42.76,"unit":"Degrees Fahrenheit","system":"http://unitsofmeasure.org","code":"[degF]"}},"request":{"method":"POST","url":"Observation"}},{"fullUrl":"Observation/18400d8e-e36d-4648-87a5-3b8e4861ef8b","resource":{"resourceType":"Observation","id":"18400d8e-e36d-4648-87a5-3b8e4861ef8b","meta":{"profile":["http://hl7.org/fhir/us/core/StructureDefinition/us-core-heart-rate"]},"status":"final","category":[{"coding":[{"system":"http://terminology.hl7.org/CodeSystem/observation-category","code":"vital-signs","display":"Vital Signs"}]}],"code":{"coding":[{"system":"http://loinc.org","code":"8867-4"}]},"subject":{"reference":"Patient/0e9cfa88-2259-4339-9cc9-b754df9f28af"},"effectiveDateTime":"2022-10-01T00:00:00+00:00","valueQuantity":{"value":96.8,"unit":"Per Minute","system":"http://unitsofmeasure.org","code":"/min"}},"request":{"method":"POST","url":"Observation"}},{"fullUrl":"Patient/7389960d-1de9-408a-9065-9db8b39af1d3","resource":{"resourceType":"Patient","id":"7389960d-1de9-408a-9065-9db8b39af1d3","meta":{"profile":["http://hl7.org/fhir/us/core/StructureDefinition/us-core-patient"]},"extension":[{"extension":[{"url":"ombCategory","valueCoding":{"system":"urn:oid:2.16.840.1.113883.6.238","code":"2076-8","display":"Native Hawaiian or Other Pacific Islander"}},{"url":"text","valueString":"Native Hawaiian or Other Pacific Islander"}],"url":"http://hl7.org/fhir/us/core/StructureDefinition/us-core-race"},{"extension":[{"url":"ombCategory","valueCoding":{"system":"urn:oid:2.16.840.1.113883.6.238","code":"2135-2","display":"Hispanic or Latino"}},{"url":"text","valueString":"Hispanic or Latino"}],"url":"http://hl7.org/fhir/us/core/StructureDefinition/us-core-ethnicity"}],"identifier":[{"type":{"coding":[{"system":"http://terminology.hl7.org/CodeSystem/v2-0203","code":"MR"}]},"system":"urn:fhirgen:mrn","value":"418-44-1804"}],"name":[{"use":"official","family":"Marshall","given":["Laura"]},{"use":"maiden","family":"Day"}],"telecom":[{"system":"phone","value":"8429381967","use":"home"},{"system":"email","value":"chapmancody@yahoo.com","use":"home"}],"gender":"female","birthDate":"1954-08-30","address":[{"use":"home","line":["53717 Anita Haven Apt. 441"],"city":"Jadeborough","state":"RI","postalCode":"69085"},{"use":"old","line":["7735 Scott Mews Suite 886"],"city":"Port Angela","state":"SD","postalCode":"79853"}]},"request":{"method":"POST","url":"Patient"}},{"fullUrl":"Observation/be9211f4-03dd-48b0-b241-6c27b40b12d7","resource":{"resourceType":"Observation","id":"be9211f4-03dd-48b0-b241-6c27b40b12d7","meta":{"profile":["http://hl7.org/fhir/us/core/StructureDefinition/us-core-observation-lab"]},"status":"final","category":[{"coding":[{"system":"http://terminology.hl7.org/CodeSystem/observation-category","code":"laboratory","display":"Laboratory"}]}],"code":{"coding":[{"system":"http://loinc.org","code":"87925-4"}]},"subject":{"reference":"Patient/7389960d-1de9-408a-9065-9db8b39af1d3"},"effectiveDateTime":"2022-02-13T00:00:00+00:00","valueRatio":{"numerator":{"value":1},"denominator":{"value":32}}},"request":{"method":"POST","url":"Observation"}},{"fullUrl":"Observation/5698850d-93ee-4ba7-9bae-d738b853c1eb","resource":{"resourceType":"Observation","id":"5698850d-93ee-4ba7-9bae-d738b853c1eb","meta":{"profile":["http://hl7.org/fhir/us/core/StructureDefinition/us-core-observation-lab"]},"status":"final","category":[{"coding":[{"system":"http://terminology.hl7.org/CodeSystem/observation-category","code":"laboratory","display":"Laboratory"}]}],"code":{"coding":[{"system":"http://loinc.org","code":"11084-1"}]},"subject":{"reference":"Patient/7389960d-1de9-408a-9065-9db8b39af1d3"},"effectiveDateTime":"2022-05-23T00:00:00+00:00","valueRatio":{"numerator":{"value":1},"denominator":{"value":4}}},"request":{"method":"POST","url":"Observation"}},{"fullUrl":"Observation/10e7ed05-dc80-470c-9924-41193883591f","resource":{"resourceType":"Observation","id":"10e7ed05-dc80-470c-9924-41193883591f","meta":{"profile":["http://hl7.org/fhir/us/core/StructureDefinition/us-core-observation-lab"]},"status":"final","category":[{"coding":[{"system":"http://terminology.hl7.org/CodeSystem/observation-category","code":"laboratory","display":"Laboratory"}]}],"code":{"coding":[{"system":"http://loinc.org","code":"34382-2"}]},"subject":{"reference":"Patient/7389960d-1de9-408a-9065-9db8b39af1d3"},"effectiveDateTime":"2022-06-16T00:00:00+00:00","valueRatio":{"numerator":{"value":1},"denominator":{"value":32}}},"request":{"method":"POST","url":"Observation"}},{"fullUrl":"Condition/cf1f9232-a002-47fc-a697-4c14f3ccce5d","resource":{"resourceType":"Condition","id":"cf1f9232-a002-47fc-a697-4c14f3ccce5d","meta":{"profile":["http://hl7.org/fhir/us/core/StructureDefinition/us-core-condition"]},"clinicalStatus":{"coding":[{"system":"http://terminology.hl7.org/CodeSystem/condition-clinical","code":"active","display":"Active"}]},"category":[{"coding":[{"system":"http://terminology.hl7.org/CodeSystem/condition-category","code":"problem-list-item"}]}],"code":{"coding":[{"system":"http://snomed.info/sct","code":"44882003"}]},"subject":{"reference":"Patient/7389960d-1de9-408a-9065-9db8b39af1d3"},"onsetDateTime":"2022-11-26T00:00:00+00:00"},"request":{"method":"POST","url":"Condition"}},{"fullUrl":"Condition/a3c03727-e860-4498-8a61-e4ad2ec29245","resource":{"resourceType":"Condition","id":"a3c03727-e860-4498-8a61-e4ad2ec29245","meta":{"profile":["http://hl7.org/fhir/us/core/StructureDefinition/us-core-condition"]},"clinicalStatus":{"coding":[{"system":"http://terminology.hl7.org/CodeSystem/condition-clinical","code":"active","display":"Active"}]},"category":[{"coding":[{"system":"http://terminology.hl7.org/CodeSystem/condition-category","code":"problem-list-item"}]}],"code":{"coding":[{"system":"http://snomed.info/sct","code":"44882003"}]},"subject":{"reference":"Patient/7389960d-1de9-408a-9065-9db8b39af1d3"},"onsetDateTime":"2022-05-13T00:00:00+00:00"},"request":{"method":"POST","url":"Condition"}},{"fullUrl":"Condition/55d18fa0-82a0-4449-980d-bf12a2e52718","resource":{"resourceType":"Condition","id":"55d18fa0-82a0-4449-980d-bf12a2e52718","meta":{"profile":["http://hl7.org/fhir/us/core/StructureDefinition/us-core-condition"]},"clinicalStatus":{"coding":[{"system":"http://terminology.hl7.org/CodeSystem/condition-clinical","code":"active","display":"Active"}]},"category":[{"coding":[{"system":"http://terminology.hl7.org/CodeSystem/condition-category","code":"problem-list-item"}]}],"code":{"coding":[{"system":"http://snomed.info/sct","code":"91554004"}]},"subject":{"reference":"Patient/7389960d-1de9-408a-9065-9db8b39af1d3"},"onsetDateTime":"2022-04-17T00:00:00+00:00"},"request":{"method":"POST","url":"Condition"}},{"fullUrl":"Observation/e8ca3299-03b3-42da-8128-d02d27424ffb","resource":{"resourceType":"Observation","id":"e8ca3299-03b3-42da-8128-d02d27424ffb","meta":{"profile":["http://hl7.org/fhir/us/core/StructureDefinition/us-core-observation-lab"]},"status":"final","category":[{"coding":[{"system":"http://terminology.hl7.org/CodeSystem/observation-category","code":"laboratory","display":"Laboratory"}]}],"code":{"coding":[{"system":"http://loinc.org","code":"26464-8"}]},"subject":{"reference":"Patient/7389960d-1de9-408a-9065-9db8b39af1d3"},"effectiveDateTime":"2022-03-09T00:00:00+00:00","valueQuantity":{"value":8.7}},"request":{"method":"POST","url":"Observation"}},{"fullUrl":"Observation/d068d613-a9ae-4621-b4b1-5c12f4e85bd3","resource":{"resourceType":"Observation","id":"d068d613-a9ae-4621-b4b1-5c12f4e85bd3","meta":{"profile":["http://hl7.org/fhir/us/core/StructureDefinition/us-core-observation-lab"]},"status":"final","category":[{"coding":[{"system":"http://terminology.hl7.org/CodeSystem/observation-category","code":"laboratory","display":"Laboratory"}]}],"code":{"coding":[{"system":"http://loinc.org","code":"49498-9"}]},"subject":{"reference":"Patient/7389960d-1de9-408a-9065-9db8b39af1d3"},"effectiveDateTime":"2022-03-05T00:00:00+00:00","valueQuantity":{"value":6.5}},"request":{"method":"POST","url":"Observation"}},{"fullUrl":"Observation/2df31b49-3979-4809-8364-dec1db8a6e10","resource":{"resourceType":"Observation","id":"2df31b49-3979-4809-8364-dec1db8a6e10","meta":{"profile":["http://hl7.org/fhir/us/core/StructureDefinition/us-core-observation-lab"]},"status":"final","category":[{"coding":[{"system":"http://terminology.hl7.org/CodeSystem/observation-category","code":"laboratory","display":"Laboratory"}]}],"code":{"coding":[{"system":"http://loinc.org","code":"26464-8"}]},"subject":{"reference":"Patient/7389960d-1de9-408a-9065-9db8b39af1d3"},"effectiveDateTime":"2022-03-22T00:00:00+00:00","valueQuantity":{"value":10.6}},"request":{"method":"POST","url":"Observation"}},{"fullUrl":"Observation/81d21aed-59c6-4ece-8f5d-eb1ebf9e98e8","resource":{"resourceType":"Observation","id":"81d21aed-59c6-4ece-8f5d-eb1ebf9e98e8","meta":{"profile":["http://hl7.org/fhir/us/core/StructureDefinition/us-core-bmi"]},"status":"final","category":[{"coding":[{"system":"http://terminology.hl7.org/CodeSystem/observation-category","code":"vital-signs","display":"Vital Signs"}]}],"code":{"coding":[{"system":"http://loinc.org","code":"39156-5"}]},"subject":{"reference":"Patient/7389960d-1de9-408a-9065-9db8b39af1d3"},"effectiveDateTime":"2022-05-05T00:00:00+00:00","valueQuantity":{"value":12.9,"unit":"kg/m2","system":"http://unitsofmeasure.org","code":"kg/m2"}},"request":{"method":"POST","url":"Observation"}},{"fullUrl":"Observation/f6e5b1d7-abfe-4a6b-97f9-655c72f3c441","resource":{"resourceType":"Observation","id":"f6e5b1d7-abfe-4a6b-97f9-655c72f3c441","meta":{"profile":["http://hl7.org/fhir/us/core/StructureDefinition/us-core-head-circumference"]},"status":"final","category":[{"coding":[{"system":"http://terminology.hl7.org/CodeSystem/observation-category","code":"vital-signs","display":"Vital Signs"}]}],"code":{"coding":[{"system":"http://loinc.org","code":"9843-4"}]},"subject":{"reference":"Patient/7389960d-1de9-408a-9065-9db8b39af1d3"},"effectiveDateTime":"2022-08-29T00:00:00+00:00","valueQuantity":{"value":7.2,"unit":"Inch","system":"http://unitsofmeasure.org","code":"[in_i]"}},"request":{"method":"POST","url":"Observation"}},{"fullUrl":"Observation/fd5df8b4-5366-413b-a1cc-c9db4ea06ea9","resource":{"resourceType":"Observation","id":"fd5df8b4-5366-413b-a1cc-c9db4ea06ea9","meta":{"profile":["http://hl7.org/fhir/us/core/StructureDefinition/us-core-head-circumference"]},"status":"final","category":[{"coding":[{"system":"http://terminology.hl7.org/CodeSystem/observation-category","code":"vital-signs","display":"Vital Signs"}]}],"code":{"coding":[{"system":"http://loinc.org","code":"9843-4"}]},"subject":{"reference":"Patient/7389960d-1de9-408a-9065-9db8b39af1d3"},"effectiveDateTime":"2022-10-30T00:00:00+00:00","valueQuantity":{"value":6.3,"unit":"Inch","system":"http://unitsofmeasure.org","code":"[in_i]"}},"request":{"method":"POST","url":"Observation"}},{"fullUrl":"Observation/a18f8fe1-e5c0-49bd-92b6-86daf03202fe","resource":{"resourceType":"Observation","id":"a18f8fe1-e5c0-49bd-92b6-86daf03202fe","meta":{"profile":["http://hl7.org/fhir/us/core/StructureDefinition/us-core-body-height"]},"status":"final","category":[{"coding":[{"system":"http://terminology.hl7.org/CodeSystem/observation-category","code":"vital-signs","display":"Vital Signs"}]}],"code":{"coding":[{"system":"http://loinc.org","code":"8302-2"}]},"subject":{"reference":"Patient/7389960d-1de9-408a-9065-9db8b39af1d3"},"effectiveDateTime":"2022-09-24T00:00:00+00:00","valueQuantity":{"value":79,"unit":"Inch","system":"http://unitsofmeasure.org","code":"[in_i]"}},"request":{"method":"POST","url":"Observation"}},{"fullUrl":"Observation/dc5a4499-fdf8-4a27-8780-587e037a04ad","resource":{"resourceType":"Observation","id":"dc5a4499-fdf8-4a27-8780-587e037a04ad","meta":{"profile":["http://hl7.org/fhir/us/core/StructureDefinition/us-core-body-height"]},"status":"final","category":[{"coding":[{"system":"http://terminology.hl7.org/CodeSystem/observation-category","code":"vital-signs","display":"Vital Signs"}]}],"code":{"coding":[{"system":"http://loinc.org","code":"8302-2"}]},"subject":{"reference":"Patient/7389960d-1de9-408a-9065-9db8b39af1d3"},"effectiveDateTime":"2022-06-20T00:00:00+00:00","valueQuantity":{"value":69.1,"unit":"Inch","system":"http://unitsofmeasure.org","code":"[in_i]"}},"request":{"method":"POST","url":"Observation"}},{"fullUrl":"Observation/19cd9b17-a094-4cd5-a35e-624e7d607c5d","resource":{"resourceType":"Observation","id":"19cd9b17-a094-4cd5-a35e-624e7d607c5d","meta":{"profile":["http://hl7.org/fhir/us/core/StructureDefinition/us-core-body-weight"]},"status":"final","category":[{"coding":[{"system":"http://terminology.hl7.org/CodeSystem/observation-category","code":"vital-signs","display":"Vital Signs"}]}],"code":{"coding":[{"system":"http://loinc.org","code":"29463-7"}]},"subject":{"reference":"Patient/7389960d-1de9-408a-9065-9db8b39af1d3"},"effectiveDateTime":"2022-12-10T00:00:00+00:00","valueQuantity":{"value":93.17,"unit":"kilogram","system":"http://unitsofmeasure.org","code":"kg"}},"request":{"method":"POST","url":"Observation"}},{"fullUrl":"Observation/3ffca576-439a-4a5e-aedd-16c4d43eb7ab","resource":{"resourceType":"Observation","id":"3ffca576-439a-4a5e-aedd-16c4d43eb7ab","meta":{"profile":["http://hl7.org/fhir/us/core/StructureDefinition/us-core-body-weight"]},"status":"final","category":[{"coding":[{"system":"http://terminology.hl7.org/CodeSystem/observation-category","code":"vital-signs","display":"Vital Signs"}]}],"code":{"coding":[{"system":"http://loinc.org","code":"29463-7"}]},"subject":{"reference":"Patient/7389960d-1de9-408a-9065-9db8b39af1d3"},"effectiveDateTime":"2022-11-22T00:00:00+00:00","valueQuantity":{"value":90.34,"unit":"kilogram","system":"http://unitsofmeasure.org","code":"kg"}},"request":{"method":"POST","url":"Observation"}},{"fullUrl":"Observation/387c05ff-378c-4daa-97fd-be847b935dd0","resource":{"resourceType":"Observation","id":"387c05ff-378c-4daa-97fd-be847b935dd0","meta":{"profile":["http://hl7.org/fhir/us/core/StructureDefinition/us-core-body-temperature"]},"status":"final","category":[{"coding":[{"system":"http://terminology.hl7.org/CodeSystem/observation-category","code":"vital-signs","display":"Vital Signs"}]}],"code":{"coding":[{"system":"http://loinc.org","code":"8310-5"}]},"subject":{"reference":"Patient/7389960d-1de9-408a-9065-9db8b39af1d3"},"effectiveDateTime":"2022-03-02T00:00:00+00:00","valueQuantity":{"value":22.08,"unit":"Degrees Fahrenheit","system":"http://unitsofmeasure.org","code":"[degF]"}},"request":{"method":"POST","url":"Observation"}},{"fullUrl":"Observation/dec2a7ea-3352-40a3-8f3f-cba4f6b0ab8c","resource":{"resourceType":"Observation","id":"dec2a7ea-3352-40a3-8f3f-cba4f6b0ab8c","meta":{"profile":["http://hl7.org/fhir/us/core/StructureDefinition/us-core-heart-rate"]},"status":"final","category":[{"coding":[{"system":"http://terminology.hl7.org/CodeSystem/observation-category","code":"vital-signs","display":"Vital Signs"}]}],"code":{"coding":[{"system":"http://loinc.org","code":"8867-4"}]},"subject":{"reference":"Patient/7389960d-1de9-408a-9065-9db8b39af1d3"},"effectiveDateTime":"2022-11-10T00:00:00+00:00","valueQuantity":{"value":102,"unit":"Per Minute","system":"http://unitsofmeasure.org","code":"/min"}},"request":{"method":"POST","url":"Observation"}},{"fullUrl":"Observation/d00eb77c-a12a-4ca5-8a73-c6e9963d1172","resource":{"resourceType":"Observation","id":"d00eb77c-a12a-4ca5-8a73-c6e9963d1172","meta":{"profile":["http://hl7.org/fhir/us/core/StructureDefinition/us-core-heart-rate"]},"status":"final","category":[{"coding":[{"system":"http://terminology.hl7.org/CodeSystem/observation-category","code":"vital-signs","display":"Vital Signs"}]}],"code":{"coding":[{"system":"http://loinc.org","code":"8867-4"}]},"subject":{"reference":"Patient/7389960d-1de9-408a-9065-9db8b39af1d3"},"effectiveDateTime":"2022-02-07T00:00:00+00:00","valueQuantity":{"value":95.1,"unit":"Per Minute","system":"http://unitsofmeasure.org","code":"/min"}},"request":{"method":"POST","url":"Observation"}},{"fullUrl":"Patient/0d7896b3-aa83-479b-8e50-340657f98259","resource":{"resourceType":"Patient","id":"0d7896b3-aa83-479b-8e50-340657f98259","meta":{"profile":["http://hl7.org/fhir/us/core/StructureDefinition/us-core-patient"]},"extension":[{"extension":[{"url":"ombCategory","valueCoding":{"system":"urn:oid:2.16.840.1.113883.6.238","code":"2076-8","display":"Native Hawaiian or Other Pacific Islander"}},{"url":"text","valueString":"Native Hawaiian or Other Pacific Islander"}],"url":"http://hl7.org/fhir/us/core/StructureDefinition/us-core-race"},{"extension":[{"url":"ombCategory","valueCoding":{"system":"urn:oid:2.16.840.1.113883.6.238","code":"2186-5","display":"Non Hispanic or Latino"}},{"url":"text","valueString":"Non Hispanic or Latino"}],"url":"http://hl7.org/fhir/us/core/StructureDefinition/us-core-ethnicity"}],"identifier":[{"type":{"coding":[{"system":"http://terminology.hl7.org/CodeSystem/v2-0203","code":"MR"}]},"system":"urn:fhirgen:mrn","value":"093-17-1687"}],"name":[{"use":"official","family":"James","given":["Lynn"]},{"use":"maiden","family":"Diaz"}],"telecom":[{"system":"phone","value":"+1-821-297-8314","use":"mobile"},{"system":"email","value":"matthew19@yahoo.com","use":"work"}],"gender":"female","birthDate":"1989-03-07","address":[{"use":"home","line":["81075 Gibson Island"],"city":"North Patrick","state":"WV","postalCode":"12813"},{"use":"old","line":["3407 James Hill Apt. 684"],"city":"Jenniferbury","state":"MD","postalCode":"93187"}]},"request":{"method":"POST","url":"Patient"}},{"fullUrl":"Observation/a528806b-d581-4af4-aeb4-7873d036c16b","resource":{"resourceType":"Observation","id":"a528806b-d581-4af4-aeb4-7873d036c16b","meta":{"profile":["http://hl7.org/fhir/us/core/StructureDefinition/us-core-observation-lab"]},"status":"final","category":[{"coding":[{"system":"http://terminology.hl7.org/CodeSystem/observation-category","code":"laboratory","display":"Laboratory"}]}],"code":{"coding":[{"system":"http://loinc.org","code":"71793-4"}]},"subject":{"reference":"Patient/0d7896b3-aa83-479b-8e50-340657f98259"},"effectiveDateTime":"2022-06-10T00:00:00+00:00","valueRatio":{"numerator":{"value":1},"denominator":{"value":4}}},"request":{"method":"POST","url":"Observation"}},{"fullUrl":"Observation/80ba523f-b67e-4a74-aaab-490323386e37","resource":{"resourceType":"Observation","id":"80ba523f-b67e-4a74-aaab-490323386e37","meta":{"profile":["http://hl7.org/fhir/us/core/StructureDefinition/us-core-observation-lab"]},"status":"final","category":[{"coding":[{"system":"http://terminology.hl7.org/CodeSystem/observation-category","code":"laboratory","display":"Laboratory"}]}],"code":{"coding":[{"system":"http://loinc.org","code":"50695-6"}]},"subject":{"reference":"Patient/0d7896b3-aa83-479b-8e50-340657f98259"},"effectiveDateTime":"2022-05-07T00:00:00+00:00","valueRatio":{"numerator":{"value":1},"denominator":{"value":4}}},"request":{"method":"POST","url":"Observation"}},{"fullUrl":"Condition/60ee12de-ba78-40b2-8950-ea286657bdd1","resource":{"resourceType":"Condition","id":"60ee12de-ba78-40b2-8950-ea286657bdd1","meta":{"profile":["http://hl7.org/fhir/us/core/StructureDefinition/us-core-condition"]},"clinicalStatus":{"coding":[{"system":"http://terminology.hl7.org/CodeSystem/condition-clinical","code":"active","display":"Active"}]},"category":[{"coding":[{"system":"http://terminology.hl7.org/CodeSystem/condition-category","code":"problem-list-item"}]}],"code":{"coding":[{"system":"http://snomed.info/sct","code":"44882003"}]},"subject":{"reference":"Patient/0d7896b3-aa83-479b-8e50-340657f98259"},"onsetDateTime":"2022-05-17T00:00:00+00:00"},"request":{"method":"POST","url":"Condition"}},{"fullUrl":"Condition/4694563c-fc82-4c2d-bcb3-b8a9d1d132d3","resource":{"resourceType":"Condition","id":"4694563c-fc82-4c2d-bcb3-b8a9d1d132d3","meta":{"profile":["http://hl7.org/fhir/us/core/StructureDefinition/us-core-condition"]},"clinicalStatus":{"coding":[{"system":"http://terminology.hl7.org/CodeSystem/condition-clinical","code":"active","display":"Active"}]},"category":[{"coding":[{"system":"http://terminology.hl7.org/CodeSystem/condition-category","code":"problem-list-item"}]}],"code":{"coding":[{"system":"http://snomed.info/sct","code":"709977002"}]},"subject":{"reference":"Patient/0d7896b3-aa83-479b-8e50-340657f98259"},"onsetDateTime":"2022-06-20T00:00:00+00:00"},"request":{"method":"POST","url":"Condition"}},{"fullUrl":"Condition/4492c2e9-eed5-41ac-8b93-65d037994746","resource":{"resourceType":"Condition","id":"4492c2e9-eed5-41ac-8b93-65d037994746","meta":{"profile":["http://hl7.org/fhir/us/core/StructureDefinition/us-core-condition"]},"clinicalStatus":{"coding":[{"system":"http://terminology.hl7.org/CodeSystem/condition-clinical","code":"active","display":"Active"}]},"category":[{"coding":[{"system":"http://terminology.hl7.org/CodeSystem/condition-category","code":"problem-list-item"}]}],"code":{"coding":[{"system":"http://snomed.info/sct","code":"44882003"}]},"subject":{"reference":"Patient/0d7896b3-aa83-479b-8e50-340657f98259"},"onsetDateTime":"2022-07-14T00:00:00+00:00"},"request":{"method":"POST","url":"Condition"}},{"fullUrl":"Condition/5eb24ac3-97f0-4436-a3f2-5c59bcff472d","resource":{"resourceType":"Condition","id":"5eb24ac3-97f0-4436-a3f2-5c59bcff472d","meta":{"profile":["http://hl7.org/fhir/us/core/StructureDefinition/us-core-condition"]},"clinicalStatus":{"coding":[{"system":"http://terminology.hl7.org/CodeSystem/condition-clinical","code":"active","display":"Active"}]},"category":[{"coding":[{"system":"http://terminology.hl7.org/CodeSystem/condition-category","code":"problem-list-item"}]}],"code":{"coding":[{"system":"http://snomed.info/sct","code":"709977002"}]},"subject":{"reference":"Patient/0d7896b3-aa83-479b-8e50-340657f98259"},"onsetDateTime":"2022-05-03T00:00:00+00:00"},"request":{"method":"POST","url":"Condition"}},{"fullUrl":"Condition/d6e5c929-e0e3-4e90-9461-ced3b15d7254","resource":{"resourceType":"Condition","id":"d6e5c929-e0e3-4e90-9461-ced3b15d7254","meta":{"profile":["http://hl7.org/fhir/us/core/StructureDefinition/us-core-condition"]},"clinicalStatus":{"coding":[{"system":"http://terminology.hl7.org/CodeSystem/condition-clinical","code":"active","display":"Active"}]},"category":[{"coding":[{"system":"http://terminology.hl7.org/CodeSystem/condition-category","code":"problem-list-item"}]}],"code":{"coding":[{"system":"http://snomed.info/sct","code":"44882003"}]},"subject":{"reference":"Patient/0d7896b3-aa83-479b-8e50-340657f98259"},"onsetDateTime":"2022-02-12T00:00:00+00:00"},"request":{"method":"POST","url":"Condition"}},{"fullUrl":"Observation/b52251f3-3737-4fa8-961c-6d55db4cd334","resource":{"resourceType":"Observation","id":"b52251f3-3737-4fa8-961c-6d55db4cd334","meta":{"profile":["http://hl7.org/fhir/us/core/StructureDefinition/us-core-observation-lab"]},"status":"final","category":[{"coding":[{"system":"http://terminology.hl7.org/CodeSystem/observation-category","code":"laboratory","display":"Laboratory"}]}],"code":{"coding":[{"system":"http://loinc.org","code":"49498-9"}]},"subject":{"reference":"Patient/0d7896b3-aa83-479b-8e50-340657f98259"},"effectiveDateTime":"2022-08-13T00:00:00+00:00","valueQuantity":{"value":9.9}},"request":{"method":"POST","url":"Observation"}},{"fullUrl":"Observation/d6d39927-15ed-41cf-b5ec-a047180c7796","resource":{"resourceType":"Observation","id":"d6d39927-15ed-41cf-b5ec-a047180c7796","meta":{"profile":["http://hl7.org/fhir/us/core/StructureDefinition/us-core-observation-lab"]},"status":"final","category":[{"coding":[{"system":"http://terminology.hl7.org/CodeSystem/observation-category","code":"laboratory","display":"Laboratory"}]}],"code":{"coding":[{"system":"http://loinc.org","code":"6690-2"}]},"subject":{"reference":"Patient/0d7896b3-aa83-479b-8e50-340657f98259"},"effectiveDateTime":"2022-03-07T00:00:00+00:00","valueQuantity":{"value":9.1}},"request":{"method":"POST","url":"Observation"}},{"fullUrl":"Observation/c84a5516-c514-42ac-be57-cd51f90cfea4","resource":{"resourceType":"Observation","id":"c84a5516-c514-42ac-be57-cd51f90cfea4","meta":{"profile":["http://hl7.org/fhir/us/core/StructureDefinition/us-core-bmi"]},"status":"final","category":[{"coding":[{"system":"http://terminology.hl7.org/CodeSystem/observation-category","code":"vital-signs","display":"Vital Signs"}]}],"code":{"coding":[{"system":"http://loinc.org","code":"39156-5"}]},"subject":{"reference":"Patient/0d7896b3-aa83-479b-8e50-340657f98259"},"effectiveDateTime":"2022-05-19T00:00:00+00:00","valueQuantity":{"value":27.72,"unit":"kg/m2","system":"http://unitsofmeasure.org","code":"kg/m2"}},"request":{"method":"POST","url":"Observation"}},{"fullUrl":"Observation/625a1632-6f8c-490c-ae9f-87884e5ab54d","resource":{"resourceType":"Observation","id":"625a1632-6f8c-490c-ae9f-87884e5ab54d","meta":{"profile":["http://hl7.org/fhir/us/core/StructureDefinition/us-core-head-circumference"]},"status":"final","category":[{"coding":[{"system":"http://terminology.hl7.org/CodeSystem/observation-category","code":"vital-signs","display":"Vital Signs"}]}],"code":{"coding":[{"system":"http://loinc.org","code":"9843-4"}]},"subject":{"reference":"Patient/0d7896b3-aa83-479b-8e50-340657f98259"},"effectiveDateTime":"2022-09-28T00:00:00+00:00","valueQuantity":{"value":2.9,"unit":"Inch","system":"http://unitsofmeasure.org","code":"[in_i]"}},"request":{"method":"POST","url":"Observation"}},{"fullUrl":"Observation/51410a24-5f55-4854-a0b6-45786455ebf8","resource":{"resourceType":"Observation","id":"51410a24-5f55-4854-a0b6-45786455ebf8","meta":{"profile":["http://hl7.org/fhir/us/core/StructureDefinition/us-core-head-circumference"]},"status":"final","category":[{"coding":[{"system":"http://terminology.hl7.org/CodeSystem/observation-category","code":"vital-signs","display":"Vital Signs"}]}],"code":{"coding":[{"system":"http://loinc.org","code":"9843-4"}]},"subject":{"reference":"Patient/0d7896b3-aa83-479b-8e50-340657f98259"},"effectiveDateTime":"2022-10-12T00:00:00+00:00","valueQuantity":{"value":9.8,"unit":"Inch","system":"http://unitsofmeasure.org","code":"[in_i]"}},"request":{"method":"POST","url":"Observation"}},{"fullUrl":"Observation/0311943a-d3c2-4993-9eda-480ea4c79cfc","resource":{"resourceType":"Observation","id":"0311943a-d3c2-4993-9eda-480ea4c79cfc","meta":{"profile":["http://hl7.org/fhir/us/core/StructureDefinition/us-core-body-height"]},"status":"final","category":[{"coding":[{"system":"http://terminology.hl7.org/CodeSystem/observation-category","code":"vital-signs","display":"Vital Signs"}]}],"code":{"coding":[{"system":"http://loinc.org","code":"8302-2"}]},"subject":{"reference":"Patient/0d7896b3-aa83-479b-8e50-340657f98259"},"effectiveDateTime":"2022-10-24T00:00:00+00:00","valueQuantity":{"value":75.5,"unit":"Inch","system":"http://unitsofmeasure.org","code":"[in_i]"}},"request":{"method":"POST","url":"Observation"}},{"fullUrl":"Observation/5aa256b6-04c2-45af-8004-3592cc47e2fb","resource":{"resourceType":"Observation","id":"5aa256b6-04c2-45af-8004-3592cc47e2fb","meta":{"profile":["http://hl7.org/fhir/us/core/StructureDefinition/us-core-body-weight"]},"status":"final","category":[{"coding":[{"system":"http://terminology.hl7.org/CodeSystem/observation-category","code":"vital-signs","display":"Vital Signs"}]}],"code":{"coding":[{"system":"http://loinc.org","code":"29463-7"}]},"subject":{"reference":"Patient/0d7896b3-aa83-479b-8e50-340657f98259"},"effectiveDateTime":"2022-07-08T00:00:00+00:00","valueQuantity":{"value":50.31,"unit":"kilogram","system":"http://unitsofmeasure.org","code":"kg"}},"request":{"method":"POST","url":"Observation"}},{"fullUrl":"Observation/e0eb4ab7-d0bf-4eff-91de-3cf046f8a85f","resource":{"resourceType":"Observation","id":"e0eb4ab7-d0bf-4eff-91de-3cf046f8a85f","meta":{"profile":["http://hl7.org/fhir/us/core/StructureDefinition/us-core-body-temperature"]},"status":"final","category":[{"coding":[{"system":"http://terminology.hl7.org/CodeSystem/observation-category","code":"vital-signs","display":"Vital Signs"}]}],"code":{"coding":[{"system":"http://loinc.org","code":"8310-5"}]},"subject":{"reference":"Patient/0d7896b3-aa83-479b-8e50-340657f98259"},"effectiveDateTime":"2022-12-16T00:00:00+00:00","valueQuantity":{"value":123.02,"unit":"Degrees Fahrenheit","system":"http://unitsofmeasure.org","code":"[degF]"}},"request":{"method":"POST","url":"Observation"}},{"fullUrl":"Observation/60034037-1053-4f80-b063-52af14932d54","resource":{"resourceType":"Observation","id":"60034037-1053-4f80-b063-52af14932d54","meta":{"profile":["http://hl7.org/fhir/us/core/StructureDefinition/us-core-heart-rate"]},"status":"final","category":[{"coding":[{"system":"http://terminology.hl7.org/CodeSystem/observation-category","code":"vital-signs","display":"Vital Signs"}]}],"code":{"coding":[{"system":"http://loinc.org","code":"8867-4"}]},"subject":{"reference":"Patient/0d7896b3-aa83-479b-8e50-340657f98259"},"effectiveDateTime":"2022-05-16T00:00:00+00:00","valueQuantity":{"value":97.7,"unit":"Per Minute","system":"http://unitsofmeasure.org","code":"/min"}},"request":{"method":"POST","url":"Observation"}},{"fullUrl":"Patient/d7139ea5-fca6-4a85-b3df-bb162f0d8aef","resource":{"resourceType":"Patient","id":"d7139ea5-fca6-4a85-b3df-bb162f0d8aef","meta":{"profile":["http://hl7.org/fhir/us/core/StructureDefinition/us-core-patient"]},"extension":[{"extension":[{"url":"ombCategory","valueCoding":{"system":"http://terminology.hl7.org/CodeSystem/v3-NullFlavor","code":"UNK","display":"unknown"}},{"url":"text","valueString":"unknown"}],"url":"http://hl7.org/fhir/us/core/StructureDefinition/us-core-race"},{"extension":[{"url":"ombCategory","valueCoding":{"system":"urn:oid:2.16.840.1.113883.6.238","code":"2135-2","display":"Hispanic or Latino"}},{"url":"text","valueString":"Hispanic or Latino"}],"url":"http://hl7.org/fhir/us/core/StructureDefinition/us-core-ethnicity"}],"identifier":[{"type":{"coding":[{"system":"http://terminology.hl7.org/CodeSystem/v2-0203","code":"MR"}]},"system":"urn:fhirgen:mrn","value":"285-30-5697"}],"name":[{"use":"official","family":"Kaufman","given":["Cameron"]},{"use":"maiden","family":"Thompson"}],"telecom":[{"system":"phone","value":"641.616.7689","use":"work"},{"system":"email","value":"gonzalezwilliam@hotmail.com","use":"work"}],"gender":"other","birthDate":"1958-03-31","address":[{"use":"home","line":["7911 Morgan Fords"],"city":"New Angelica","state":"WA","postalCode":"21490"},{"use":"old","line":["943 Boyer Crossing Apt. 269"],"city":"Port Marthaburgh","state":"PA","postalCode":"53768"}]},"request":{"method":"POST","url":"Patient"}},{"fullUrl":"Observation/63981f4f-99eb-4d6d-b474-6c21e5eb549e","resource":{"resourceType":"Observation","id":"63981f4f-99eb-4d6d-b474-6c21e5eb549e","meta":{"profile":["http://hl7.org/fhir/us/core/StructureDefinition/us-core-observation-lab"]},"status":"final","category":[{"coding":[{"system":"http://terminology.hl7.org/CodeSystem/observation-category","code":"laboratory","display":"Laboratory"}]}],"code":{"coding":[{"system":"http://loinc.org","code":"11084-1"}]},"subject":{"reference":"Patient/d7139ea5-fca6-4a85-b3df-bb162f0d8aef"},"effectiveDateTime":"2022-09-05T00:00:00+00:00","valueRatio":{"numerator":{"value":1},"denominator":{"value":64}}},"request":{"method":"POST","url":"Observation"}},{"fullUrl":"Observation/b9782249-bbac-4e55-bcfa-626a5f89ff30","resource":{"resourceType":"Observation","id":"b9782249-bbac-4e55-bcfa-626a5f89ff30","meta":{"profile":["http://hl7.org/fhir/us/core/StructureDefinition/us-core-observation-lab"]},"status":"final","category":[{"coding":[{"system":"http://terminology.hl7.org/CodeSystem/observation-category","code":"laboratory","display":"Laboratory"}]}],"code":{"coding":[{"system":"http://loinc.org","code":"51475-2"}]},"subject":{"reference":"Patient/d7139ea5-fca6-4a85-b3df-bb162f0d8aef"},"effectiveDateTime":"2022-03-29T00:00:00+00:00","valueRatio":{"numerator":{"value":1},"denominator":{"value":64}}},"request":{"method":"POST","url":"Observation"}},{"fullUrl":"Condition/ef39bac2-efa8-4bc2-ab5f-ca1adae20b04","resource":{"resourceType":"Condition","id":"ef39bac2-efa8-4bc2-ab5f-ca1adae20b04","meta":{"profile":["http://hl7.org/fhir/us/core/StructureDefinition/us-core-condition"]},"clinicalStatus":{"coding":[{"system":"http://terminology.hl7.org/CodeSystem/condition-clinical","code":"active","display":"Active"}]},"category":[{"coding":[{"system":"http://terminology.hl7.org/CodeSystem/condition-category","code":"problem-list-item"}]}],"code":{"coding":[{"system":"http://snomed.info/sct","code":"418290006"}]},"subject":{"reference":"Patient/d7139ea5-fca6-4a85-b3df-bb162f0d8aef"},"onsetDateTime":"2022-07-02T00:00:00+00:00"},"request":{"method":"POST","url":"Condition"}},{"fullUrl":"Condition/4820cd23-071f-454a-9496-e2825aa3f765","resource":{"resourceType":"Condition","id":"4820cd23-071f-454a-9496-e2825aa3f765","meta":{"profile":["http://hl7.org/fhir/us/core/StructureDefinition/us-core-condition"]},"clinicalStatus":{"coding":[{"system":"http://terminology.hl7.org/CodeSystem/condition-clinical","code":"active","display":"Active"}]},"category":[{"coding":[{"system":"http://terminology.hl7.org/CodeSystem/condition-category","code":"problem-list-item"}]}],"code":{"coding":[{"system":"http://snomed.info/sct","code":"44882003"}]},"subject":{"reference":"Patient/d7139ea5-fca6-4a85-b3df-bb162f0d8aef"},"onsetDateTime":"2022-09-05T00:00:00+00:00"},"request":{"method":"POST","url":"Condition"}},{"fullUrl":"Condition/e7721d2a-b9ab-4860-bdd3-68509324091d","resource":{"resourceType":"Condition","id":"e7721d2a-b9ab-4860-bdd3-68509324091d","meta":{"profile":["http://hl7.org/fhir/us/core/StructureDefinition/us-core-condition"]},"clinicalStatus":{"coding":[{"system":"http://terminology.hl7.org/CodeSystem/condition-clinical","code":"active","display":"Active"}]},"category":[{"coding":[{"system":"http://terminology.hl7.org/CodeSystem/condition-category","code":"problem-list-item"}]}],"code":{"coding":[{"system":"http://snomed.info/sct","code":"736686006"}]},"subject":{"reference":"Patient/d7139ea5-fca6-4a85-b3df-bb162f0d8aef"},"onsetDateTime":"2022-01-20T00:00:00+00:00"},"request":{"method":"POST","url":"Condition"}},{"fullUrl":"Condition/3b5682bc-0297-4407-bd61-85b0be207f27","resource":{"resourceType":"Condition","id":"3b5682bc-0297-4407-bd61-85b0be207f27","meta":{"profile":["http://hl7.org/fhir/us/core/StructureDefinition/us-core-condition"]},"clinicalStatus":{"coding":[{"system":"http://terminology.hl7.org/CodeSystem/condition-clinical","code":"active","display":"Active"}]},"category":[{"coding":[{"system":"http://terminology.hl7.org/CodeSystem/condition-category","code":"problem-list-item"}]}],"code":{"coding":[{"system":"http://snomed.info/sct","code":"709977002"}]},"subject":{"reference":"Patient/d7139ea5-fca6-4a85-b3df-bb162f0d8aef"},"onsetDateTime":"2022-05-07T00:00:00+00:00"},"request":{"method":"POST","url":"Condition"}},{"fullUrl":"Condition/0451824f-dd57-45ae-8ff2-a6659d50d596","resource":{"resourceType":"Condition","id":"0451824f-dd57-45ae-8ff2-a6659d50d596","meta":{"profile":["http://hl7.org/fhir/us/core/StructureDefinition/us-core-condition"]},"clinicalStatus":{"coding":[{"system":"http://terminology.hl7.org/CodeSystem/condition-clinical","code":"active","display":"Active"}]},"category":[{"coding":[{"system":"http://terminology.hl7.org/CodeSystem/condition-category","code":"problem-list-item"}]}],"code":{"coding":[{"system":"http://snomed.info/sct","code":"736686006"}]},"subject":{"reference":"Patient/d7139ea5-fca6-4a85-b3df-bb162f0d8aef"},"onsetDateTime":"2022-02-06T00:00:00+00:00"},"request":{"method":"POST","url":"Condition"}},{"fullUrl":"Observation/e9c10d5c-5ba3-41f6-a76a-627204988314","resource":{"resourceType":"Observation","id":"e9c10d5c-5ba3-41f6-a76a-627204988314","meta":{"profile":["http://hl7.org/fhir/us/core/StructureDefinition/us-core-observation-lab"]},"status":"final","category":[{"coding":[{"system":"http://terminology.hl7.org/CodeSystem/observation-category","code":"laboratory","display":"Laboratory"}]}],"code":{"coding":[{"system":"http://loinc.org","code":"804-5"}]},"subject":{"reference":"Patient/d7139ea5-fca6-4a85-b3df-bb162f0d8aef"},"effectiveDateTime":"2022-05-16T00:00:00+00:00","valueQuantity":{"value":8.8}},"request":{"method":"POST","url":"Observation"}},{"fullUrl":"Observation/f1d943e1-fff5-4420-b939-da4a81b5d14b","resource":{"resourceType":"Observation","id":"f1d943e1-fff5-4420-b939-da4a81b5d14b","meta":{"profile":["http://hl7.org/fhir/us/core/StructureDefinition/us-core-observation-lab"]},"status":"final","category":[{"coding":[{"system":"http://terminology.hl7.org/CodeSystem/observation-category","code":"laboratory","display":"Laboratory"}]}],"code":{"coding":[{"system":"http://loinc.org","code":"6690-2"}]},"subject":{"reference":"Patient/d7139ea5-fca6-4a85-b3df-bb162f0d8aef"},"effectiveDateTime":"2022-03-31T00:00:00+00:00","valueQuantity":{"value":9}},"request":{"method":"POST","url":"Observation"}},{"fullUrl":"Observation/69c63de8-08a4-4827-9759-58d8ec170a58","resource":{"resourceType":"Observation","id":"69c63de8-08a4-4827-9759-58d8ec170a58","meta":{"profile":["http://hl7.org/fhir/us/core/StructureDefinition/us-core-bmi"]},"status":"final","category":[{"coding":[{"system":"http://terminology.hl7.org/CodeSystem/observation-category","code":"vital-signs","display":"Vital Signs"}]}],"code":{"coding":[{"system":"http://loinc.org","code":"39156-5"}]},"subject":{"reference":"Patient/d7139ea5-fca6-4a85-b3df-bb162f0d8aef"},"effectiveDateTime":"2022-08-17T00:00:00+00:00","valueQuantity":{"value":28.89,"unit":"kg/m2","system":"http://unitsofmeasure.org","code":"kg/m2"}},"request":{"method":"POST","url":"Observation"}},{"fullUrl":"Observation/671840a2-2f73-43c3-b039-41f8e8945020","resource":{"resourceType":"Observation","id":"671840a2-2f73-43c3-b039-41f8e8945020","meta":{"profile":["http://hl7.org/fhir/us/core/StructureDefinition/us-core-bmi"]},"status":"final","category":[{"coding":[{"system":"http://terminology.hl7.org/CodeSystem/observation-category","code":"vital-signs","display":"Vital Signs"}]}],"code":{"coding":[{"system":"http://loinc.org","code":"39156-5"}]},"subject":{"reference":"Patient/d7139ea5-fca6-4a85-b3df-bb162f0d8aef"},"effectiveDateTime":"2022-01-21T00:00:00+00:00","valueQuantity":{"value":10.75,"unit":"kg/m2","system":"http://unitsofmeasure.org","code":"kg/m2"}},"request":{"method":"POST","url":"Observation"}},{"fullUrl":"Observation/a742d996-43f0-443b-bcdd-9d2ecd3b98d9","resource":{"resourceType":"Observation","id":"a742d996-43f0-443b-bcdd-9d2ecd3b98d9","meta":{"profile":["http://hl7.org/fhir/us/core/StructureDefinition/us-core-head-circumference"]},"status":"final","category":[{"coding":[{"system":"http://terminology.hl7.org/CodeSystem/observation-category","code":"vital-signs","display":"Vital Signs"}]}],"code":{"coding":[{"system":"http://loinc.org","code":"9843-4"}]},"subject":{"reference":"Patient/d7139ea5-fca6-4a85-b3df-bb162f0d8aef"},"effectiveDateTime":"2022-10-04T00:00:00+00:00","valueQuantity":{"value":2.2,"unit":"Inch","system":"http://unitsofmeasure.org","code":"[in_i]"}},"request":{"method":"POST","url":"Observation"}},{"fullUrl":"Observation/2789cd58-2c2c-4b6f-86e1-3ebd3953348c","resource":{"resourceType":"Observation","id":"2789cd58-2c2c-4b6f-86e1-3ebd3953348c","meta":{"profile":["http://hl7.org/fhir/us/core/StructureDefinition/us-core-body-height"]},"status":"final","category":[{"coding":[{"system":"http://terminology.hl7.org/CodeSystem/observation-category","code":"vital-signs","display":"Vital Signs"}]}],"code":{"coding":[{"system":"http://loinc.org","code":"8302-2"}]},"subject":{"reference":"Patient/d7139ea5-fca6-4a85-b3df-bb162f0d8aef"},"effectiveDateTime":"2022-03-26T00:00:00+00:00","valueQuantity":{"value":81.2,"unit":"Inch","system":"http://unitsofmeasure.org","code":"[in_i]"}},"request":{"method":"POST","url":"Observation"}},{"fullUrl":"Observation/589f0d44-1262-4e74-9223-af7b2dd0beb9","resource":{"resourceType":"Observation","id":"589f0d44-1262-4e74-9223-af7b2dd0beb9","meta":{"profile":["http://hl7.org/fhir/us/core/StructureDefinition/us-core-body-weight"]},"status":"final","category":[{"coding":[{"system":"http://terminology.hl7.org/CodeSystem/observation-category","code":"vital-signs","display":"Vital Signs"}]}],"code":{"coding":[{"system":"http://loinc.org","code":"29463-7"}]},"subject":{"reference":"Patient/d7139ea5-fca6-4a85-b3df-bb162f0d8aef"},"effectiveDateTime":"2022-01-06T00:00:00+00:00","valueQuantity":{"value":93.78,"unit":"kilogram","system":"http://unitsofmeasure.org","code":"kg"}},"request":{"method":"POST","url":"Observation"}},{"fullUrl":"Observation/bc2c8294-3a64-46c2-ba83-3d1c40fb3745","resource":{"resourceType":"Observation","id":"bc2c8294-3a64-46c2-ba83-3d1c40fb3745","meta":{"profile":["http://hl7.org/fhir/us/core/StructureDefinition/us-core-body-temperature"]},"status":"final","category":[{"coding":[{"system":"http://terminology.hl7.org/CodeSystem/observation-category","code":"vital-signs","display":"Vital Signs"}]}],"code":{"coding":[{"system":"http://loinc.org","code":"8310-5"}]},"subject":{"reference":"Patient/d7139ea5-fca6-4a85-b3df-bb162f0d8aef"},"effectiveDateTime":"2022-08-16T00:00:00+00:00","valueQuantity":{"value":50.42,"unit":"Degrees Fahrenheit","system":"http://unitsofmeasure.org","code":"[degF]"}},"request":{"method":"POST","url":"Observation"}},{"fullUrl":"Observation/f519e42e-fb3d-499c-9073-dbf77acf18c3","resource":{"resourceType":"Observation","id":"f519e42e-fb3d-499c-9073-dbf77acf18c3","meta":{"profile":["http://hl7.org/fhir/us/core/StructureDefinition/us-core-body-temperature"]},"status":"final","category":[{"coding":[{"system":"http://terminology.hl7.org/CodeSystem/observation-category","code":"vital-signs","display":"Vital Signs"}]}],"code":{"coding":[{"system":"http://loinc.org","code":"8310-5"}]},"subject":{"reference":"Patient/d7139ea5-fca6-4a85-b3df-bb162f0d8aef"},"effectiveDateTime":"2022-10-28T00:00:00+00:00","valueQuantity":{"value":133.09,"unit":"Degrees Fahrenheit","system":"http://unitsofmeasure.org","code":"[degF]"}},"request":{"method":"POST","url":"Observation"}},{"fullUrl":"Observation/dff6f98c-49aa-4f67-94f8-741b69dad692","resource":{"resourceType":"Observation","id":"dff6f98c-49aa-4f67-94f8-741b69dad692","meta":{"profile":["http://hl7.org/fhir/us/core/StructureDefinition/us-core-heart-rate"]},"status":"final","category":[{"coding":[{"system":"http://terminology.hl7.org/CodeSystem/observation-category","code":"vital-signs","display":"Vital Signs"}]}],"code":{"coding":[{"system":"http://loinc.org","code":"8867-4"}]},"subject":{"reference":"Patient/d7139ea5-fca6-4a85-b3df-bb162f0d8aef"},"effectiveDateTime":"2022-09-09T00:00:00+00:00","valueQuantity":{"value":96.5,"unit":"Per Minute","system":"http://unitsofmeasure.org","code":"/min"}},"request":{"method":"POST","url":"Observation"}}]}