{"resourceType":"Bundle","id":"3a62fd71-e9a2-4dd8-ba6c-76e7807c6d39","type":"transaction","entry":[{"fullUrl":"Patient/e769c2e1-2d73-4368-8ff6-7e02d0345778","resource":{"resourceType":"Patient","id":"e769c2e1-2d73-4368-8ff6-7e02d0345778","meta":{"profile":["http://hl7.org/fhir/us/core/StructureDefinition/us-core-patient"]},"identifier":[{"type":{"coding":[{"system":"http://terminology.hl7.org/CodeSystem/v2-0203","code":"MR"}]},"system":"urn:fhirgen:mrn","value":"367-94-5915"}],"name":[{"family":"Berry","given":["Dwayne"]}],"gender":"male","birthDate":"1971-11-15","address":[{"line":["64580 Sandra Highway"],"city":"Thomasmouth","state":"North Dakota"}]},"request":{"method":"POST","url":"Patient"}},{"fullUrl":"Observation/cf14b1b5-9da3-43d6-9f0e-97026a0e8ec4","resource":{"resourceType":"Observation","id":"cf14b1b5-9da3-43d6-9f0e-97026a0e8ec4","status":"final","code":{"coding":[{"system":"http://loinc.org","code":"47235-7"}]},"subject":{"reference":"Patient/e769c2e1-2d73-4368-8ff6-7e02d0345778"},"effectiveDateTime":"2022-06-15T00:00:00+00:00","valueRatio":{"numerator":{"value":1.0},"denominator":{"value":64.0}}},"request":{"method":"POST","url":"Observation"}},{"fullUrl":"Observation/f531e099-2f66-4cda-aecc-ba9b46fceca8","resource":{"resourceType":"Observation","id":"f531e099-2f66-4cda-aecc-ba9b46fceca8","status":"final","code":{"coding":[{"system":"http://loinc.org","code":"22590-4"}]},"subject":{"reference":"Patient/e769c2e1-2d73-4368-8ff6-7e02d0345778"},"effectiveDateTime":"2022-04-22T00:00:00+00:00","valueRatio":{"numerator":{"value":1.0},"denominator":{"value":32.0}}},"request":{"method":"POST","url":"Observation"}},{"fullUrl":"Observation/6d790d3d-3d19-40eb-8a6f-ed4306731838","resource":{"resourceType":"Observation","id":"6d790d3d-3d19-40eb-8a6f-ed4306731838","status":"final","code":{"coding":[{"system":"http://loinc.org","code":"5394-2"}]},"subject":{"reference":"Patient/e769c2e1-2d73-4368-8ff6-7e02d0345778"},"effectiveDateTime":"2022-08-24T00:00:00+00:00","valueRatio":{"numerator":{"value":1.0},"denominator":{"value":64.0}}},"request":{"method":"POST","url":"Observation"}},{"fullUrl":"Condition/d9850091-b424-47aa-a157-52077f1464e7","resource":{"resourceType":"Condition","id":"d9850091-b424-47aa-a157-52077f1464e7","code":{"coding":[{"system":"http://snomed.info/sct","code":"44882003"}]},"subject":{"reference":"Patient/e769c2e1-2d73-4368-8ff6-7e02d0345778"},"onsetDateTime":"2022-08-05T00:00:00+00:00"},"request":{"method":"POST","url":"Condition"}},{"fullUrl":"Condition/264d44d7-e9bb-4479-814a-4e803e84ca33","resource":{"resourceType":"Condition","id":"264d44d7-e9bb-4479-814a-4e803e84ca33","code":{"coding":[{"system":"http://snomed.info/sct","code":"271939006"}]},"subject":{"reference":"Patient/e769c2e1-2d73-4368-8ff6-7e02d0345778"},"onsetDateTime":"2022-03-28T00:00:00+00:00"},"request":{"method":"POST","url":"Condition"}},{"fullUrl":"Condition/f6ade3c6-4a86-4a00-b44b-a28f11154254","resource":{"resourceType":"Condition","id":"f6ade3c6-4a86-4a00-b44b-a28f11154254","code":{"coding":[{"system":"http://snomed.info/sct","code":"736686006"}]},"subject":{"reference":"Patient/e769c2e1-2d73-4368-8ff6-7e02d0345778"},"onsetDateTime":"2022-08-24T00:00:00+00:00"},"request":{"method":"POST","url":"Condition"}},{"fullUrl":"Condition/2aa035f0-6ee6-456b-ba8a-db24639fedf0","resource":{"resourceType":"Condition","id":"2aa035f0-6ee6-456b-ba8a-db24639fedf0","code":{"coding":[{"system":"http://snomed.info/sct","code":"418290006"}]},"subject":{"reference":"Patient/e769c2e1-2d73-4368-8ff6-7e02d0345778"},"onsetDateTime":"2022-12-17T00:00:00+00:00"},"request":{"method":"POST","url":"Condition"}},{"fullUrl":"Condition/d4060fe4-05b0-4cae-b9ac-15fe61a4c431","resource":{"resourceType":"Condition","id":"d4060fe4-05b0-4cae-b9ac-15fe61a4c431","code":{"coding":[{"system":"http://snomed.info/sct","code":"79342006"}]},"subject":{"reference":"Patient/e769c2e1-2d73-4368-8ff6-7e02d0345778"},"onsetDateTime":"2022-12-16T00:00:00+00:00"},"request":{"method":"POST","url":"Condition"}},{"fullUrl":"Observation/69725cae-bda2-4678-b53b-ab9c50980ffb","resource":{"resourceType":"Observation","id":"69725cae-bda2-4678-b53b-ab9c50980ffb","status":"final","code":{"coding":[{"system":"http://loinc.org","code":"6690-2"}]},"subject":{"reference":"Patient/e769c2e1-2d73-4368-8ff6-7e02d0345778"},"effectiveDateTime":"2022-05-05T00:00:00+00:00","valueQuantity":{"value":7.3}},"request":{"method":"POST","url":"Observation"}},{"fullUrl":"Observation/a4e07ede-d0e3-4f93-b659-61993f077bf2","resource":{"resourceType":"Observation","id":"a4e07ede-d0e3-4f93-b659-61993f077bf2","status":"final","code":{"coding":[{"system":"http://loinc.org","code":"26464-8"}]},"subject":{"reference":"Patient/e769c2e1-2d73-4368-8ff6-7e02d0345778"},"effectiveDateTime":"2022-06-06T00:00:00+00:00","valueQuantity":{"value":10.5}},"request":{"method":"POST","url":"Observation"}},{"fullUrl":"Patient/af32ecd2-8777-47f6-b9e6-cdd2d648e8bf","resource":{"resourceType":"Patient","id":"af32ecd2-8777-47f6-b9e6-cdd2d648e8bf","meta":{"profile":["http://hl7.org/fhir/us/core/StructureDefinition/us-core-patient"]},"identifier":[{"type":{"coding":[{"system":"http://terminology.hl7.org/CodeSystem/v2-0203","code":"MR"}]},"system":"urn:fhirgen:mrn","value":"037-44-1256"}],"name":[{"family":"Willis","given":["Donald"]}],"gender":"male","birthDate":"1998-02-09","address":[{"line":["3943 Kevin Pines Apt. 782"],"city":"South Latasha","state":"Vermont"}]},"request":{"method":"POST","url":"Patient"}},{"fullUrl":"Observation/0238e28b-886b-40ac-a088-420017fa8c32","resource":{"resourceType":"Observation","id":"0238e28b-886b-40ac-a088-420017fa8c32","status":"final","code":{"coding":[{"system":"http://loinc.org","code":"50695-6"}]},"subject":{"reference":"Patient/af32ecd2-8777-47f6-b9e6-cdd2d648e8bf"},"effectiveDateTime":"2022-05-09T00:00:00+00:00","valueRatio":{"numerator":{"value":1.0},"denominator":{"value":64.0}}},"request":{"method":"POST","url":"Observation"}},{"fullUrl":"Observation/c2729ffe-11b7-4d31-bce9-98d8f2b18bbf","resource":{"resourceType":"Observation","id":"c2729ffe-11b7-4d31-bce9-98d8f2b18bbf","status":"final","code":{"coding":[{"system":"http://loinc.org","code":"71793-4"}]},"subject":{"reference":"Patient/af32ecd2-8777-47f6-b9e6-cdd2d648e8bf"},"effectiveDateTime":"2022-10-18T00:00:00+00:00","valueRatio":{"numerator":{"value":1.0},"denominator":{"value":4.0}}},"request":{"method":"POST","url":"Observation"}},{"fullUrl":"Condition/763725e9-c2c6-403f-b7d4-906da6719c5c","resource":{"resourceType":"Condition","id":"763725e9-c2c6-403f-b7d4-906da6719c5c","code":{"coding":[{"system":"http://snomed.info/sct","code":"709977002"}]},"subject":{"reference":"Patient/af32ecd2-8777-47f6-b9e6-cdd2d648e8bf"},"onsetDateTime":"2022-08-20T00:00:00+00:00"},"request":{"method":"POST","url":"Condition"}},{"fullUrl":"Condition/49abc3f5-651e-4058-955c-f3045fd68ac7","resource":{"resourceType":"Condition","id":"49abc3f5-651e-4058-955c-f3045fd68ac7","code":{"coding":[{"system":"http://snomed.info/sct","code":"405737000"}]},"subject":{"reference":"Patient/af32ecd2-8777-47f6-b9e6-cdd2d648e8bf"},"onsetDateTime":"2022-10-01T00:00:00+00:00"},"request":{"method":"POST","url":"Condition"}},{"fullUrl":"Condition/7ca91634-e0b2-4e34-8d7f-0b2cc8724c89","resource":{"resourceType":"Condition","id":"7ca91634-e0b2-4e34-8d7f-0b2cc8724c89","code":{"coding":[{"system":"http://snomed.info/sct","code":"418290006"}]},"subject":{"reference":"Patient/af32ecd2-8777-47f6-b9e6-cdd2d648e8bf"},"onsetDateTime":"2022-02-09T00:00:00+00:00"},"request":{"method":"POST","url":"Condition"}},{"fullUrl":"Observation/d0257e1c-9fcd-4e7f-b8ac-9ffb409ddbc4","resource":{"resourceType":"Observation","id":"d0257e1c-9fcd-4e7f-b8ac-9ffb409ddbc4","status":"final","code":{"coding":[{"system":"http://loinc.org","code":"26464-8"}]},"subject":{"reference":"Patient/af32ecd2-8777-47f6-b9e6-cdd2d648e8bf"},"effectiveDateTime":"2022-03-19T00:00:00+00:00","valueQuantity":{"value":7.6}},"request":{"method":"POST","url":"Observation"}},{"fullUrl":"Observation/059572dd-2ce2-4e0c-a357-ff6eefd3234f","resource":{"resourceType":"Observation","id":"059572dd-2ce2-4e0c-a357-ff6eefd3234f","status":"final","code":{"coding":[{"system":"http://loinc.org","code":"804-5"}]},"subject":{"reference":"Patient/af32ecd2-8777-47f6-b9e6-cdd2d648e8bf"},"effectiveDateTime":"2022-02-06T00:00:00+00:00","valueQuantity":{"value":7.2}},"request":{"method":"POST","url":"Observation"}},{"fullUrl":"Observation/35cc0a88-9d71-468c-a325-76292ee0a0c9","resource":{"resourceType":"Observation","id":"35cc0a88-9d71-468c-a325-76292ee0a0c9","status":"final","code":{"coding":[{"system":"http://www.ama-assn.org/go/cpt","code":"85048"}]},"subject":{"reference":"Patient/af32ecd2-8777-47f6-b9e6-cdd2d648e8bf"},"effectiveDateTime":"2022-09-19T00:00:00+00:00","valueQuantity":{"value":10.6}},"request":{"method":"POST","url":"Observation"}},{"fullUrl":"Patient/792d2bd4-fabf-4ecd-b2a0-6b1d76ce651a","resource":{"resourceType":"Patient","id":"792d2bd4-fabf-4ecd-b2a0-6b1d76ce651a","meta":{"profile":["http://hl7.org/fhir/us/core/StructureDefinition/us-core-patient"]},"identifier":[{"type":{"coding":[{"system":"http://terminology.hl7.org/CodeSystem/v2-0203","code":"MR"}]},"system":"urn:fhirgen:mrn","value":"279-33-5322"}],"name":[{"family":"Evans","given":["Sharon"]}],"gender":"female","birthDate":"1957-10-27","address":[{"line":["840 Wanda Mission Suite 708"],"city":"Sanchezshire","state":"North Dakota"}]},"request":{"method":"POST","url":"Patient"}},{"fullUrl":"Observation/6c53df59-ae73-4d78-bec3-b046e7fecf68","resource":{"resourceType":"Observation","id":"6c53df59-ae73-4d78-bec3-b046e7fecf68","status":"final","code":{"coding":[{"system":"http://loinc.org","code":"31146-4"}]},"subject":{"reference":"Patient/792d2bd4-fabf-4ecd-b2a0-6b1d76ce651a"},"effectiveDateTime":"2022-10-10T00:00:00+00:00","valueRatio":{"numerator":{"value":1.0},"denominator":{"value":64.0}}},"request":{"method":"POST","url":"Observation"}},{"fullUrl":"Observation/e3d0af19-4e1c-4f35-ac6c-85625bfdaeea","resource":{"resourceType":"Observation","id":"e3d0af19-4e1c-4f35-ac6c-85625bfdaeea","status":"final","code":{"coding":[{"system":"http://loinc.org","code":"46203-6"}]},"subject":{"reference":"Patient/792d2bd4-fabf-4ecd-b2a0-6b1d76ce651a"},"effectiveDateTime":"2022-05-11T00:00:00+00:00","valueRatio":{"numerator":{"value":1.0},"denominator":{"value":4.0}}},"request":{"method":"POST","url":"Observation"}},{"fullUrl":"Condition/1b9bfa0f-fd2a-4114-a9c7-391024c9cbb4","resource":{"resourceType":"Condition","id":"1b9bfa0f-fd2a-4114-a9c7-391024c9cbb4","code":{"coding":[{"system":"http://snomed.info/sct","code":"709977002"}]},"subject":{"reference":"Patient/792d2bd4-fabf-4ecd-b2a0-6b1d76ce651a"},"onsetDateTime":"2022-02-16T00:00:00+00:00"},"request":{"method":"POST","url":"Condition"}},{"fullUrl":"Condition/8b5446fe-d629-48b8-a2a1-e9c1835bba07","resource":{"resourceType":"Condition","id":"8b5446fe-d629-48b8-a2a1-e9c1835bba07","code":{"coding":[{"system":"http://snomed.info/sct","code":"709977002"}]},"subject":{"reference":"Patient/792d2bd4-fabf-4ecd-b2a0-6b1d76ce651a"},"onsetDateTime":"2022-09-01T00:00:00+00:00"},"request":{"method":"POST","url":"Condition"}},{"fullUrl":"Condition/c57a9549-f32a-4330-92d5-fb857c409def","resource":{"resourceType":"Condition","id":"c57a9549-f32a-4330-92d5-fb857c409def","code":{"coding":[{"system":"http://snomed.info/sct","code":"91554004"}]},"subject":{"reference":"Patient/792d2bd4-fabf-4ecd-b2a0-6b1d76ce651a"},"onsetDateTime":"2022-01-17T00:00:00+00:00"},"request":{"method":"POST","url":"Condition"}},{"fullUrl":"Condition/4bdab907-2f27-4bcb-9139-7f1e17ae0274","resource":{"resourceType":"Condition","id":"4bdab907-2f27-4bcb-9139-7f1e17ae0274","code":{"coding":[{"system":"http://snomed.info/sct","code":"18165001"}]},"subject":{"reference":"Patient/792d2bd4-fabf-4ecd-b2a0-6b1d76ce651a"},"onsetDateTime":"2022-12-01T00:00:00+00:00"},"request":{"method":"POST","url":"Condition"}},{"fullUrl":"Condition/1474f3b1-d98c-419e-8c38-c67cca91b331","resource":{"resourceType":"Condition","id":"1474f3b1-d98c-419e-8c38-c67cca91b331","code":{"coding":[{"system":"http://snomed.info/sct","code":"56317004"}]},"subject":{"reference":"Patient/792d2bd4-fabf-4ecd-b2a0-6b1d76ce651a"},"onsetDateTime":"2022-01-22T00:00:00+00:00"},"request":{"method":"POST","url":"Condition"}},{"fullUrl":"Condition/87679aad-37ae-4ddf-ab3f-82d443b49728","resource":{"resourceType":"Condition","id":"87679aad-37ae-4ddf-ab3f-82d443b49728","code":{"coding":[{"system":"http://snomed.info/sct","code":"248980004"}]},"subject":{"reference":"Patient/792d2bd4-fabf-4ecd-b2a0-6b1d76ce651a"},"onsetDateTime":"2022-10-11T00:00:00+00:00"},"request":{"method":"POST","url":"Condition"}},{"fullUrl":"Observation/98120c79-5222-41ec-9397-059d233fb918","resource":{"resourceType":"Observation","id":"98120c79-5222-41ec-9397-059d233fb918","status":"final","code":{"coding":[{"system":"http://loinc.org","code":"804-5"}]},"subject":{"reference":"Patient/792d2bd4-fabf-4ecd-b2a0-6b1d76ce651a"},"effectiveDateTime":"2022-12-08T00:00:00+00:00","valueQuantity":{"value":10.1}},"request":{"method":"POST","url":"Observation"}},{"fullUrl":"Observation/7b2bd386-d573-4107-a324-2dff904ad9f0","resource":{"resourceType":"Observation","id":"7b2bd386-d573-4107-a324-2dff904ad9f0","status":"final","code":{"coding":[{"system":"http://www.ama-assn.org/go/cpt","code":"85048"}]},"subject":{"reference":"Patient/792d2bd4-fabf-4ecd-b2a0-6b1d76ce651a"},"effectiveDateTime":"2022-06-11T00:00:00+00:00","valueQuantity":{"value":10.1}},"request":{"method":"POST","url":"Observation"}},{"fullUrl":"Patient/538fcd9a-ca94-44b8-83a1-47ed95b68b1f","resource":{"resourceType":"Patient","id":"538fcd9a-ca94-44b8-83a1-47ed95b68b1f","meta":{"profile":["http://hl7.org/fhir/us/core/StructureDefinition/us-core-patient"]},"identifier":[{"type":{"coding":[{"system":"http://terminology.hl7.org/CodeSystem/v2-0203","code":"MR"}]},"system":"urn:fhirgen:mrn","value":"490-37-2006"}],"name":[{"family":"Walker","given":["Jessica"]}],"gender":"female","birthDate":"1983-10-05","address":[{"line":["43521 Dawn Ferry"],"city":"Sarastad","state":"Pennsylvania"}]},"request":{"method":"POST","url":"Patient"}},{"fullUrl":"Observation/f2de08ed-5f43-41e1-a09a-0e1e82575c92","resource":{"resourceType":"Observation","id":"f2de08ed-5f43-41e1-a09a-0e1e82575c92","status":"final","code":{"coding":[{"system":"http://loinc.org","code":"26009-1"}]},"subject":{"reference":"Patient/538fcd9a-ca94-44b8-83a1-47ed95b68b1f"},"effectiveDateTime":"2022-06-05T00:00:00+00:00","valueRatio":{"numerator":{"value":1.0},"denominator":{"value":4.0}}},"request":{"method":"POST","url":"Observation"}},{"fullUrl":"Observation/03cea9e5-0b5f-45df-943b-2d694670c2a3","resource":{"resourceType":"Observation","id":"03cea9e5-0b5f-45df-943b-2d694670c2a3","status":"final","code":{"coding":[{"system":"http://loinc.org","code":"26009-1"}]},"subject":{"reference":"Patient/538fcd9a-ca94-44b8-83a1-47ed95b68b1f"},"effectiveDateTime":"2022-09-18T00:00:00+00:00","valueRatio":{"numerator":{"value":1.0},"denominator":{"value":4.0}}},"request":{"method":"POST","url":"Observation"}},{"fullUrl":"Observation/54e8090e-9b6d-4d97-a771-94acebf488de","resource":{"resourceType":"Observation","id":"54e8090e-9b6d-4d97-a771-94acebf488de","status":"final","code":{"coding":[{"system":"http://loinc.org","code":"31146-4"}]},"subject":{"reference":"Patient/538fcd9a-ca94-44b8-83a1-47ed95b68b1f"},"effectiveDateTime":"2022-08-30T00:00:00+00:00","valueRatio":{"numerator":{"value":1.0},"denominator":{"value":64.0}}},"request":{"method":"POST","url":"Observation"}},{"fullUrl":"Condition/dc5b3509-6e46-43f2-9736-169776eae216","resource":{"resourceType":"Condition","id":"dc5b3509-6e46-43f2-9736-169776eae216","code":{"coding":[{"system":"http://snomed.info/sct","code":"248980004"}]},"subject":{"reference":"Patient/538fcd9a-ca94-44b8-83a1-47ed95b68b1f"},"onsetDateTime":"2022-04-08T00:00:00+00:00"},"request":{"method":"POST","url":"Condition"}},{"fullUrl":"Condition/db4a933a-1cbb-4bff-961d-5975b95fa059","resource":{"resourceType":"Condition","id":"db4a933a-1cbb-4bff-961d-5975b95fa059","code":{"coding":[{"system":"http://snomed.info/sct","code":"405737000"}]},"subject":{"reference":"Patient/538fcd9a-ca94-44b8-83a1-47ed95b68b1f"},"onsetDateTime":"2022-01-20T00:00:00+00:00"},"request":{"method":"POST","url":"Condition"}},{"fullUrl":"Condition/67b28881-6cc5-467d-862a-5f39674242de","resource":{"resourceType":"Condition","id":"67b28881-6cc5-467d-862a-5f39674242de","code":{"coding":[{"system":"http://snomed.info/sct","code":"79342006"}]},"subject":{"reference":"Patient/538fcd9a-ca94-44b8-83a1-47ed95b68b1f"},"onsetDateTime":"2022-03-14T00:00:00+00:00"},"request":{"method":"POST","url":"Condition"}},{"fullUrl":"Condition/d0acf7ba-9514-48b6-a262-ab3b01cb4e4f","resource":{"resourceType":"Condition","id":"d0acf7ba-9514-48b6-a262-ab3b01cb4e4f","code":{"coding":[{"system":"http://snomed.info/sct","code":"79342006"}]},"subject":{"reference":"Patient/538fcd9a-ca94-44b8-83a1-47ed95b68b1f"},"onsetDateTime":"2022-03-04T00:00:00+00:00"},"request":{"method":"POST","url":"Condition"}},{"fullUrl":"Condition/ecadff0d-c0c2-41cc-9a5d-1822bf1d821a","resource":{"resourceType":"Condition","id":"ecadff0d-c0c2-41cc-9a5d-1822bf1d821a","code":{"coding":[{"system":"http://snomed.info/sct","code":"297123002"}]},"subject":{"reference":"Patient/538fcd9a-ca94-44b8-83a1-47ed95b68b1f"},"onsetDateTime":"2022-12-18T00:00:00+00:00"},"request":{"method":"POST","url":"Condition"}},{"fullUrl":"Observation/84914c62-1b45-4267-a06f-b5b7c5374176","resource":{"resourceType":"Observation","id":"84914c62-1b45-4267-a06f-b5b7c5374176","status":"final","code":{"coding":[{"system":"http://loinc.org","code":"49498-9"}]},"subject":{"reference":"Patient/538fcd9a-ca94-44b8-83a1-47ed95b68b1f"},"effectiveDateTime":"2022-05-19T00:00:00+00:00","valueQuantity":{"value":9.8}},"request":{"method":"POST","url":"Observation"}},{"fullUrl":"Observation/51802aa7-4596-4fc3-9967-96790a1d6c42","resource":{"resourceType":"Observation","id":"51802aa7-4596-4fc3-9967-96790a1d6c42","status":"final","code":{"coding":[{"system":"http://loinc.org","code":"49498-9"}]},"subject":{"reference":"Patient/538fcd9a-ca94-44b8-83a1-47ed95b68b1f"},"effectiveDateTime":"2022-06-20T00:00:00+00:00","valueQuantity":{"value":8.0}},"request":{"method":"POST","url":"Observation"}},{"fullUrl":"Patient/c77bd58d-57fc-4b83-9b4c-cdcf2f0b6fb3","resource":{"resourceType":"Patient","id":"c77bd58d-57fc-4b83-9b4c-cdcf2f0b6fb3","meta":{"profile":["http://hl7.org/fhir/us/core/StructureDefinition/us-core-patient"]},"identifier":[{"type":{"coding":[{"system":"http://terminology.hl7.org/CodeSystem/v2-0203","code":"MR"}]},"system":"urn:fhirgen:mrn","value":"101-06-8560"}],"name":[{"family":"Knight","given":["Stacie"]}],"gender":"other","birthDate":"1951-03-27","address":[{"line":["86515 Watkins Cliffs"],"city":"Christopherbury","state":"Michigan"}]},"request":{"method":"POST","url":"Patient"}},{"fullUrl":"Observation/b3739094-afe6-4c8e-b82b-a845a6af192b","resource":{"resourceType":"Observation","id":"b3739094-afe6-4c8e-b82b-a845a6af192b","status":"final","code":{"coding":[{"system":"http://loinc.org","code":"47476-7"}]},"subject":{"reference":"Patient/c77bd58d-57fc-4b83-9b4c-cdcf2f0b6fb3"},"effectiveDateTime":"2022-08-29T00:00:00+00:00","valueRatio":{"numerator":{"value":1.0},"denominator":{"value":64.0}}},"request":{"method":"POST","url":"Observation"}},{"fullUrl":"Observation/6a6f7c59-6b65-4211-9291-09976b0d92d8","resource":{"resourceType":"Observation","id":"6a6f7c59-6b65-4211-9291-09976b0d92d8","status":"final","code":{"coding":[{"system":"http://loinc.org","code":"71793-4"}]},"subject":{"reference":"Patient/c77bd58d-57fc-4b83-9b4c-cdcf2f0b6fb3"},"effectiveDateTime":"2022-02-02T00:00:00+00:00","valueRatio":{"numerator":{"value":1.0},"denominator":{"value":4.0}}},"request":{"method":"POST","url":"Observation"}},{"fullUrl":"Condition/b49844a2-2432-41c3-9737-d989f498ed36","resource":{"resourceType":"Condition","id":"b49844a2-2432-41c3-9737-d989f498ed36","code":{"coding":[{"system":"http://snomed.info/sct","code":"709977002"}]},"subject":{"reference":"Patient/c77bd58d-57fc-4b83-9b4c-cdcf2f0b6fb3"},"onsetDateTime":"2022-07-05T00:00:00+00:00"},"request":{"method":"POST","url":"Condition"}},{"fullUrl":"Condition/1b2c188f-0c09-4200-86d9-c8ece32cf50a","resource":{"resourceType":"Condition","id":"1b2c188f-0c09-4200-86d9-c8ece32cf50a","code":{"coding":[{"system":"http://snomed.info/sct","code":"405737000"}]},"subject":{"reference":"Patient/c77bd58d-57fc-4b83-9b4c-cdcf2f0b6fb3"},"onsetDateTime":"2022-05-01T00:00:00+00:00"},"request":{"method":"POST","url":"Condition"}},{"fullUrl":"Condition/cdba84fd-5f17-49bd-9778-30c0219c7a00","resource":{"resourceType":"Condition","id":"cdba84fd-5f17-49bd-9778-30c0219c7a00","code":{"coding":[{"system":"http://snomed.info/sct","code":"71315007"}]},"subject":{"reference":"Patient/c77bd58d-57fc-4b83-9b4c-cdcf2f0b6fb3"},"onsetDateTime":"2022-10-13T00:00:00+00:00"},"request":{"method":"POST","url":"Condition"}},{"fullUrl":"Condition/7f043fcb-5da8-4c77-a2a4-9486c1b2b454","resource":{"resourceType":"Condition","id":"7f043fcb-5da8-4c77-a2a4-9486c1b2b454","code":{"coding":[{"system":"http://snomed.info/sct","code":"271939006"}]},"subject":{"reference":"Patient/c77bd58d-57fc-4b83-9b4c-cdcf2f0b6fb3"},"onsetDateTime":"2022-08-20T00:00:00+00:00"},"request":{"method":"POST","url":"Condition"}},{"fullUrl":"Condition/8a87c47e-6d14-4cb8-a508-0b9b91f0844d","resource":{"resourceType":"Condition","id":"8a87c47e-6d14-4cb8-a508-0b9b91f0844d","code":{"coding":[{"system":"http://snomed.info/sct","code":"405737000"}]},"subject":{"reference":"Patient/c77bd58d-57fc-4b83-9b4c-cdcf2f0b6fb3"},"onsetDateTime":"2022-11-07T00:00:00+00:00"},"request":{"method":"POST","url":"Condition"}},{"fullUrl":"Observation/766d5eb3-7cbb-47ee-b293-636ae28f183e","resource":{"resourceType":"Observation","id":"766d5eb3-7cbb-47ee-b293-636ae28f183e","status":"final","code":{"coding":[{"system":"http://loinc.org","code":"6690-2"}]},"subject":{"reference":"Patient/c77bd58d-57fc-4b83-9b4c-cdcf2f0b6fb3"},"effectiveDateTime":"2022-01-19T00:00:00+00:00","valueQuantity":{"value":8.8}},"request":{"method":"POST","url":"Observation"}},{"fullUrl":"Observation/68aa13c1-9dfc-4af6-b19d-6d04faad9086","resource":{"resourceType":"Observation","id":"68aa13c1-9dfc-4af6-b19d-6d04faad9086","status":"final","code":{"coding":[{"system":"http://loinc.org","code":"49498-9"}]},"subject":{"reference":"Patient/c77bd58d-57fc-4b83-9b4c-cdcf2f0b6fb3"},"effectiveDateTime":"2022-07-08T00:00:00+00:00","valueQuantity":{"value":6.8}},"request":{"method":"POST","url":"Observation"}},{"fullUrl":"Observation/db638de4-50ef-4723-b6e1-c5dc520196be","resource":{"resourceType":"Observation","id":"db638de4-50ef-4723-b6e1-c5dc520196be","status":"final","code":{"coding":[{"system":"http://loinc.org","code":"6690-2"}]},"subject":{"reference":"Patient/c77bd58d-57fc-4b83-9b4c-cdcf2f0b6fb3"},"effectiveDateTime":"2022-09-13T00:00:00+00:00","valueQuantity":{"value":9.6}},"request":{"method":"POST","url":"Observation"}}]}