{"resourceType":"Bundle","id":"a486b552-149c-4293-9695-979a4b289351","type":"transaction","entry":[{"fullUrl":"Patient/51ec7504-9bbf-4ee1-ada1-8b5d7be44ecd","resource":{"resourceType":"Patient","id":"51ec7504-9bbf-4ee1-ada1-8b5d7be44ecd","identifier":[{"type":{"coding":[{"system":"http://terminology.hl7.org/CodeSystem/v2-0203","code":"MR"}]},"system":"urn:fhirgen:mrn","value":"051-34-3778"}],"name":[{"use":"official","family":"Silva","given":["Craig"]},{"use":"maiden","family":"Mitchell"}],"telecom":[{"system":"phone","value":"746-755-8447x97919","use":"work"},{"system":"email","value":"vtanner@gmail.com","use":"home"}],"gender":"male","birthDate":"1978-12-23","address":[{"use":"home","line":["0557 Philip Key Apt. 197"],"city":"Lake Josephmouth","state":"PA","postalCode":"07421"},{"use":"old","line":["23581 Jones Ford"],"city":"Joelton","state":"FL","postalCode":"67911"}]},"request":{"method":"POST","url":"Patient"}},{"fullUrl":"Observation/fcfc64d1-ce77-4a5b-9a7c-ce627fdda30a","resource":{"resourceType":"Observation","id":"fcfc64d1-ce77-4a5b-9a7c-ce627fdda30a","status":"final","code":{"coding":[{"system":"http://loinc.org","code":"46203-6"}]},"subject":{"reference":"Patient/51ec7504-9bbf-4ee1-ada1-8b5d7be44ecd"},"effectiveDateTime":"2022-02-13T00:00:00+00:00","valueRatio":{"numerator":{"value":1},"denominator":{"value":4}}},"request":{"method":"POST","url":"Observation"}},{"fullUrl":"Observation/9a249215-9005-4541-b7a1-9456b1ba108f","resource":{"resourceType":"Observation","id":"9a249215-9005-4541-b7a1-9456b1ba108f","status":"final","code":{"coding":[{"system":"http://loinc.org","code":"34382-2"}]},"subject":{"reference":"Patient/51ec7504-9bbf-4ee1-ada1-8b5d7be44ecd"},"effectiveDateTime":"2022-11-24T00:00:00+00:00","valueRatio":{"numerator":{"value":1},"denominator":{"value":4}}},"request":{"method":"POST","url":"Observation"}},{"fullUrl":"Observation/1da57626-60cf-4818-966d-d82720cdb643","resource":{"resourceType":"Observation","id":"1da57626-60cf-4818-966d-d82720cdb643","status":"final","code":{"coding":[{"system":"http://loinc.org","code":"11084-1"}]},"subject":{"reference":"Patient/51ec7504-9bbf-4ee1-ada1-8b5d7be44ecd"},"effectiveDateTime":"2022-02-16T00:00:00+00:00","valueRatio":{"numerator":{"value":1},"denominator":{"value":64}}},"request":{"method":"POST","url":"Observation"}},{"fullUrl":"Condition/ac5eb245-b066-47f1-b34b-c800e8658065","resource":{"resourceType":"Condition","id":"ac5eb245-b066-47f1-b34b-c800e8658065","code":{"coding":[{"system":"http://snomed.info/sct","code":"198199009"}]},"subject":{"reference":"Patient/51ec7504-9bbf-4ee1-ada1-8b5d7be44ecd"},"onsetDateTime":"2022-09-02T00:00:00+00:00"},"request":{"method":"POST","url":"Condition"}},{"fullUrl":"Condition/deb0500c-cd34-479c-85a4-9e5caeefe560","resource":{"resourceType":"Condition","id":"deb0500c-cd34-479c-85a4-9e5caeefe560","code":{"coding":[{"system":"http://snomed.info/sct","code":"386661006"}]},"subject":{"reference":"Patient/51ec7504-9bbf-4ee1-ada1-8b5d7be44ecd"},"onsetDateTime":"2022-04-29T00:00:00+00:00"},"request":{"method":"POST","url":"Condition"}},{"fullUrl":"Condition/5951f721-0d9b-4eb7-b416-15f9043daefb","resource":{"resourceType":"Condition","id":"5951f721-0d9b-4eb7-b416-15f9043daefb","code":{"coding":[{"system":"http://snomed.info/sct","code":"44882003"}]},"subject":{"reference":"Patient/51ec7504-9bbf-4ee1-ada1-8b5d7be44ecd"},"onsetDateTime":"2022-08-02T00:00:00+00:00"},"request":{"method":"POST","url":"Condition"}},{"fullUrl":"Observation/34196cff-e2b3-4643-9327-4e6983b4c312","resource":{"resourceType":"Observation","id":"34196cff-e2b3-4643-9327-4e6983b4c312","status":"final","code":{"coding":[{"system":"http://loinc.org","code":"26464-8"}]},"subject":{"reference":"Patient/51ec7504-9bbf-4ee1-ada1-8b5d7be44ecd"},"effectiveDateTime":"2022-09-04T00:00:00+00:00","valueQuantity":{"value":9}},"request":{"method":"POST","url":"Observation"}},{"fullUrl":"Observation/7156e050-fb4e-4bf9-8c71-47164820e486","resource":{"resourceType":"Observation","id":"7156e050-fb4e-4bf9-8c71-47164820e486","status":"final","code":{"coding":[{"system":"http://loinc.org","code":"49498-9"}]},"subject":{"reference":"Patient/51ec7504-9bbf-4ee1-ada1-8b5d7be44ecd"},"effectiveDateTime":"2022-12-27T00:00:00+00:00","valueQuantity":{"value":4.3}},"request":{"method":"POST","url":"Observation"}},{"fullUrl":"Observation/2240ce75-6a84-48c8-9ac6-bf5abe0fdaaf","resource":{"resourceType":"Observation","id":"2240ce75-6a84-48c8-9ac6-bf5abe0fdaaf","status":"final","code":{"coding":[{"system":"http://loinc.org","code":"26464-8"}]},"subject":{"reference":"Patient/51ec7504-9bbf-4ee1-ada1-8b5d7be44ecd"},"effectiveDateTime":"2022-04-26T00:00:00+00:00","valueQuantity":{"value":5.5}},"request":{"method":"POST","url":"Observation"}},{"fullUrl":"Observation/5520ff0f-7242-4b33-bd69-5c156aabaf29","resource":{"resourceType":"Observation","id":"5520ff0f-7242-4b33-bd69-5c156aabaf29","status":"final","code":{"coding":[{"system":"http://loinc.org","code":"49498-9"}]},"subject":{"reference":"Patient/51ec7504-9bbf-4ee1-ada1-8b5d7be44ecd"},"effectiveDateTime":"2022-05-15T00:00:00+00:00"},"request":{"method":"POST","url":"Observation"}},{"fullUrl":"Observation/eb219ad4-c4c7-47ad-9412-0d7cf1ff30ef","resource":{"resourceType":"Observation","id":"eb219ad4-c4c7-47ad-9412-0d7cf1ff30ef","status":"final","code":{"coding":[{"system":"http://loinc.org","code":"49498-9"}]},"subject":{"reference":"Patient/51ec7504-9bbf-4ee1-ada1-8b5d7be44ecd"},"effectiveDateTime":"2022-01-20T00:00:00+00:00"},"request":{"method":"POST","url":"Observation"}},{"fullUrl":"Observation/f9315bc5-ae6b-4ae7-b686-fa93455e3527","resource":{"resourceType":"Observation","id":"f9315bc5-ae6b-4ae7-b686-fa93455e3527","status":"final","code":{"coding":[{"system":"http://loinc.org","code":"49498-9"}]},"subject":{"reference":"Patient/51ec7504-9bbf-4ee1-ada1-8b5d7be44ecd"},"effectiveDateTime":"2022-12-11T00:00:00+00:00"},"request":{"method":"POST","url":"Observation"}},{"fullUrl":"Procedure/d1a2def8-ae85-400f-8e8d-828e563fd1b8","resource":{"resourceType":"Procedure","id":"d1a2def8-ae85-400f-8e8d-828e563fd1b8","status":"completed","code":{"coding":[{"system":"http://snomed.info/sct","code":"104001"}]},"subject":{"reference":"Patient/51ec7504-9bbf-4ee1-ada1-8b5d7be44ecd"},"performedDateTime":"2022-12-02T00:00:00+00:00"},"request":{"method":"POST","url":"Procedure"}},{"fullUrl":"Procedure/bd3d1766-75fd-45ee-8261-d25d7e4b63bd","resource":{"resourceType":"Procedure","id":"bd3d1766-75fd-45ee-8261-d25d7e4b63bd","status":"completed","code":{"coding":[{"system":"http://snomed.info/sct","code":"647000"}]},"subject":{"reference":"Patient/51ec7504-9bbf-4ee1-ada1-8b5d7be44ecd"},"performedDateTime":"2022-01-17T00:00:00+00:00"},"request":{"method":"POST","url":"Procedure"}},{"fullUrl":"Procedure/c7c112bc-0425-4443-b26f-8f1240e1420d","resource":{"resourceType":"Procedure","id":"c7c112bc-0425-4443-b26f-8f1240e1420d","status":"completed","code":{"coding":[{"system":"http://snomed.info/sct","code":"146005"}]},"subject":{"reference":"Patient/51ec7504-9bbf-4ee1-ada1-8b5d7be44ecd"},"performedDateTime":"2022-08-05T00:00:00+00:00"},"request":{"method":"POST","url":"Procedure"}},{"fullUrl":"MedicationStatement/39090f5c-46fb-4855-9432-0e98b0c2aae2","resource":{"resourceType":"MedicationStatement","id":"39090f5c-46fb-4855-9432-0e98b0c2aae2","status":"completed","medicationCodeableConcept":{"coding":[{"system":"http://www.nlm.nih.gov/research/umls/rxnorm","code":"7980"}]},"subject":{"reference":"Patient/51ec7504-9bbf-4ee1-ada1-8b5d7be44ecd"},"effectiveDateTime":"2022-10-14T00:00:00+00:00","dosage":[{"doseAndRate":[{"doseQuantity":{"value":1,"unit":"TAB","system":"http://terminology.hl7.org/CodeSystem/v3-orderableDrugForm","code":"TAB"}}]}]},"request":{"method":"POST","url":"MedicationStatement"}},{"fullUrl":"MedicationStatement/0c21f1f2-49ed-40a5-a77b-aa9a9baebb1e","resource":{"resourceType":"MedicationStatement","id":"0c21f1f2-49ed-40a5-a77b-aa9a9baebb1e","status":"completed","medicationCodeableConcept":{"coding":[{"system":"http://www.nlm.nih.gov/research/umls/rxnorm","code":"2193"}]},"subject":{"reference":"Patient/51ec7504-9bbf-4ee1-ada1-8b5d7be44ecd"},"effectiveDateTime":"2022-03-08T00:00:00+00:00","dosage":[{"doseAndRate":[{"doseQuantity":{"value":4.4,"unit":"TAB","system":"http://terminology.hl7.org/CodeSystem/v3-orderableDrugForm","code":"TAB"}}]}]},"request":{"method":"POST","url":"MedicationStatement"}},{"fullUrl":"MedicationStatement/26e67fb2-fba3-456b-b35e-945341e7b2c9","resource":{"resourceType":"MedicationStatement","id":"26e67fb2-fba3-456b-b35e-945341e7b2c9","status":"completed","medicationCodeableConcept":{"coding":[{"system":"http://www.nlm.nih.gov/research/umls/rxnorm","code":"7980"}]},"subject":{"reference":"Patient/51ec7504-9bbf-4ee1-ada1-8b5d7be44ecd"},"effectiveDateTime":"2022-09-24T00:00:00+00:00","dosage":[{"doseAndRate":[{"doseQuantity":{"value":6.2,"unit":"TAB","system":"http://terminology.hl7.org/CodeSystem/v3-orderableDrugForm","code":"TAB"}}]}]},"request":{"method":"POST","url":"MedicationStatement"}},{"fullUrl":"MedicationStatement/d87f4407-d851-44ac-b17b-085bc0dff93d","resource":{"resourceType":"MedicationStatement","id":"d87f4407-d851-44ac-b17b-085bc0dff93d","status":"completed","medicationCodeableConcept":{"coding":[{"system":"http://www.nlm.nih.gov/research/umls/rxnorm","code":"18631"}]},"subject":{"reference":"Patient/51ec7504-9bbf-4ee1-ada1-8b5d7be44ecd"},"effectiveDateTime":"2022-01-13T00:00:00+00:00","dosage":[{"doseAndRate":[{"doseQuantity":{"value":3.8,"unit":"TAB","system":"http://terminology.hl7.org/CodeSystem/v3-orderableDrugForm","code":"TAB"}}]}]},"request":{"method":"POST","url":"MedicationStatement"}},{"fullUrl":"MedicationStatement/99f3b7b2-a7fc-49ee-9645-d0f885adddd8","resource":{"resourceType":"MedicationStatement","id":"99f3b7b2-a7fc-49ee-9645-d0f885adddd8","status":"completed","medicationCodeableConcept":{"coding":[{"system":"http://www.nlm.nih.gov/research/umls/rxnorm","code":"10395"}]},"subject":{"reference":"Patient/51ec7504-9bbf-4ee1-ada1-8b5d7be44ecd"},"effectiveDateTime":"2022-08-06T00:00:00+00:00","dosage":[{"doseAndRate":[{"doseQuantity":{"value":5.6,"unit":"TAB","system":"http://terminology.hl7.org/CodeSystem/v3-orderableDrugForm","code":"TAB"}}]}]},"request":{"method":"POST","url":"MedicationStatement"}},{"fullUrl":"MedicationStatement/4aa261f2-7bb2-45f4-8fa3-40a639e36123","resource":{"resourceType":"MedicationStatement","id":"4aa261f2-7bb2-45f4-8fa3-40a639e36123","status":"completed","medicationCodeableConcept":{"coding":[{"system":"http://www.nlm.nih.gov/research/umls/rxnorm","code":"18631"}]},"subject":{"reference":"Patient/51ec7504-9bbf-4ee1-ada1-8b5d7be44ecd"},"effectiveDateTime":"2022-03-22T00:00:00+00:00","dosage":[{"doseAndRate":[{"doseQuantity":{"value":3,"unit":"TAB","system":"http://terminology.hl7.org/CodeSystem/v3-orderableDrugForm","code":"TAB"}}]}]},"request":{"method":"POST","url":"MedicationStatement"}},{"fullUrl":"Encounter/85bbbc9e-17c3-4f4c-bd4c-111303b2770e","resource":{"resourceType":"Encounter","id":"85bbbc9e-17c3-4f4c-bd4c-111303b2770e","status":"finished","class":{"system":"http://terminology.hl7.org/CodeSystem/v3-ActCode","code":"IMP","display":"inpatient encounter"},"type":[{"coding":[{"system":"http://terminology.hl7.org/CodeSystem/encounter-type","code":"ADMS"}]}],"subject":{"reference":"Patient/51ec7504-9bbf-4ee1-ada1-8b5d7be44ecd"},"period":{"start":"2022-08-02T00:00:00+00:00","end":"2022-08-05T00:00:00+00:00"}},"request":{"method":"POST","url":"Encounter"}},{"fullUrl":"Encounter/1a86c08d-4d96-4ffc-adbd-e7a477515e0f","resource":{"resourceType":"Encounter","id":"1a86c08d-4d96-4ffc-adbd-e7a477515e0f","status":"finished","class":{"system":"http://terminology.hl7.org/CodeSystem/v3-ActCode","code":"IMP","display":"inpatient encounter"},"type":[{"coding":[{"system":"http://terminology.hl7.org/CodeSystem/encounter-type","code":"CCS60"}]}],"subject":{"reference":"Patient/51ec7504-9bbf-4ee1-ada1-8b5d7be44ecd"},"period":{"start":"2022-07-28T00:00:00+00:00","end":"2022-07-29T00:00:00+00:00"}},"request":{"method":"POST","url":"Encounter"}},{"fullUrl":"Encounter/ebd91311-3585-4669-9988-5dff7f69c76d","resource":{"resourceType":"Encounter","id":"ebd91311-3585-4669-9988-5dff7f69c76d","status":"finished","class":{"system":"http://terminology.hl7.org/CodeSystem/v3-ActCode","code":"IMP","display":"inpatient encounter"},"type":[{"coding":[{"system":"http://terminology.hl7.org/CodeSystem/encounter-type","code":"BD/BM-clin"}]}],"subject":{"reference":"Patient/51ec7504-9bbf-4ee1-ada1-8b5d7be44ecd"},"period":{"start":"2022-12-17T00:00:00+00:00","end":"2022-12-17T00:00:00+00:00"}},"request":{"method":"POST","url":"Encounter"}},{"fullUrl":"Encounter/dae755fb-cdd5-4a58-a90f-0dd7438a431e","resource":{"resourceType":"Encounter","id":"dae755fb-cdd5-4a58-a90f-0dd7438a431e","status":"finished","class":{"system":"http://terminology.hl7.org/CodeSystem/v3-ActCode","code":"IMP","display":"inpatient encounter"},"type":[{"coding":[{"system":"http://terminology.hl7.org/CodeSystem/encounter-type","code":"ADMS"}]}],"subject":{"reference":"Patient/51ec7504-9bbf-4ee1-ada1-8b5d7be44ecd"},"period":{"start":"2022-03-09T00:00:00+00:00","end":"2022-03-13T00:00:00+00:00"}},"request":{"method":"POST","url":"Encounter"}},{"fullUrl":"Encounter/8fd342d9-8aa5-4edd-ae27-5007fd6cbbc1","resource":{"resourceType":"Encounter","id":"8fd342d9-8aa5-4edd-ae27-5007fd6cbbc1","status":"finished","class":{"system":"http://terminology.hl7.org/CodeSystem/v3-ActCode","code":"OBSENC","display":"observation encounter"},"type":[{"coding":[{"system":"http://terminology.hl7.org/CodeSystem/encounter-type","code":"CCS60"}]}],"subject":{"reference":"Patient/51ec7504-9bbf-4ee1-ada1-8b5d7be44ecd"},"period":{"start":"2022-05-04T00:00:00+00:00","end":"2022-05-06T00:00:00+00:00"}},"request":{"method":"POST","url":"Encounter"}},{"fullUrl":"Encounter/aa79a03d-98a2-4bc2-b42d-2408028bbfff","resource":{"resourceType":"Encounter","id":"aa79a03d-98a2-4bc2-b42d-2408028bbfff","status":"finished","class":{"system":"http://terminology.hl7.org/CodeSystem/v3-ActCode","code":"HH","display":"home health"},"type":[{"coding":[{"system":"http://terminology.hl7.org/CodeSystem/encounter-type","code":"ADMS"}]}],"subject":{"reference":"Patient/51ec7504-9bbf-4ee1-ada1-8b5d7be44ecd"},"period":{"start":"2022-10-14T00:00:00+00:00","end":"2022-10-14T00:00:00+00:00"}},"request":{"method":"POST","url":"Encounter"}},{"fullUrl":"Patient/863e1dca-a0dd-4595-a9f5-c2b108f55dfc","resource":{"resourceType":"Patient","id":"863e1dca-a0dd-4595-a9f5-c2b108f55dfc","identifier":[{"type":{"coding":[{"system":"http://terminology.hl7.org/CodeSystem/v2-0203","code":"MR"}]},"system":"urn:fhirgen:mrn","value":"675-46-5907"}],"name":[{"use":"official","family":"Pacheco","given":["Christopher"]},{"use":"maiden","family":"Mack"}],"telecom":[{"system":"phone","value":"(624)960-2952","use":"home"},{"system":"email","value":"dchristian@gmail.com","use":"work"}],"gender":"male","birthDate":"1995-10-03","address":[{"use":"home","line":["7847 Smith Walks"],"city":"Port Josestad","state":"AR","postalCode":"86113"},{"use":"old","line":["14922 Donna Burg Suite 638"],"city":"New Joseph","state":"VT","postalCode":"03141"}]},"request":{"method":"POST","url":"Patient"}},{"fullUrl":"Observation/9048c7f0-a00c-493f-b36d-526744ce1859","resource":{"resourceType":"Observation","id":"9048c7f0-a00c-493f-b36d-526744ce1859","status":"final","code":{"coding":[{"system":"http://loinc.org","code":"51475-2"}]},"subject":{"reference":"Patient/863e1dca-a0dd-4595-a9f5-c2b108f55dfc"},"effectiveDateTime":"2022-08-31T00:00:00+00:00","valueRatio":{"numerator":{"value":1},"denominator":{"value":4}}},"request":{"method":"POST","url":"Observation"}},{"fullUrl":"Observation/8c57c347-9199-40c7-bee3-3b2eb3bd5bd4","resource":{"resourceType":"Observation","id":"8c57c347-9199-40c7-bee3-3b2eb3bd5bd4","status":"final","code":{"coding":[{"system":"http://loinc.org","code":"50690-7"}]},"subject":{"reference":"Patient/863e1dca-a0dd-4595-a9f5-c2b108f55dfc"},"effectiveDateTime":"2022-01-25T00:00:00+00:00","valueRatio":{"numerator":{"value":1},"denominator":{"value":4}}},"request":{"method":"POST","url":"Observation"}},{"fullUrl":"Observation/cbb4caaf-93a2-4beb-b5bb-eb5ec805c430","resource":{"resourceType":"Observation","id":"cbb4caaf-93a2-4beb-b5bb-eb5ec805c430","status":"final","code":{"coding":[{"system":"http://loinc.org","code":"50695-6"}]},"subject":{"reference":"Patient/863e1dca-a0dd-4595-a9f5-c2b108f55dfc"},"effectiveDateTime":"2022-10-13T00:00:00+00:00","valueRatio":{"numerator":{"value":1},"denominator":{"value":64}}},"request":{"method":"POST","url":"Observation"}},{"fullUrl":"Condition/3c15e8ce-6c5c-4b6f-85c1-6dbb73b5cb6e","resource":{"resourceType":"Condition","id":"3c15e8ce-6c5c-4b6f-85c1-6dbb73b5cb6e","code":{"coding":[{"system":"http://snomed.info/sct","code":"271807003"}]},"subject":{"reference":"Patient/863e1dca-a0dd-4595-a9f5-c2b108f55dfc"},"onsetDateTime":"2022-09-06T00:00:00+00:00"},"request":{"method":"POST","url":"Condition"}},{"fullUrl":"Condition/4c12f774-55b3-40f5-9a4b-35f63c76ac8a","resource":{"resourceType":"Condition","id":"4c12f774-55b3-40f5-9a4b-35f63c76ac8a","code":{"coding":[{"system":"http://snomed.info/sct","code":"91554004"}]},"subject":{"reference":"Patient/863e1dca-a0dd-4595-a9f5-c2b108f55dfc"},"onsetDateTime":"2022-05-22T00:00:00+00:00"},"request":{"method":"POST","url":"Condition"}},{"fullUrl":"Condition/f3121ce4-8669-41bc-a197-6e991b1d6419","resource":{"resourceType":"Condition","id":"f3121ce4-8669-41bc-a197-6e991b1d6419","code":{"coding":[{"system":"http://snomed.info/sct","code":"44882003"}]},"subject":{"reference":"Patient/863e1dca-a0dd-4595-a9f5-c2b108f55dfc"},"onsetDateTime":"2022-10-01T00:00:00+00:00"},"request":{"method":"POST","url":"Condition"}},{"fullUrl":"Condition/27b0a57c-2e88-401d-b7b8-d90fe366688e","resource":{"resourceType":"Condition","id":"27b0a57c-2e88-401d-b7b8-d90fe366688e","code":{"coding":[{"system":"http://snomed.info/sct","code":"271807003"}]},"subject":{"reference":"Patient/863e1dca-a0dd-4595-a9f5-c2b108f55dfc"},"onsetDateTime":"2022-10-29T00:00:00+00:00"},"request":{"method":"POST","url":"Condition"}},{"fullUrl":"Condition/87843132-99b3-46af-9101-e11d836b79d2","resource":{"resourceType":"Condition","id":"87843132-99b3-46af-9101-e11d836b79d2","code":{"coding":[{"system":"http://snomed.info/sct","code":"79342006"}]},"subject":{"reference":"Patient/863e1dca-a0dd-4595-a9f5-c2b108f55dfc"},"onsetDateTime":"2022-05-08T00:00:00+00:00"},"request":{"method":"POST","url":"Condition"}},{"fullUrl":"Condition/5694f5ca-04bb-453b-b786-8bdf63de5621","resource":{"resourceType":"Condition","id":"5694f5ca-04bb-453b-b786-8bdf63de5621","code":{"coding":[{"system":"http://snomed.info/sct","code":"271939006"}]},"subject":{"reference":"Patient/863e1dca-a0dd-4595-a9f5-c2b108f55dfc"},"onsetDateTime":"2022-01-20T00:00:00+00:00"},"request":{"method":"POST","url":"Condition"}},{"fullUrl":"Condition/0935fb3c-fb56-43b5-a147-1b87afa1d1dd","resource":{"resourceType":"Condition","id":"0935fb3c-fb56-43b5-a147-1b87afa1d1dd","code":{"coding":[{"system":"http://snomed.info/sct","code":"248980004"}]},"subject":{"reference":"Patient/863e1dca-a0dd-4595-a9f5-c2b108f55dfc"},"onsetDateTime":"2022-07-31T00:00:00+00:00"},"request":{"method":"POST","url":"Condition"}},{"fullUrl":"Observation/1f322f05-6497-455d-a7f3-8be818e53270","resource":{"resourceType":"Observation","id":"1f322f05-6497-455d-a7f3-8be818e53270","status":"final","code":{"coding":[{"system":"http://www.ama-assn.org/go/cpt","code":"85048"}]},"subject":{"reference":"Patient/863e1dca-a0dd-4595-a9f5-c2b108f55dfc"},"effectiveDateTime":"2022-02-26T00:00:00+00:00","valueQuantity":{"value":11}},"request":{"method":"POST","url":"Observation"}},{"fullUrl":"Observation/fc3be4eb-647f-44d2-affa-3c9f76d9f222","resource":{"resourceType":"Observation","id":"fc3be4eb-647f-44d2-affa-3c9f76d9f222","status":"final","code":{"coding":[{"system":"http://loinc.org","code":"49498-9"}]},"subject":{"reference":"Patient/863e1dca-a0dd-4595-a9f5-c2b108f55dfc"},"effectiveDateTime":"2022-01-10T00:00:00+00:00","valueQuantity":{"value":5.3}},"request":{"method":"POST","url":"Observation"}},{"fullUrl":"Observation/38e70ddf-1fb1-425b-adee-ac93dd239ce1","resource":{"resourceType":"Observation","id":"38e70ddf-1fb1-425b-adee-ac93dd239ce1","status":"final","code":{"coding":[{"system":"http://loinc.org","code":"26464-8"}]},"subject":{"reference":"Patient/863e1dca-a0dd-4595-a9f5-c2b108f55dfc"},"effectiveDateTime":"2022-06-25T00:00:00+00:00","valueQuantity":{"value":4.9}},"request":{"method":"POST","url":"Observation"}},{"fullUrl":"Observation/a0cd0dfc-f996-4ff5-bc82-aba06f2acead","resource":{"resourceType":"Observation","id":"a0cd0dfc-f996-4ff5-bc82-aba06f2acead","status":"final","code":{"coding":[{"system":"http://loinc.org","code":"49498-9"}]},"subject":{"reference":"Patient/863e1dca-a0dd-4595-a9f5-c2b108f55dfc"},"effectiveDateTime":"2022-04-30T00:00:00+00:00"},"request":{"method":"POST","url":"Observation"}},{"fullUrl":"Observation/e03b8e28-60cc-4295-84e1-bcb33bb1496f","resource":{"resourceType":"Observation","id":"e03b8e28-60cc-4295-84e1-bcb33bb1496f","status":"final","code":{"coding":[{"system":"http://loinc.org","code":"49498-9"}]},"subject":{"reference":"Patient/863e1dca-a0dd-4595-a9f5-c2b108f55dfc"},"effectiveDateTime":"2022-05-05T00:00:00+00:00"},"request":{"method":"POST","url":"Observation"}},{"fullUrl":"Procedure/178c15e5-32aa-4c88-9059-4fabbc96874e","resource":{"resourceType":"Procedure","id":"178c15e5-32aa-4c88-9059-4fabbc96874e","status":"completed","code":{"coding":[{"system":"http://snomed.info/sct","code":"104001"}]},"subject":{"reference":"Patient/863e1dca-a0dd-4595-a9f5-c2b108f55dfc"},"performedDateTime":"2022-12-29T00:00:00+00:00"},"request":{"method":"POST","url":"Procedure"}},{"fullUrl":"Procedure/6e1084ca-442f-4d2f-bdc6-f14189eb45a0","resource":{"resourceType":"Procedure","id":"6e1084ca-442f-4d2f-bdc6-f14189eb45a0","status":"completed","code":{"coding":[{"system":"http://snomed.info/sct","code":"115006"}]},"subject":{"reference":"Patient/863e1dca-a0dd-4595-a9f5-c2b108f55dfc"},"performedDateTime":"2022-02-24T00:00:00+00:00"},"request":{"method":"POST","url":"Procedure"}},{"fullUrl":"Procedure/adbc09a0-517f-45d6-91e3-e6d882ce735b","resource":{"resourceType":"Procedure","id":"adbc09a0-517f-45d6-91e3-e6d882ce735b","status":"completed","code":{"coding":[{"system":"http://snomed.info/sct","code":"146005"}]},"subject":{"reference":"Patient/863e1dca-a0dd-4595-a9f5-c2b108f55dfc"},"performedDateTime":"2022-10-12T00:00:00+00:00"},"request":{"method":"POST","url":"Procedure"}},{"fullUrl":"MedicationStatement/acfe726c-d7df-44f3-8cba-8148e82576eb","resource":{"resourceType":"MedicationStatement","id":"acfe726c-d7df-44f3-8cba-8148e82576eb","status":"completed","medicationCodeableConcept":{"coding":[{"system":"http://www.nlm.nih.gov/research/umls/rxnorm","code":"8698"}]},"subject":{"reference":"Patient/863e1dca-a0dd-4595-a9f5-c2b108f55dfc"},"effectiveDateTime":"2022-10-15T00:00:00+00:00","dosage":[{"doseAndRate":[{"doseQuantity":{"value":1,"unit":"TAB","system":"http://terminology.hl7.org/CodeSystem/v3-orderableDrugForm","code":"TAB"}}]}]},"request":{"method":"POST","url":"MedicationStatement"}},{"fullUrl":"MedicationStatement/9c41091f-22bb-4d12-aa04-0333c3ab7538","resource":{"resourceType":"MedicationStatement","id":"9c41091f-22bb-4d12-aa04-0333c3ab7538","status":"completed","medicationCodeableConcept":{"coding":[{"system":"http://www.nlm.nih.gov/research/umls/rxnorm","code":"18631"}]},"subject":{"reference":"Patient/863e1dca-a0dd-4595-a9f5-c2b108f55dfc"},"effectiveDateTime":"2022-08-06T00:00:00+00:00","dosage":[{"doseAndRate":[{"doseQuantity":{"value":1,"unit":"TAB","system":"http://terminology.hl7.org/CodeSystem/v3-orderableDrugForm","code":"TAB"}}]}]},"request":{"method":"POST","url":"MedicationStatement"}},{"fullUrl":"MedicationStatement/caa8824a-36d7-4bd7-a76b-a56570abb860","resource":{"resourceType":"MedicationStatement","id":"caa8824a-36d7-4bd7-a76b-a56570abb860","status":"completed","medicationCodeableConcept":{"coding":[{"system":"http://www.nlm.nih.gov/research/umls/rxnorm","code":"10395"}]},"subject":{"reference":"Patient/863e1dca-a0dd-4595-a9f5-c2b108f55dfc"},"effectiveDateTime":"2022-11-21T00:00:00+00:00","dosage":[{"doseAndRate":[{"doseQuantity":{"value":1,"unit":"TAB","system":"http://terminology.hl7.org/CodeSystem/v3-orderableDrugForm","code":"TAB"}}]}]},"request":{"method":"POST","url":"MedicationStatement"}},{"fullUrl":"MedicationStatement/ba1bc683-fda1-4264-8933-f604bed4ab77","resource":{"resourceType":"MedicationStatement","id":"ba1bc683-fda1-4264-8933-f604bed4ab77","status":"completed","medicationCodeableConcept":{"coding":[{"system":"http://www.nlm.nih.gov/research/umls/rxnorm","code":"3640"}]},"subject":{"reference":"Patient/863e1dca-a0dd-4595-a9f5-c2b108f55dfc"},"effectiveDateTime":"2022-07-07T00:00:00+00:00","dosage":[{"doseAndRate":[{"doseQuantity":{"value":2,"unit":"TAB","system":"http://terminology.hl7.org/CodeSystem/v3-orderableDrugForm","code":"TAB"}}]}]},"request":{"method":"POST","url":"MedicationStatement"}},{"fullUrl":"MedicationStatement/3fe4e164-4270-4e17-a5f6-06559c801b17","resource":{"resourceType":"MedicationStatement","id":"3fe4e164-4270-4e17-a5f6-06559c801b17","status":"completed","medicationCodeableConcept":{"coding":[{"system":"http://www.nlm.nih.gov/research/umls/rxnorm","code":"2193"}]},"subject":{"reference":"Patient/863e1dca-a0dd-4595-a9f5-c2b108f55dfc"},"effectiveDateTime":"2022-04-10T00:00:00+00:00","dosage":[{"doseAndRate":[{"doseQuantity":{"value":1,"unit":"TAB","system":"http://terminology.hl7.org/CodeSystem/v3-orderableDrugForm","code":"TAB"}}]}]},"request":{"method":"POST","url":"MedicationStatement"}},{"fullUrl":"MedicationStatement/4b65bd13-ee15-43fb-8547-22e358f7de35","resource":{"resourceType":"MedicationStatement","id":"4b65bd13-ee15-43fb-8547-22e358f7de35","status":"completed","medicationCodeableConcept":{"coding":[{"system":"http://www.nlm.nih.gov/research/umls/rxnorm","code":"7984"}]},"subject":{"reference":"Patient/863e1dca-a0dd-4595-a9f5-c2b108f55dfc"},"effectiveDateTime":"2022-08-16T00:00:00+00:00","dosage":[{"doseAndRate":[{"doseQuantity":{"value":4.9,"unit":"TAB","system":"http://terminology.hl7.org/CodeSystem/v3-orderableDrugForm","code":"TAB"}}]}]},"request":{"method":"POST","url":"MedicationStatement"}},{"fullUrl":"MedicationStatement/21a5eb8c-5121-4122-8635-4a14b8e55030","resource":{"resourceType":"MedicationStatement","id":"21a5eb8c-5121-4122-8635-4a14b8e55030","status":"completed","medicationCodeableConcept":{"coding":[{"system":"http://www.nlm.nih.gov/research/umls/rxnorm","code":"10395"}]},"subject":{"reference":"Patient/863e1dca-a0dd-4595-a9f5-c2b108f55dfc"},"effectiveDateTime":"2022-10-14T00:00:00+00:00","dosage":[{"doseAndRate":[{"doseQuantity":{"value":4.4,"unit":"TAB","system":"http://terminology.hl7.org/CodeSystem/v3-orderableDrugForm","code":"TAB"}}]}]},"request":{"method":"POST","url":"MedicationStatement"}},{"fullUrl":"MedicationStatement/ab6988b9-930d-4f7a-8ef6-d41a8a317a45","resource":{"resourceType":"MedicationStatement","id":"ab6988b9-930d-4f7a-8ef6-d41a8a317a45","status":"completed","medicationCodeableConcept":{"coding":[{"system":"http://www.nlm.nih.gov/research/umls/rxnorm","code":"7980"}]},"subject":{"reference":"Patient/863e1dca-a0dd-4595-a9f5-c2b108f55dfc"},"effectiveDateTime":"2022-12-10T00:00:00+00:00","dosage":[{"doseAndRate":[{"doseQuantity":{"value":3.3,"unit":"TAB","system":"http://terminology.hl7.org/CodeSystem/v3-orderableDrugForm","code":"TAB"}}]}]},"request":{"method":"POST","url":"MedicationStatement"}},{"fullUrl":"MedicationStatement/f6f51de6-46f7-49b8-8518-e89d98eec861","resource":{"resourceType":"MedicationStatement","id":"f6f51de6-46f7-49b8-8518-e89d98eec861","status":"completed","medicationCodeableConcept":{"coding":[{"system":"http://www.nlm.nih.gov/research/umls/rxnorm","code":"7980"}]},"subject":{"reference":"Patient/863e1dca-a0dd-4595-a9f5-c2b108f55dfc"},"effectiveDateTime":"2022-01-14T00:00:00+00:00","dosage":[{"doseAndRate":[{"doseQuantity":{"value":7,"unit":"TAB","system":"http://terminology.hl7.org/CodeSystem/v3-orderableDrugForm","code":"TAB"}}]}]},"request":{"method":"POST","url":"MedicationStatement"}},{"fullUrl":"MedicationStatement/391c67d5-7343-439b-973b-e6b2b2f5c8a8","resource":{"resourceType":"MedicationStatement","id":"391c67d5-7343-439b-973b-e6b2b2f5c8a8","status":"completed","medicationCodeableConcept":{"coding":[{"system":"http://www.nlm.nih.gov/research/umls/rxnorm","code":"7980"}]},"subject":{"reference":"Patient/863e1dca-a0dd-4595-a9f5-c2b108f55dfc"},"effectiveDateTime":"2022-09-04T00:00:00+00:00","dosage":[{"doseAndRate":[{"doseQuantity":{"value":6.2,"unit":"TAB","system":"http://terminology.hl7.org/CodeSystem/v3-orderableDrugForm","code":"TAB"}}]}]},"request":{"method":"POST","url":"MedicationStatement"}},{"fullUrl":"MedicationStatement/956f3b1d-55ab-412b-8c72-ceb7494cfcc1","resource":{"resourceType":"MedicationStatement","id":"956f3b1d-55ab-412b-8c72-ceb7494cfcc1","status":"completed","medicationCodeableConcept":{"coding":[{"system":"http://www.nlm.nih.gov/research/umls/rxnorm","code":"7980"}]},"subject":{"reference":"Patient/863e1dca-a0dd-4595-a9f5-c2b108f55dfc"},"effectiveDateTime":"2022-05-09T00:00:00+00:00","dosage":[{"doseAndRate":[{"doseQuantity":{"value":4.4,"unit":"TAB","system":"http://terminology.hl7.org/CodeSystem/v3-orderableDrugForm","code":"TAB"}}]}]},"request":{"method":"POST","url":"MedicationStatement"}},{"fullUrl":"MedicationStatement/d05eaf82-1c83-47f2-a2d0-322b3992c1a9","resource":{"resourceType":"MedicationStatement","id":"d05eaf82-1c83-47f2-a2d0-322b3992c1a9","status":"completed","medicationCodeableConcept":{"coding":[{"system":"http://www.nlm.nih.gov/research/umls/rxnorm","code":"3640"}]},"subject":{"reference":"Patient/863e1dca-a0dd-4595-a9f5-c2b108f55dfc"},"effectiveDateTime":"2022-11-01T00:00:00+00:00","dosage":[{"doseAndRate":[{"doseQuantity":{"value":4.2,"unit":"TAB","system":"http://terminology.hl7.org/CodeSystem/v3-orderableDrugForm","code":"TAB"}}]}]},"request":{"method":"POST","url":"MedicationStatement"}},{"fullUrl":"Encounter/61db58b1-2e9f-47ef-beb7-947362cebe72","resource":{"resourceType":"Encounter","id":"61db58b1-2e9f-47ef-beb7-947362cebe72","status":"finished","class":{"system":"http://terminology.hl7.org/CodeSystem/v3-ActCode","code":"IMP","display":"inpatient encounter"},"type":[{"coding":[{"system":"http://terminology.hl7.org/CodeSystem/encounter-type","code":"ADMS"}]}],"subject":{"reference":"Patient/863e1dca-a0dd-4595-a9f5-c2b108f55dfc"},"period":{"start":"2022-04-13T00:00:00+00:00","end":"2022-04-13T00:00:00+00:00"}},"request":{"method":"POST","url":"Encounter"}},{"fullUrl":"Encounter/d22b89cc-cea7-4ca2-bccf-13a60b107661","resource":{"resourceType":"Encounter","id":"d22b89cc-cea7-4ca2-bccf-13a60b107661","status":"finished","class":{"system":"http://terminology.hl7.org/CodeSystem/v3-ActCode","code":"IMP","display":"inpatient encounter"},"type":[{"coding":[{"system":"http://terminology.hl7.org/CodeSystem/encounter-type","code":"ADMS"}]}],"subject":{"reference":"Patient/863e1dca-a0dd-4595-a9f5-c2b108f55dfc"},"period":{"start":"2022-01-12T00:00:00+00:00","end":"2022-01-21T00:00:00+00:00"}},"request":{"method":"POST","url":"Encounter"}},{"fullUrl":"Encounter/3edd1228-9e40-42c5-93f3-f69b98b42bfb","resource":{"resourceType":"Encounter","id":"3edd1228-9e40-42c5-93f3-f69b98b42bfb","status":"finished","class":{"system":"http://terminology.hl7.org/CodeSystem/v3-ActCode","code":"IMP","display":"inpatient encounter"},"type":[{"coding":[{"system":"http://terminology.hl7.org/CodeSystem/encounter-type","code":"CCS60"}]}],"subject":{"reference":"Patient/863e1dca-a0dd-4595-a9f5-c2b108f55dfc"},"period":{"start":"2022-09-26T00:00:00+00:00","end":"2022-09-29T00:00:00+00:00"}},"request":{"method":"POST","url":"Encounter"}},{"fullUrl":"Encounter/e9a358da-70fd-4197-9105-e708de64b307","resource":{"resourceType":"Encounter","id":"e9a358da-70fd-4197-9105-e708de64b307","status":"finished","class":{"system":"http://terminology.hl7.org/CodeSystem/v3-ActCode","code":"IMP","display":"inpatient encounter"},"type":[{"coding":[{"system":"http://terminology.hl7.org/CodeSystem/encounter-type","code":"CCS60"}]}],"subject":{"reference":"Patient/863e1dca-a0dd-4595-a9f5-c2b108f55dfc"},"period":{"start":"2022-03-11T00:00:00+00:00","end":"2022-03-20T00:00:00+00:00"}},"request":{"method":"POST","url":"Encounter"}},{"fullUrl":"Encounter/842067e5-dc7b-4854-bc7e-613d07adc7e4","resource":{"resourceType":"Encounter","id":"842067e5-dc7b-4854-bc7e-613d07adc7e4","status":"finished","class":{"system":"http://terminology.hl7.org/CodeSystem/v3-ActCode","code":"HH","display":"home health"},"type":[{"coding":[{"system":"http://terminology.hl7.org/CodeSystem/encounter-type","code":"BD/BM-clin"}]}],"subject":{"reference":"Patient/863e1dca-a0dd-4595-a9f5-c2b108f55dfc"},"period":{"start":"2022-03-31T00:00:00+00:00","end":"2022-04-01T00:00:00+00:00"}},"request":{"method":"POST","url":"Encounter"}},{"fullUrl":"Encounter/4ea602fa-559d-41d5-8f59-bca7d54517f2","resource":{"resourceType":"Encounter","id":"4ea602fa-559d-41d5-8f59-bca7d54517f2","status":"finished","class":{"system":"http://terminology.hl7.org/CodeSystem/v3-ActCode","code":"VR","display":"virtual"},"type":[{"coding":[{"system":"http://terminology.hl7.org/CodeSystem/encounter-type","code":"BD/BM-clin"}]}],"subject":{"reference":"Patient/863e1dca-a0dd-4595-a9f5-c2b108f55dfc"},"period":{"start":"2022-03-21T00:00:00+00:00","end":"2022-03-30T00:00:00+00:00"}},"request":{"method":"POST","url":"Encounter"}},{"fullUrl":"Patient/23c8be02-a28b-4ed7-ae0a-10085ce032f9","resource":{"resourceType":"Patient","id":"23c8be02-a28b-4ed7-ae0a-10085ce032f9","identifier":[{"type":{"coding":[{"system":"http://terminology.hl7.org/CodeSystem/v2-0203","code":"MR"}]},"system":"urn:fhirgen:mrn","value":"489-07-1912"}],"name":[{"use":"official","family":"Norris","given":["Alison"]},{"use":"maiden","family":"Smith"}],"telecom":[{"system":"phone","value":"+1-348-322-7171","use":"mobile"},{"system":"email","value":"rossrhonda@gmail.com","use":"home"}],"gender":"female","birthDate":"1995-08-01","address":[{"use":"home","line":["73397 Amy Corners"],"city":"Nelsontown","state":"NM","postalCode":"63785"},{"use":"old","line":["8342 Shawn Route Suite 157"],"city":"East Andrew","state":"WY","postalCode":"28615"}]},"request":{"method":"POST","url":"Patient"}},{"fullUrl":"Observation/bc065089-7ad8-46d6-8454-6aabdd9f68a6","resource":{"resourceType":"Observation","id":"bc065089-7ad8-46d6-8454-6aabdd9f68a6","status":"final","code":{"coding":[{"system":"http://loinc.org","code":"31147-2"}]},"subject":{"reference":"Patient/23c8be02-a28b-4ed7-ae0a-10085ce032f9"},"effectiveDateTime":"2022-09-06T00:00:00+00:00","valueRatio":{"numerator":{"value":1},"denominator":{"value":64}}},"request":{"method":"POST","url":"Observation"}},{"fullUrl":"Observation/a321d316-793f-48e0-b8a2-43c4f1ad4c04","resource":{"resourceType":"Observation","id":"a321d316-793f-48e0-b8a2-43c4f1ad4c04","status":"final","code":{"coding":[{"system":"http://loinc.org","code":"50695-6"}]},"subject":{"reference":"Patient/23c8be02-a28b-4ed7-ae0a-10085ce032f9"},"effectiveDateTime":"2022-09-15T00:00:00+00:00","valueRatio":{"numerator":{"value":1},"denominator":{"value":64}}},"request":{"method":"POST","url":"Observation"}},{"fullUrl":"Condition/70308a3e-751a-4432-98b8-37077f51c582","resource":{"resourceType":"Condition","id":"70308a3e-751a-4432-98b8-37077f51c582","code":{"coding":[{"system":"http://snomed.info/sct","code":"198199009"}]},"subject":{"reference":"Patient/23c8be02-a28b-4ed7-ae0a-10085ce032f9"},"onsetDateTime":"2022-08-10T00:00:00+00:00"},"request":{"method":"POST","url":"Condition"}},{"fullUrl":"Condition/a6b79e36-39b7-4109-b1bf-011eae7e5677","resource":{"resourceType":"Condition","id":"a6b79e36-39b7-4109-b1bf-011eae7e5677","code":{"coding":[{"system":"http://snomed.info/sct","code":"56317004"}]},"subject":{"reference":"Patient/23c8be02-a28b-4ed7-ae0a-10085ce032f9"},"onsetDateTime":"2022-08-01T00:00:00+00:00"},"request":{"method":"POST","url":"Condition"}},{"fullUrl":"Condition/31d4525d-b120-4123-b2d3-999d352b2f40","resource":{"resourceType":"Condition","id":"31d4525d-b120-4123-b2d3-999d352b2f40","code":{"coding":[{"system":"http://snomed.info/sct","code":"198199009"}]},"subject":{"reference":"Patient/23c8be02-a28b-4ed7-ae0a-10085ce032f9"},"onsetDateTime":"2022-06-13T00:00:00+00:00"},"request":{"method":"POST","url":"Condition"}},{"fullUrl":"Condition/6ef7c73f-126c-444c-8eeb-e18b9adb32c5","resource":{"resourceType":"Condition","id":"6ef7c73f-126c-444c-8eeb-e18b9adb32c5","code":{"coding":[{"system":"http://snomed.info/sct","code":"736686006"}]},"subject":{"reference":"Patient/23c8be02-a28b-4ed7-ae0a-10085ce032f9"},"onsetDateTime":"2022-02-13T00:00:00+00:00"},"request":{"method":"POST","url":"Condition"}},{"fullUrl":"Condition/ddec425a-5478-47c3-8a42-2709a9a2ce04","resource":{"resourceType":"Condition","id":"ddec425a-5478-47c3-8a42-2709a9a2ce04","code":{"coding":[{"system":"http://snomed.info/sct","code":"271807003"}]},"subject":{"reference":"Patient/23c8be02-a28b-4ed7-ae0a-10085ce032f9"},"onsetDateTime":"2022-12-13T00:00:00+00:00"},"request":{"method":"POST","url":"Condition"}},{"fullUrl":"Condition/ef11ec5e-a06f-4c74-a72c-64738e1d39e2","resource":{"resourceType":"Condition","id":"ef11ec5e-a06f-4c74-a72c-64738e1d39e2","code":{"coding":[{"system":"http://snomed.info/sct","code":"405737000"}]},"subject":{"reference":"Patient/23c8be02-a28b-4ed7-ae0a-10085ce032f9"},"onsetDateTime":"2022-12-22T00:00:00+00:00"},"request":{"method":"POST","url":"Condition"}},{"fullUrl":"Condition/45e994d9-f832-4ecf-b7d8-2455dcf57186","resource":{"resourceType":"Condition","id":"45e994d9-f832-4ecf-b7d8-2455dcf57186","code":{"coding":[{"system":"http://snomed.info/sct","code":"79342006"}]},"subject":{"reference":"Patient/23c8be02-a28b-4ed7-ae0a-10085ce032f9"},"onsetDateTime":"2022-01-14T00:00:00+00:00"},"request":{"method":"POST","url":"Condition"}},{"fullUrl":"Observation/56950773-e3e5-4c61-bab9-eaf775f2fc7c","resource":{"resourceType":"Observation","id":"56950773-e3e5-4c61-bab9-eaf775f2fc7c","status":"final","code":{"coding":[{"system":"http://loinc.org","code":"49498-9"}]},"subject":{"reference":"Patient/23c8be02-a28b-4ed7-ae0a-10085ce032f9"},"effectiveDateTime":"2022-05-05T00:00:00+00:00","valueQuantity":{"value":5.4}},"request":{"method":"POST","url":"Observation"}},{"fullUrl":"Observation/5fcfdfac-7e45-4303-b24c-5af3b36e1fa9","resource":{"resourceType":"Observation","id":"5fcfdfac-7e45-4303-b24c-5af3b36e1fa9","status":"final","code":{"coding":[{"system":"http://loinc.org","code":"49498-9"}]},"subject":{"reference":"Patient/23c8be02-a28b-4ed7-ae0a-10085ce032f9"},"effectiveDateTime":"2022-10-27T00:00:00+00:00","valueQuantity":{"value":8.3}},"request":{"method":"POST","url":"Observation"}},{"fullUrl":"Observation/ae091744-56e4-4d28-a6ab-f63924c3abf6","resource":{"resourceType":"Observation","id":"ae091744-56e4-4d28-a6ab-f63924c3abf6","status":"final","code":{"coding":[{"system":"http://www.ama-assn.org/go/cpt","code":"85048"}]},"subject":{"reference":"Patient/23c8be02-a28b-4ed7-ae0a-10085ce032f9"},"effectiveDateTime":"2022-10-31T00:00:00+00:00","valueQuantity":{"value":7.2}},"request":{"method":"POST","url":"Observation"}},{"fullUrl":"Observation/90c7207f-717c-443f-93f4-49a786180a45","resource":{"resourceType":"Observation","id":"90c7207f-717c-443f-93f4-49a786180a45","status":"final","code":{"coding":[{"system":"http://loinc.org","code":"49498-9"}]},"subject":{"reference":"Patient/23c8be02-a28b-4ed7-ae0a-10085ce032f9"},"effectiveDateTime":"2022-09-15T00:00:00+00:00"},"request":{"method":"POST","url":"Observation"}},{"fullUrl":"Observation/b5663e80-1c79-4397-820d-21a3c2e4aed5","resource":{"resourceType":"Observation","id":"b5663e80-1c79-4397-820d-21a3c2e4aed5","status":"final","code":{"coding":[{"system":"http://loinc.org","code":"49498-9"}]},"subject":{"reference":"Patient/23c8be02-a28b-4ed7-ae0a-10085ce032f9"},"effectiveDateTime":"2022-10-28T00:00:00+00:00"},"request":{"method":"POST","url":"Observation"}},{"fullUrl":"Procedure/bb98de9b-cfb4-4d50-8460-19b1c8a80208","resource":{"resourceType":"Procedure","id":"bb98de9b-cfb4-4d50-8460-19b1c8a80208","status":"completed","code":{"coding":[{"system":"http://snomed.info/sct","code":"647000"}]},"subject":{"reference":"Patient/23c8be02-a28b-4ed7-ae0a-10085ce032f9"},"performedDateTime":"2022-10-08T00:00:00+00:00"},"request":{"method":"POST","url":"Procedure"}},{"fullUrl":"Procedure/9a1928db-8ea5-4ac1-af63-b536f077f212","resource":{"resourceType":"Procedure","id":"9a1928db-8ea5-4ac1-af63-b536f077f212","status":"completed","code":{"coding":[{"system":"http://snomed.info/sct","code":"104001"}]},"subject":{"reference":"Patient/23c8be02-a28b-4ed7-ae0a-10085ce032f9"},"performedDateTime":"2022-03-16T00:00:00+00:00"},"request":{"method":"POST","url":"Procedure"}},{"fullUrl":"Procedure/ccdeda41-7a5a-4b95-b67b-ed173086ce29","resource":{"resourceType":"Procedure","id":"ccdeda41-7a5a-4b95-b67b-ed173086ce29","status":"completed","code":{"coding":[{"system":"http://snomed.info/sct","code":"146005"}]},"subject":{"reference":"Patient/23c8be02-a28b-4ed7-ae0a-10085ce032f9"},"performedDateTime":"2022-09-09T00:00:00+00:00"},"request":{"method":"POST","url":"Procedure"}},{"fullUrl":"MedicationStatement/b47053ef-58fa-4a2d-b13e-06f415d272bb","resource":{"resourceType":"MedicationStatement","id":"b47053ef-58fa-4a2d-b13e-06f415d272bb","status":"completed","medicationCodeableConcept":{"coding":[{"system":"http://www.nlm.nih.gov/research/umls/rxnorm","code":"8698"}]},"subject":{"reference":"Patient/23c8be02-a28b-4ed7-ae0a-10085ce032f9"},"effectiveDateTime":"2022-08-11T00:00:00+00:00","dosage":[{"doseAndRate":[{"doseQuantity":{"value":2,"unit":"TAB","system":"http://terminology.hl7.org/CodeSystem/v3-orderableDrugForm","code":"TAB"}}]}]},"request":{"method":"POST","url":"MedicationStatement"}},{"fullUrl":"MedicationStatement/d130fa22-434b-4e81-b11a-33afa790b89c","resource":{"resourceType":"MedicationStatement","id":"d130fa22-434b-4e81-b11a-33afa790b89c","status":"completed","medicationCodeableConcept":{"coding":[{"system":"http://www.nlm.nih.gov/research/umls/rxnorm","code":"18631"}]},"subject":{"reference":"Patient/23c8be02-a28b-4ed7-ae0a-10085ce032f9"},"effectiveDateTime":"2022-09-14T00:00:00+00:00","dosage":[{"doseAndRate":[{"doseQuantity":{"value":2,"unit":"TAB","system":"http://terminology.hl7.org/CodeSystem/v3-orderableDrugForm","code":"TAB"}}]}]},"request":{"method":"POST","url":"MedicationStatement"}},{"fullUrl":"MedicationStatement/b07fb7b6-746e-42af-ae93-e1e70c6a55a2","resource":{"resourceType":"MedicationStatement","id":"b07fb7b6-746e-42af-ae93-e1e70c6a55a2","status":"completed","medicationCodeableConcept":{"coding":[{"system":"http://www.nlm.nih.gov/research/umls/rxnorm","code":"7980"}]},"subject":{"reference":"Patient/23c8be02-a28b-4ed7-ae0a-10085ce032f9"},"effectiveDateTime":"2022-08-11T00:00:00+00:00","dosage":[{"doseAndRate":[{"doseQuantity":{"value":2,"unit":"TAB","system":"http://terminology.hl7.org/CodeSystem/v3-orderableDrugForm","code":"TAB"}}]}]},"request":{"method":"POST","url":"MedicationStatement"}},{"fullUrl":"MedicationStatement/ad868db4-c87e-4a84-9f31-9e493499a09f","resource":{"resourceType":"MedicationStatement","id":"ad868db4-c87e-4a84-9f31-9e493499a09f","status":"completed","medicationCodeableConcept":{"coding":[{"system":"http://www.nlm.nih.gov/research/umls/rxnorm","code":"8698"}]},"subject":{"reference":"Patient/23c8be02-a28b-4ed7-ae0a-10085ce032f9"},"effectiveDateTime":"2022-03-09T00:00:00+00:00","dosage":[{"doseAndRate":[{"doseQuantity":{"value":2,"unit":"TAB","system":"http://terminology.hl7.org/CodeSystem/v3-orderableDrugForm","code":"TAB"}}]}]},"request":{"method":"POST","url":"MedicationStatement"}},{"fullUrl":"MedicationStatement/b8c2de42-df5e-4eb7-bb8e-c6098bcc197d","resource":{"resourceType":"MedicationStatement","id":"b8c2de42-df5e-4eb7-bb8e-c6098bcc197d","status":"completed","medicationCodeableConcept":{"coding":[{"system":"http://www.nlm.nih.gov/research/umls/rxnorm","code":"10395"}]},"subject":{"reference":"Patient/23c8be02-a28b-4ed7-ae0a-10085ce032f9"},"effectiveDateTime":"2022-03-20T00:00:00+00:00","dosage":[{"doseAndRate":[{"doseQuantity":{"value":2,"unit":"TAB","system":"http://terminology.hl7.org/CodeSystem/v3-orderableDrugForm","code":"TAB"}}]}]},"request":{"method":"POST","url":"MedicationStatement"}},{"fullUrl":"MedicationStatement/b99ef811-a575-4f94-93e4-9aa3f49a0e05","resource":{"resourceType":"MedicationStatement","id":"b99ef811-a575-4f94-93e4-9aa3f49a0e05","status":"completed","medicationCodeableConcept":{"coding":[{"system":"http://www.nlm.nih.gov/research/umls/rxnorm","code":"7980"}]},"subject":{"reference":"Patient/23c8be02-a28b-4ed7-ae0a-10085ce032f9"},"effectiveDateTime":"2022-10-21T00:00:00+00:00","dosage":[{"doseAndRate":[{"doseQuantity":{"value":2,"unit":"TAB","system":"http://terminology.hl7.org/CodeSystem/v3-orderableDrugForm","code":"TAB"}}]}]},"request":{"method":"POST","url":"MedicationStatement"}},{"fullUrl":"MedicationStatement/b7cf5f96-4edb-4d3c-a0da-03acc577dfe8","resource":{"resourceType":"MedicationStatement","id":"b7cf5f96-4edb-4d3c-a0da-03acc577dfe8","status":"completed","medicationCodeableConcept":{"coding":[{"system":"http://www.nlm.nih.gov/research/umls/rxnorm","code":"10395"}]},"subject":{"reference":"Patient/23c8be02-a28b-4ed7-ae0a-10085ce032f9"},"effectiveDateTime":"2022-07-16T00:00:00+00:00","dosage":[{"doseAndRate":[{"doseQuantity":{"value":2,"unit":"TAB","system":"http://terminology.hl7.org/CodeSystem/v3-orderableDrugForm","code":"TAB"}}]}]},"request":{"method":"POST","url":"MedicationStatement"}},{"fullUrl":"MedicationStatement/adbb5ca8-00ea-4c9a-a656-ad647e304baf","resource":{"resourceType":"MedicationStatement","id":"adbb5ca8-00ea-4c9a-a656-ad647e304baf","status":"completed","medicationCodeableConcept":{"coding":[{"system":"http://www.nlm.nih.gov/research/umls/rxnorm","code":"18631"}]},"subject":{"reference":"Patient/23c8be02-a28b-4ed7-ae0a-10085ce032f9"},"effectiveDateTime":"2022-11-11T00:00:00+00:00","dosage":[{"doseAndRate":[{"doseQuantity":{"value":1,"unit":"TAB","system":"http://terminology.hl7.org/CodeSystem/v3-orderableDrugForm","code":"TAB"}}]}]},"request":{"method":"POST","url":"MedicationStatement"}},{"fullUrl":"MedicationStatement/75283e1c-1c70-488f-a670-c1a537799f9b","resource":{"resourceType":"MedicationStatement","id":"75283e1c-1c70-488f-a670-c1a537799f9b","status":"completed","medicationCodeableConcept":{"coding":[{"system":"http://www.nlm.nih.gov/research/umls/rxnorm","code":"3640"}]},"subject":{"reference":"Patient/23c8be02-a28b-4ed7-ae0a-10085ce032f9"},"effectiveDateTime":"2022-07-22T00:00:00+00:00","dosage":[{"doseAndRate":[{"doseQuantity":{"value":3,"unit":"TAB","system":"http://terminology.hl7.org/CodeSystem/v3-orderableDrugForm","code":"TAB"}}]}]},"request":{"method":"POST","url":"MedicationStatement"}},{"fullUrl":"Encounter/1fe157f2-d604-47de-bf6f-a2e861b723ce","resource":{"resourceType":"Encounter","id":"1fe157f2-d604-47de-bf6f-a2e861b723ce","status":"finished","class":{"system":"http://terminology.hl7.org/CodeSystem/v3-ActCode","code":"IMP","display":"inpatient encounter"},"type":[{"coding":[{"system":"http://terminology.hl7.org/CodeSystem/encounter-type","code":"OKI"}]}],"subject":{"reference":"Patient/23c8be02-a28b-4ed7-ae0a-10085ce032f9"},"period":{"start":"2022-12-17T00:00:00+00:00","end":"2022-12-23T00:00:00+00:00"}},"request":{"method":"POST","url":"Encounter"}},{"fullUrl":"Encounter/1c64b393-1216-4385-a2c0-746988619185","resource":{"resourceType":"Encounter","id":"1c64b393-1216-4385-a2c0-746988619185","status":"finished","class":{"system":"http://terminology.hl7.org/CodeSystem/v3-ActCode","code":"IMP","display":"inpatient encounter"},"type":[{"coding":[{"system":"http://terminology.hl7.org/CodeSystem/encounter-type","code":"BD/BM-clin"}]}],"subject":{"reference":"Patient/23c8be02-a28b-4ed7-ae0a-10085ce032f9"},"period":{"start":"2022-06-29T00:00:00+00:00","end":"2022-07-05T00:00:00+00:00"}},"request":{"method":"POST","url":"Encounter"}},{"fullUrl":"Encounter/699c4980-c479-4d3f-9a0e-0f6338be7755","resource":{"resourceType":"Encounter","id":"699c4980-c479-4d3f-9a0e-0f6338be7755","status":"finished","class":{"system":"http://terminology.hl7.org/CodeSystem/v3-ActCode","code":"IMP","display":"inpatient encounter"},"type":[{"coding":[{"system":"http://terminology.hl7.org/CodeSystem/encounter-type","code":"OKI"}]}],"subject":{"reference":"Patient/23c8be02-a28b-4ed7-ae0a-10085ce032f9"},"period":{"start":"2022-04-27T00:00:00+00:00","end":"2022-05-06T00:00:00+00:00"}},"request":{"method":"POST","url":"Encounter"}},{"fullUrl":"Encounter/a13810ec-de80-4ab8-90b8-da9b2f1cdf0b","resource":{"resourceType":"Encounter","id":"a13810ec-de80-4ab8-90b8-da9b2f1cdf0b","status":"finished","class":{"system":"http://terminology.hl7.org/CodeSystem/v3-ActCode","code":"HH","display":"home health"},"type":[{"coding":[{"system":"http://terminology.hl7.org/CodeSystem/encounter-type","code":"BD/BM-clin"}]}],"subject":{"reference":"Patient/23c8be02-a28b-4ed7-ae0a-10085ce032f9"},"period":{"start":"2022-11-17T00:00:00+00:00","end":"2022-11-21T00:00:00+00:00"}},"request":{"method":"POST","url":"Encounter"}},{"fullUrl":"Encounter/e75b2ccd-5d41-4021-b8c8-10a2f36a98d0","resource":{"resourceType":"Encounter","id":"e75b2ccd-5d41-4021-b8c8-10a2f36a98d0","status":"finished","class":{"system":"http://terminology.hl7.org/CodeSystem/v3-ActCode","code":"ACUTE","display":"inpatient acute"},"type":[{"coding":[{"system":"http://terminology.hl7.org/CodeSystem/encounter-type","code":"OKI"}]}],"subject":{"reference":"Patient/23c8be02-a28b-4ed7-ae0a-10085ce032f9"},"period":{"start":"2022-09-08T00:00:00+00:00","end":"2022-09-10T00:00:00+00:00"}},"request":{"method":"POST","url":"Encounter"}},{"fullUrl":"Patient/3fc5b4fd-dfe3-4dbf-9759-76fc3aa558c9","resource":{"resourceType":"Patient","id":"3fc5b4fd-dfe3-4dbf-9759-76fc3aa558c9","identifier":[{"type":{"coding":[{"system":"http://terminology.hl7.org/CodeSystem/v2-0203","code":"MR"}]},"system":"urn:fhirgen:mrn","value":"041-46-6224"}],"name":[{"use":"official","family":"Nunez","given":["Rhonda"]},{"use":"maiden","family":"Ochoa"}],"telecom":[{"system":"phone","value":"211.036.2772","use":"home"},{"system":"email","value":"alecroberts@yahoo.com","use":"home"}],"gender":"female","birthDate":"1961-12-11","address":[{"use":"home","line":["5706 Ronald Manor Suite 056"],"city":"Port Timothy","state":"MN","postalCode":"46458"},{"use":"old","line":["7564 Beverly Heights"],"city":"Stanleyfort","state":"MN","postalCode":"54082"}]},"request":{"method":"POST","url":"Patient"}},{"fullUrl":"Observation/39752d57-521a-4e2f-b155-3f4cd3e171a1","resource":{"resourceType":"Observation","id":"39752d57-521a-4e2f-b155-3f4cd3e171a1","status":"final","code":{"coding":[{"system":"http://loinc.org","code":"87925-4"}]},"subject":{"reference":"Patient/3fc5b4fd-dfe3-4dbf-9759-76fc3aa558c9"},"effectiveDateTime":"2022-04-03T00:00:00+00:00","valueRatio":{"numerator":{"value":1},"denominator":{"value":32}}},"request":{"method":"POST","url":"Observation"}},{"fullUrl":"Observation/dc0190c9-95c5-482f-8caa-3ee5f904cf1c","resource":{"resourceType":"Observation","id":"dc0190c9-95c5-482f-8caa-3ee5f904cf1c","status":"final","code":{"coding":[{"system":"http://loinc.org","code":"34382-2"}]},"subject":{"reference":"Patient/3fc5b4fd-dfe3-4dbf-9759-76fc3aa558c9"},"effectiveDateTime":"2022-03-30T00:00:00+00:00","valueRatio":{"numerator":{"value":1},"denominator":{"value":32}}},"request":{"method":"POST","url":"Observation"}},{"fullUrl":"Observation/5439487e-6455-41d0-b1e5-3ae53849803b","resource":{"resourceType":"Observation","id":"5439487e-6455-41d0-b1e5-3ae53849803b","status":"final","code":{"coding":[{"system":"http://loinc.org","code":"11084-1"}]},"subject":{"reference":"Patient/3fc5b4fd-dfe3-4dbf-9759-76fc3aa558c9"},"effectiveDateTime":"2022-05-18T00:00:00+00:00","valueRatio":{"numerator":{"value":1},"denominator":{"value":4}}},"request":{"method":"POST","url":"Observation"}},{"fullUrl":"Condition/0bd6dca8-ecbc-4f8f-9e8a-151cfd2b0b72","resource":{"resourceType":"Condition","id":"0bd6dca8-ecbc-4f8f-9e8a-151cfd2b0b72","code":{"coding":[{"system":"http://snomed.info/sct","code":"3951002"}]},"subject":{"reference":"Patient/3fc5b4fd-dfe3-4dbf-9759-76fc3aa558c9"},"onsetDateTime":"2022-10-06T00:00:00+00:00"},"request":{"method":"POST","url":"Condition"}},{"fullUrl":"Condition/54b6f6d0-676d-44cd-a1b7-eb0ba2acb5ba","resource":{"resourceType":"Condition","id":"54b6f6d0-676d-44cd-a1b7-eb0ba2acb5ba","code":{"coding":[{"system":"http://snomed.info/sct","code":"198199009"}]},"subject":{"reference":"Patient/3fc5b4fd-dfe3-4dbf-9759-76fc3aa558c9"},"onsetDateTime":"2022-10-01T00:00:00+00:00"},"request":{"method":"POST","url":"Condition"}},{"fullUrl":"Condition/84b072cd-2bf0-49d1-a09f-3d59a90cb36c","resource":{"resourceType":"Condition","id":"84b072cd-2bf0-49d1-a09f-3d59a90cb36c","code":{"coding":[{"system":"http://snomed.info/sct","code":"71315007"}]},"subject":{"reference":"Patient/3fc5b4fd-dfe3-4dbf-9759-76fc3aa558c9"},"onsetDateTime":"2022-01-14T00:00:00+00:00"},"request":{"method":"POST","url":"Condition"}},{"fullUrl":"Condition/eb02a8a0-942f-4a73-bdfc-f37fb261002e","resource":{"resourceType":"Condition","id":"eb02a8a0-942f-4a73-bdfc-f37fb261002e","code":{"coding":[{"system":"http://snomed.info/sct","code":"44882003"}]},"subject":{"reference":"Patient/3fc5b4fd-dfe3-4dbf-9759-76fc3aa558c9"},"onsetDateTime":"2022-02-04T00:00:00+00:00"},"request":{"method":"POST","url":"Condition"}},{"fullUrl":"Condition/cd776675-322a-451c-9571-5a37992145a3","resource":{"resourceType":"Condition","id":"cd776675-322a-451c-9571-5a37992145a3","code":{"coding":[{"system":"http://snomed.info/sct","code":"198199009"}]},"subject":{"reference":"Patient/3fc5b4fd-dfe3-4dbf-9759-76fc3aa558c9"},"onsetDateTime":"2022-06-09T00:00:00+00:00"},"request":{"method":"POST","url":"Condition"}},{"fullUrl":"Condition/83868b77-33f0-4be9-a28b-a21d4130db27","resource":{"resourceType":"Condition","id":"83868b77-33f0-4be9-a28b-a21d4130db27","code":{"coding":[{"system":"http://snomed.info/sct","code":"30746006"}]},"subject":{"reference":"Patient/3fc5b4fd-dfe3-4dbf-9759-76fc3aa558c9"},"onsetDateTime":"2022-07-09T00:00:00+00:00"},"request":{"method":"POST","url":"Condition"}},{"fullUrl":"Condition/10845c9e-ef48-43e0-8e2e-237e79d7cfff","resource":{"resourceType":"Condition","id":"10845c9e-ef48-43e0-8e2e-237e79d7cfff","code":{"coding":[{"system":"http://snomed.info/sct","code":"79342006"}]},"subject":{"reference":"Patient/3fc5b4fd-dfe3-4dbf-9759-76fc3aa558c9"},"onsetDateTime":"2022-01-18T00:00:00+00:00"},"request":{"method":"POST","url":"Condition"}},{"fullUrl":"Observation/0775c500-f8e4-49d2-af1c-fcf98fd0424b","resource":{"resourceType":"Observation","id":"0775c500-f8e4-49d2-af1c-fcf98fd0424b","status":"final","code":{"coding":[{"system":"http://loinc.org","code":"6690-2"}]},"subject":{"reference":"Patient/3fc5b4fd-dfe3-4dbf-9759-76fc3aa558c9"},"effectiveDateTime":"2022-03-11T00:00:00+00:00","valueQuantity":{"value":4.7}},"request":{"method":"POST","url":"Observation"}},{"fullUrl":"Observation/42d33b27-ce07-4054-b777-be832497033e","resource":{"resourceType":"Observation","id":"42d33b27-ce07-4054-b777-be832497033e","status":"final","code":{"coding":[{"system":"http://loinc.org","code":"804-5"}]},"subject":{"reference":"Patient/3fc5b4fd-dfe3-4dbf-9759-76fc3aa558c9"},"effectiveDateTime":"2022-01-21T00:00:00+00:00","valueQuantity":{"value":6.2}},"request":{"method":"POST","url":"Observation"}},{"fullUrl":"Observation/20c6981c-8c0e-4647-9b68-1e2ec03eea98","resource":{"resourceType":"Observation","id":"20c6981c-8c0e-4647-9b68-1e2ec03eea98","status":"final","code":{"coding":[{"system":"http://loinc.org","code":"49498-9"}]},"subject":{"reference":"Patient/3fc5b4fd-dfe3-4dbf-9759-76fc3aa558c9"},"effectiveDateTime":"2022-07-22T00:00:00+00:00"},"request":{"method":"POST","url":"Observation"}},{"fullUrl":"Observation/dbe1dad6-d7d8-498c-9f5b-98b75839c9a3","resource":{"resourceType":"Observation","id":"dbe1dad6-d7d8-498c-9f5b-98b75839c9a3","status":"final","code":{"coding":[{"system":"http://loinc.org","code":"49498-9"}]},"subject":{"reference":"Patient/3fc5b4fd-dfe3-4dbf-9759-76fc3aa558c9"},"effectiveDateTime":"2022-01-15T00:00:00+00:00"},"request":{"method":"POST","url":"Observation"}},{"fullUrl":"Observation/3fa076a6-13ce-4fa5-8105-b8f07422ea18","resource":{"resourceType":"Observation","id":"3fa076a6-13ce-4fa5-8105-b8f07422ea18","status":"final","code":{"coding":[{"system":"http://loinc.org","code":"49498-9"}]},"subject":{"reference":"Patient/3fc5b4fd-dfe3-4dbf-9759-76fc3aa558c9"},"effectiveDateTime":"2022-11-09T00:00:00+00:00"},"request":{"method":"POST","url":"Observation"}},{"fullUrl":"Procedure/d0c62ea0-0599-493b-8330-6aead26047e0","resource":{"resourceType":"Procedure","id":"d0c62ea0-0599-493b-8330-6aead26047e0","status":"completed","code":{"coding":[{"system":"http://snomed.info/sct","code":"647000"}]},"subject":{"reference":"Patient/3fc5b4fd-dfe3-4dbf-9759-76fc3aa558c9"},"performedDateTime":"2022-02-15T00:00:00+00:00"},"request":{"method":"POST","url":"Procedure"}},{"fullUrl":"Procedure/4b2306aa-c225-4ebb-9da5-7ed9bbc44f28","resource":{"resourceType":"Procedure","id":"4b2306aa-c225-4ebb-9da5-7ed9bbc44f28","status":"completed","code":{"coding":[{"system":"http://snomed.info/sct","code":"115006"}]},"subject":{"reference":"Patient/3fc5b4fd-dfe3-4dbf-9759-76fc3aa558c9"},"performedDateTime":"2022-11-08T00:00:00+00:00"},"request":{"method":"POST","url":"Procedure"}},{"fullUrl":"Procedure/ca1a6b0b-b4a1-4a89-afa9-65c702ed2759","resource":{"resourceType":"Procedure","id":"ca1a6b0b-b4a1-4a89-afa9-65c702ed2759","status":"completed","code":{"coding":[{"system":"http://snomed.info/sct","code":"104001"}]},"subject":{"reference":"Patient/3fc5b4fd-dfe3-4dbf-9759-76fc3aa558c9"},"performedDateTime":"2022-12-03T00:00:00+00:00"},"request":{"method":"POST","url":"Procedure"}},{"fullUrl":"MedicationStatement/8ec80b57-a5d2-475b-928d-074c2aa86e8a","resource":{"resourceType":"MedicationStatement","id":"8ec80b57-a5d2-475b-928d-074c2aa86e8a","status":"completed","medicationCodeableConcept":{"coding":[{"system":"http://www.nlm.nih.gov/research/umls/rxnorm","code":"18631"}]},"subject":{"reference":"Patient/3fc5b4fd-dfe3-4dbf-9759-76fc3aa558c9"},"effectiveDateTime":"2022-08-16T00:00:00+00:00","dosage":[{"doseAndRate":[{"doseQuantity":{"value":2,"unit":"TAB","system":"http://terminology.hl7.org/CodeSystem/v3-orderableDrugForm","code":"TAB"}}]}]},"request":{"method":"POST","url":"MedicationStatement"}},{"fullUrl":"MedicationStatement/f25bceb0-eef7-4893-8d2f-5aa18bb04740","resource":{"resourceType":"MedicationStatement","id":"f25bceb0-eef7-4893-8d2f-5aa18bb04740","status":"completed","medicationCodeableConcept":{"coding":[{"system":"http://www.nlm.nih.gov/research/umls/rxnorm","code":"18631"}]},"subject":{"reference":"Patient/3fc5b4fd-dfe3-4dbf-9759-76fc3aa558c9"},"effectiveDateTime":"2022-04-12T00:00:00+00:00","dosage":[{"doseAndRate":[{"doseQuantity":{"value":2,"unit":"TAB","system":"http://terminology.hl7.org/CodeSystem/v3-orderableDrugForm","code":"TAB"}}]}]},"request":{"method":"POST","url":"MedicationStatement"}},{"fullUrl":"MedicationStatement/41bac3d8-72d1-4535-a97e-1cc025a8c4e3","resource":{"resourceType":"MedicationStatement","id":"41bac3d8-72d1-4535-a97e-1cc025a8c4e3","status":"completed","medicationCodeableConcept":{"coding":[{"system":"http://www.nlm.nih.gov/research/umls/rxnorm","code":"2193"}]},"subject":{"reference":"Patient/3fc5b4fd-dfe3-4dbf-9759-76fc3aa558c9"},"effectiveDateTime":"2022-09-03T00:00:00+00:00","dosage":[{"doseAndRate":[{"doseQuantity":{"value":2,"unit":"TAB","system":"http://terminology.hl7.org/CodeSystem/v3-orderableDrugForm","code":"TAB"}}]}]},"request":{"method":"POST","url":"MedicationStatement"}},{"fullUrl":"MedicationStatement/8a78f314-0a68-43fb-9c99-2c0f0b4ff6ed","resource":{"resourceType":"MedicationStatement","id":"8a78f314-0a68-43fb-9c99-2c0f0b4ff6ed","status":"completed","medicationCodeableConcept":{"coding":[{"system":"http://www.nlm.nih.gov/research/umls/rxnorm","code":"2193"}]},"subject":{"reference":"Patient/3fc5b4fd-dfe3-4dbf-9759-76fc3aa558c9"},"effectiveDateTime":"2022-06-10T00:00:00+00:00","dosage":[{"doseAndRate":[{"doseQuantity":{"value":3,"unit":"TAB","system":"http://terminology.hl7.org/CodeSystem/v3-orderableDrugForm","code":"TAB"}}]}]},"request":{"method":"POST","url":"MedicationStatement"}},{"fullUrl":"MedicationStatement/633fd64c-94f4-4dec-9f98-b1de1025c3e6","resource":{"resourceType":"MedicationStatement","id":"633fd64c-94f4-4dec-9f98-b1de1025c3e6","status":"completed","medicationCodeableConcept":{"coding":[{"system":"http://www.nlm.nih.gov/research/umls/rxnorm","code":"7980"}]},"subject":{"reference":"Patient/3fc5b4fd-dfe3-4dbf-9759-76fc3aa558c9"},"effectiveDateTime":"2022-09-22T00:00:00+00:00","dosage":[{"doseAndRate":[{"doseQuantity":{"value":3.6,"unit":"TAB","system":"http://terminology.hl7.org/CodeSystem/v3-orderableDrugForm","code":"TAB"}}]}]},"request":{"method":"POST","url":"MedicationStatement"}},{"fullUrl":"MedicationStatement/4a1eb012-b6c1-4fe9-b7bb-c1496e27fc06","resource":{"resourceType":"MedicationStatement","id":"4a1eb012-b6c1-4fe9-b7bb-c1496e27fc06","status":"completed","medicationCodeableConcept":{"coding":[{"system":"http://www.nlm.nih.gov/research/umls/rxnorm","code":"18631"}]},"subject":{"reference":"Patient/3fc5b4fd-dfe3-4dbf-9759-76fc3aa558c9"},"effectiveDateTime":"2022-01-17T00:00:00+00:00","dosage":[{"doseAndRate":[{"doseQuantity":{"value":6.8,"unit":"TAB","system":"http://terminology.hl7.org/CodeSystem/v3-orderableDrugForm","code":"TAB"}}]}]},"request":{"method":"POST","url":"MedicationStatement"}},{"fullUrl":"MedicationStatement/8e92e6e6-0b8c-4226-8d0d-bf4e120563b4","resource":{"resourceType":"MedicationStatement","id":"8e92e6e6-0b8c-4226-8d0d-bf4e120563b4","status":"completed","medicationCodeableConcept":{"coding":[{"system":"http://www.nlm.nih.gov/research/umls/rxnorm","code":"7984"}]},"subject":{"reference":"Patient/3fc5b4fd-dfe3-4dbf-9759-76fc3aa558c9"},"effectiveDateTime":"2022-04-29T00:00:00+00:00","dosage":[{"doseAndRate":[{"doseQuantity":{"value":3.7,"unit":"TAB","system":"http://terminology.hl7.org/CodeSystem/v3-orderableDrugForm","code":"TAB"}}]}]},"request":{"method":"POST","url":"MedicationStatement"}},{"fullUrl":"Encounter/f4cf2f2e-3434-4e3c-9352-185c79320c72","resource":{"resourceType":"Encounter","id":"f4cf2f2e-3434-4e3c-9352-185c79320c72","status":"finished","class":{"system":"http://terminology.hl7.org/CodeSystem/v3-ActCode","code":"IMP","display":"inpatient encounter"},"type":[{"coding":[{"system":"http://terminology.hl7.org/CodeSystem/encounter-type","code":"OKI"}]}],"subject":{"reference":"Patient/3fc5b4fd-dfe3-4dbf-9759-76fc3aa558c9"},"period":{"start":"2022-04-08T00:00:00+00:00","end":"2022-04-12T00:00:00+00:00"}},"request":{"method":"POST","url":"Encounter"}},{"fullUrl":"Encounter/92127b96-0694-415f-9462-29d3adefc810","resource":{"resourceType":"Encounter","id":"92127b96-0694-415f-9462-29d3adefc810","status":"finished","class":{"system":"http://terminology.hl7.org/CodeSystem/v3-ActCode","code":"IMP","display":"inpatient encounter"},"type":[{"coding":[{"system":"http://terminology.hl7.org/CodeSystem/encounter-type","code":"OKI"}]}],"subject":{"reference":"Patient/3fc5b4fd-dfe3-4dbf-9759-76fc3aa558c9"},"period":{"start":"2022-08-29T00:00:00+00:00","end":"2022-08-31T00:00:00+00:00"}},"request":{"method":"POST","url":"Encounter"}},{"fullUrl":"Encounter/c6b62466-a08a-4038-b887-31fe854aa09c","resource":{"resourceType":"Encounter","id":"c6b62466-a08a-4038-b887-31fe854aa09c","status":"finished","class":{"system":"http://terminology.hl7.org/CodeSystem/v3-ActCode","code":"IMP","display":"inpatient encounter"},"type":[{"coding":[{"system":"http://terminology.hl7.org/CodeSystem/encounter-type","code":"ADMS"}]}],"subject":{"reference":"Patient/3fc5b4fd-dfe3-4dbf-9759-76fc3aa558c9"},"period":{"start":"2022-07-21T00:00:00+00:00","end":"2022-07-27T00:00:00+00:00"}},"request":{"method":"POST","url":"Encounter"}},{"fullUrl":"Encounter/7ae8f396-23d9-40a6-ab6f-8a5de4636dae","resource":{"resourceType":"Encounter","id":"7ae8f396-23d9-40a6-ab6f-8a5de4636dae","status":"finished","class":{"system":"http://terminology.hl7.org/CodeSystem/v3-ActCode","code":"AMB","display":"ambulatory"},"type":[{"coding":[{"system":"http://terminology.hl7.org/CodeSystem/encounter-type","code":"OKI"}]}],"subject":{"reference":"Patient/3fc5b4fd-dfe3-4dbf-9759-76fc3aa558c9"},"period":{"start":"2022-11-01T00:00:00+00:00","end":"2022-11-04T00:00:00+00:00"}},"request":{"method":"POST","url":"Encounter"}},{"fullUrl":"Encounter/a7f7cff3-2104-41d7-9127-8c23e94d1a76","resource":{"resourceType":"Encounter","id":"a7f7cff3-2104-41d7-9127-8c23e94d1a76","status":"finished","class":{"system":"http://terminology.hl7.org/CodeSystem/v3-ActCode","code":"ACUTE","display":"inpatient acute"},"type":[{"coding":[{"system":"http://terminology.hl7.org/CodeSystem/encounter-type","code":"OKI"}]}],"subject":{"reference":"Patient/3fc5b4fd-dfe3-4dbf-9759-76fc3aa558c9"},"period":{"start":"2022-12-27T00:00:00+00:00","end":"2023-01-02T00:00:00+00:00"}},"request":{"method":"POST","url":"Encounter"}},{"fullUrl":"Encounter/177c229e-2804-4e63-9995-a418c7f0fab4","resource":{"resourceType":"Encounter","id":"177c229e-2804-4e63-9995-a418c7f0fab4","status":"finished","class":{"system":"http://terminology.hl7.org/CodeSystem/v3-ActCode","code":"VR","display":"virtual"},"type":[{"coding":[{"system":"http://terminology.hl7.org/CodeSystem/encounter-type","code":"CCS60"}]}],"subject":{"reference":"Patient/3fc5b4fd-dfe3-4dbf-9759-76fc3aa558c9"},"period":{"start":"2022-02-26T00:00:00+00:00","end":"2022-02-26T00:00:00+00:00"}},"request":{"method":"POST","url":"Encounter"}},{"fullUrl":"Patient/705f5b00-9be1-41b4-aae0-e98dee1821b5","resource":{"resourceType":"Patient","id":"705f5b00-9be1-41b4-aae0-e98dee1821b5","identifier":[{"type":{"coding":[{"system":"http://terminology.hl7.org/CodeSystem/v2-0203","code":"MR"}]},"system":"urn:fhirgen:mrn","value":"616-45-5276"}],"name":[{"use":"official","family":"Berg","given":["Brittany"]},{"use":"maiden","family":"Walters"}],"telecom":[{"system":"phone","value":"439-355-3042","use":"work"},{"system":"email","value":"xrichardson@gmail.com","use":"work"}],"gender":"other","birthDate":"1956-06-23","address":[{"use":"home","line":["09166 Cathy Shoals"],"city":"East Douglasbury","state":"WY","postalCode":"40475"},{"use":"old","line":["4272 Allison Ferry Suite 639"],"city":"Delacruzton","state":"NE","postalCode":"84923"}]},"request":{"method":"POST","url":"Patient"}},{"fullUrl":"Observation/7c24ec43-7d24-427c-bfcf-7ced7c48eaaa","resource":{"resourceType":"Observation","id":"7c24ec43-7d24-427c-bfcf-7ced7c48eaaa","status":"final","code":{"coding":[{"system":"http://loinc.org","code":"71793-4"}]},"subject":{"reference":"Patient/705f5b00-9be1-41b4-aae0-e98dee1821b5"},"effectiveDateTime":"2022-08-31T00:00:00+00:00","valueRatio":{"numerator":{"value":1},"denominator":{"value":4}}},"request":{"method":"POST","url":"Observation"}},{"fullUrl":"Observation/7965fe48-df0c-4c2c-ba22-198726808f7d","resource":{"resourceType":"Observation","id":"7965fe48-df0c-4c2c-ba22-198726808f7d","status":"final","code":{"coding":[{"system":"http://loinc.org","code":"50695-6"}]},"subject":{"reference":"Patient/705f5b00-9be1-41b4-aae0-e98dee1821b5"},"effectiveDateTime":"2022-06-28T00:00:00+00:00","valueRatio":{"numerator":{"value":1},"denominator":{"value":32}}},"request":{"method":"POST","url":"Observation"}},{"fullUrl":"Condition/28f78024-a6f3-401d-9bf4-9d3cdedc8f2d","resource":{"resourceType":"Condition","id":"28f78024-a6f3-401d-9bf4-9d3cdedc8f2d","code":{"coding":[{"system":"http://snomed.info/sct","code":"44882003"}]},"subject":{"reference":"Patient/705f5b00-9be1-41b4-aae0-e98dee1821b5"},"onsetDateTime":"2022-08-19T00:00:00+00:00"},"request":{"method":"POST","url":"Condition"}},{"fullUrl":"Condition/7fbdcb82-20b5-4a22-a086-4c57b5942ae9","resource":{"resourceType":"Condition","id":"7fbdcb82-20b5-4a22-a086-4c57b5942ae9","code":{"coding":[{"system":"http://snomed.info/sct","code":"405737000"}]},"subject":{"reference":"Patient/705f5b00-9be1-41b4-aae0-e98dee1821b5"},"onsetDateTime":"2022-11-10T00:00:00+00:00"},"request":{"method":"POST","url":"Condition"}},{"fullUrl":"Condition/3c123ccb-5586-4e88-b8ba-d4772bc13625","resource":{"resourceType":"Condition","id":"3c123ccb-5586-4e88-b8ba-d4772bc13625","code":{"coding":[{"system":"http://snomed.info/sct","code":"3951002"}]},"subject":{"reference":"Patient/705f5b00-9be1-41b4-aae0-e98dee1821b5"},"onsetDateTime":"2022-09-23T00:00:00+00:00"},"request":{"method":"POST","url":"Condition"}},{"fullUrl":"Condition/6f273271-602e-4652-b129-e85478c83aa1","resource":{"resourceType":"Condition","id":"6f273271-602e-4652-b129-e85478c83aa1","code":{"coding":[{"system":"http://snomed.info/sct","code":"271807003"}]},"subject":{"reference":"Patient/705f5b00-9be1-41b4-aae0-e98dee1821b5"},"onsetDateTime":"2022-03-05T00:00:00+00:00"},"request":{"method":"POST","url":"Condition"}},{"fullUrl":"Condition/8f6dff3b-1eab-490b-9fdf-acd5ba5d001a","resource":{"resourceType":"Condition","id":"8f6dff3b-1eab-490b-9fdf-acd5ba5d001a","code":{"coding":[{"system":"http://snomed.info/sct","code":"418290006"}]},"subject":{"reference":"Patient/705f5b00-9be1-41b4-aae0-e98dee1821b5"},"onsetDateTime":"2022-02-27T00:00:00+00:00"},"request":{"method":"POST","url":"Condition"}},{"fullUrl":"Condition/e8a4f97a-499c-485a-9f5c-30e186d0a10b","resource":{"resourceType":"Condition","id":"e8a4f97a-499c-485a-9f5c-30e186d0a10b","code":{"coding":[{"system":"http://snomed.info/sct","code":"18165001"}]},"subject":{"reference":"Patient/705f5b00-9be1-41b4-aae0-e98dee1821b5"},"onsetDateTime":"2022-10-16T00:00:00+00:00"},"request":{"method":"POST","url":"Condition"}},{"fullUrl":"Observation/7de626c7-98ba-420e-a5d0-66d251c964d1","resource":{"resourceType":"Observation","id":"7de626c7-98ba-420e-a5d0-66d251c964d1","status":"final","code":{"coding":[{"system":"http://loinc.org","code":"6690-2"}]},"subject":{"reference":"Patient/705f5b00-9be1-41b4-aae0-e98dee1821b5"},"effectiveDateTime":"2022-06-17T00:00:00+00:00","valueQuantity":{"value":5.4}},"request":{"method":"POST","url":"Observation"}},{"fullUrl":"Observation/6a3bf6be-dd24-47b2-b37b-fdc712c2b2bd","resource":{"resourceType":"Observation","id":"6a3bf6be-dd24-47b2-b37b-fdc712c2b2bd","status":"final","code":{"coding":[{"system":"http://loinc.org","code":"49498-9"}]},"subject":{"reference":"Patient/705f5b00-9be1-41b4-aae0-e98dee1821b5"},"effectiveDateTime":"2022-05-27T00:00:00+00:00","valueQuantity":{"value":6.8}},"request":{"method":"POST","url":"Observation"}},{"fullUrl":"Observation/6b79dc47-5556-4c60-acc8-d09751152c1f","resource":{"resourceType":"Observation","id":"6b79dc47-5556-4c60-acc8-d09751152c1f","status":"final","code":{"coding":[{"system":"http://loinc.org","code":"49498-9"}]},"subject":{"reference":"Patient/705f5b00-9be1-41b4-aae0-e98dee1821b5"},"effectiveDateTime":"2022-05-29T00:00:00+00:00"},"request":{"method":"POST","url":"Observation"}},{"fullUrl":"Observation/215fdc9c-877f-46fc-8578-083b94df4c6e","resource":{"resourceType":"Observation","id":"215fdc9c-877f-46fc-8578-083b94df4c6e","status":"final","code":{"coding":[{"system":"http://loinc.org","code":"49498-9"}]},"subject":{"reference":"Patient/705f5b00-9be1-41b4-aae0-e98dee1821b5"},"effectiveDateTime":"2022-04-18T00:00:00+00:00"},"request":{"method":"POST","url":"Observation"}},{"fullUrl":"Procedure/eb37eec0-d26c-49ad-a751-b808004cdc6e","resource":{"resourceType":"Procedure","id":"eb37eec0-d26c-49ad-a751-b808004cdc6e","status":"completed","code":{"coding":[{"system":"http://snomed.info/sct","code":"647000"}]},"subject":{"reference":"Patient/705f5b00-9be1-41b4-aae0-e98dee1821b5"},"performedDateTime":"2022-05-20T00:00:00+00:00"},"request":{"method":"POST","url":"Procedure"}},{"fullUrl":"Procedure/55f3236d-2b34-46f2-82ab-dc541d6fd9b7","resource":{"resourceType":"Procedure","id":"55f3236d-2b34-46f2-82ab-dc541d6fd9b7","status":"completed","code":{"coding":[{"system":"http://snomed.info/sct","code":"104001"}]},"subject":{"reference":"Patient/705f5b00-9be1-41b4-aae0-e98dee1821b5"},"performedDateTime":"2022-05-29T00:00:00+00:00"},"request":{"method":"POST","url":"Procedure"}},{"fullUrl":"Procedure/e9b6f3d9-1690-414a-a0e9-7afd207a31c8","resource":{"resourceType":"Procedure","id":"e9b6f3d9-1690-414a-a0e9-7afd207a31c8","status":"completed","code":{"coding":[{"system":"http://snomed.info/sct","code":"115006"}]},"subject":{"reference":"Patient/705f5b00-9be1-41b4-aae0-e98dee1821b5"},"performedDateTime":"2022-01-18T00:00:00+00:00"},"request":{"method":"POST","url":"Procedure"}},{"fullUrl":"MedicationStatement/c0091402-3701-4ae7-bf1f-1ba1a5f08e11","resource":{"resourceType":"MedicationStatement","id":"c0091402-3701-4ae7-bf1f-1ba1a5f08e11","status":"completed","medicationCodeableConcept":{"coding":[{"system":"http://www.nlm.nih.gov/research/umls/rxnorm","code":"3640"}]},"subject":{"reference":"Patient/705f5b00-9be1-41b4-aae0-e98dee1821b5"},"effectiveDateTime":"2022-02-26T00:00:00+00:00","dosage":[{"doseAndRate":[{"doseQuantity":{"value":1,"unit":"TAB","system":"http://terminology.hl7.org/CodeSystem/v3-orderableDrugForm","code":"TAB"}}]}]},"request":{"method":"POST","url":"MedicationStatement"}},{"fullUrl":"MedicationStatement/a95ae721-d71c-4f60-95a7-7ac72cabf679","resource":{"resourceType":"MedicationStatement","id":"a95ae721-d71c-4f60-95a7-7ac72cabf679","status":"completed","medicationCodeableConcept":{"coding":[{"system":"http://www.nlm.nih.gov/research/umls/rxnorm","code":"3640"}]},"subject":{"reference":"Patient/705f5b00-9be1-41b4-aae0-e98dee1821b5"},"effectiveDateTime":"2022-05-15T00:00:00+00:00","dosage":[{"doseAndRate":[{"doseQuantity":{"value":2,"unit":"TAB","system":"http://terminology.hl7.org/CodeSystem/v3-orderableDrugForm","code":"TAB"}}]}]},"request":{"method":"POST","url":"MedicationStatement"}},{"fullUrl":"MedicationStatement/f5e3cebc-b813-4930-8c40-74a293ebb7a3","resource":{"resourceType":"MedicationStatement","id":"f5e3cebc-b813-4930-8c40-74a293ebb7a3","status":"completed","medicationCodeableConcept":{"coding":[{"system":"http://www.nlm.nih.gov/research/umls/rxnorm","code":"18631"}]},"subject":{"reference":"Patient/705f5b00-9be1-41b4-aae0-e98dee1821b5"},"effectiveDateTime":"2022-04-10T00:00:00+00:00","dosage":[{"doseAndRate":[{"doseQuantity":{"value":1,"unit":"TAB","system":"http://terminology.hl7.org/CodeSystem/v3-orderableDrugForm","code":"TAB"}}]}]},"request":{"method":"POST","url":"MedicationStatement"}},{"fullUrl":"MedicationStatement/7db7b869-3282-4aa9-95f2-3b92d33f28b5","resource":{"resourceType":"MedicationStatement","id":"7db7b869-3282-4aa9-95f2-3b92d33f28b5","status":"completed","medicationCodeableConcept":{"coding":[{"system":"http://www.nlm.nih.gov/research/umls/rxnorm","code":"7984"}]},"subject":{"reference":"Patient/705f5b00-9be1-41b4-aae0-e98dee1821b5"},"effectiveDateTime":"2022-11-23T00:00:00+00:00","dosage":[{"doseAndRate":[{"doseQuantity":{"value":2,"unit":"TAB","system":"http://terminology.hl7.org/CodeSystem/v3-orderableDrugForm","code":"TAB"}}]}]},"request":{"method":"POST","url":"MedicationStatement"}},{"fullUrl":"MedicationStatement/827eb389-c8c2-45b7-8e72-b85e050ea38b","resource":{"resourceType":"MedicationStatement","id":"827eb389-c8c2-45b7-8e72-b85e050ea38b","status":"completed","medicationCodeableConcept":{"coding":[{"system":"http://www.nlm.nih.gov/research/umls/rxnorm","code":"7984"}]},"subject":{"reference":"Patient/705f5b00-9be1-41b4-aae0-e98dee1821b5"},"effectiveDateTime":"2022-04-30T00:00:00+00:00","dosage":[{"doseAndRate":[{"doseQuantity":{"value":1,"unit":"TAB","system":"http://terminology.hl7.org/CodeSystem/v3-orderableDrugForm","code":"TAB"}}]}]},"request":{"method":"POST","url":"MedicationStatement"}},{"fullUrl":"MedicationStatement/33896fa3-4c66-4848-93f7-3b0e293923c2","resource":{"resourceType":"MedicationStatement","id":"33896fa3-4c66-4848-93f7-3b0e293923c2","status":"completed","medicationCodeableConcept":{"coding":[{"system":"http://www.nlm.nih.gov/research/umls/rxnorm","code":"18631"}]},"subject":{"reference":"Patient/705f5b00-9be1-41b4-aae0-e98dee1821b5"},"effectiveDateTime":"2022-07-30T00:00:00+00:00","dosage":[{"doseAndRate":[{"doseQuantity":{"value":4.1,"unit":"TAB","system":"http://terminology.hl7.org/CodeSystem/v3-orderableDrugForm","code":"TAB"}}]}]},"request":{"method":"POST","url":"MedicationStatement"}},{"fullUrl":"MedicationStatement/cb52c2e8-534d-4b58-94c2-6e81aa7472e8","resource":{"resourceType":"MedicationStatement","id":"cb52c2e8-534d-4b58-94c2-6e81aa7472e8","status":"completed","medicationCodeableConcept":{"coding":[{"system":"http://www.nlm.nih.gov/research/umls/rxnorm","code":"10395"}]},"subject":{"reference":"Patient/705f5b00-9be1-41b4-aae0-e98dee1821b5"},"effectiveDateTime":"2022-11-19T00:00:00+00:00","dosage":[{"doseAndRate":[{"doseQuantity":{"value":4.6,"unit":"TAB","system":"http://terminology.hl7.org/CodeSystem/v3-orderableDrugForm","code":"TAB"}}]}]},"request":{"method":"POST","url":"MedicationStatement"}},{"fullUrl":"MedicationStatement/9bf72c55-3f35-4eed-9fda-be76c641b0fd","resource":{"resourceType":"MedicationStatement","id":"9bf72c55-3f35-4eed-9fda-be76c641b0fd","status":"completed","medicationCodeableConcept":{"coding":[{"system":"http://www.nlm.nih.gov/research/umls/rxnorm","code":"2193"}]},"subject":{"reference":"Patient/705f5b00-9be1-41b4-aae0-e98dee1821b5"},"effectiveDateTime":"2022-12-26T00:00:00+00:00","dosage":[{"doseAndRate":[{"doseQuantity":{"value":5.1,"unit":"TAB","system":"http://terminology.hl7.org/CodeSystem/v3-orderableDrugForm","code":"TAB"}}]}]},"request":{"method":"POST","url":"MedicationStatement"}},{"fullUrl":"MedicationStatement/f76b52f6-ebc1-4541-9ac1-45853a1b9ce7","resource":{"resourceType":"MedicationStatement","id":"f76b52f6-ebc1-4541-9ac1-45853a1b9ce7","status":"completed","medicationCodeableConcept":{"coding":[{"system":"http://www.nlm.nih.gov/research/umls/rxnorm","code":"7984"}]},"subject":{"reference":"Patient/705f5b00-9be1-41b4-aae0-e98dee1821b5"},"effectiveDateTime":"2022-08-09T00:00:00+00:00","dosage":[{"doseAndRate":[{"doseQuantity":{"value":6.9,"unit":"TAB","system":"http://terminology.hl7.org/CodeSystem/v3-orderableDrugForm","code":"TAB"}}]}]},"request":{"method":"POST","url":"MedicationStatement"}},{"fullUrl":"MedicationStatement/d937bd41-45fe-4a56-80f5-0af66a74199d","resource":{"resourceType":"MedicationStatement","id":"d937bd41-45fe-4a56-80f5-0af66a74199d","status":"completed","medicationCodeableConcept":{"coding":[{"system":"http://www.nlm.nih.gov/research/umls/rxnorm","code":"2193"}]},"subject":{"reference":"Patient/705f5b00-9be1-41b4-aae0-e98dee1821b5"},"effectiveDateTime":"2022-03-21T00:00:00+00:00","dosage":[{"doseAndRate":[{"doseQuantity":{"value":3.6,"unit":"TAB","system":"http://terminology.hl7.org/CodeSystem/v3-orderableDrugForm","code":"TAB"}}]}]},"request":{"method":"POST","url":"MedicationStatement"}},{"fullUrl":"MedicationStatement/89881245-2e34-4273-a71c-25e58902e4fc","resource":{"resourceType":"MedicationStatement","id":"89881245-2e34-4273-a71c-25e58902e4fc","status":"completed","medicationCodeableConcept":{"coding":[{"system":"http://www.nlm.nih.gov/research/umls/rxnorm","code":"8698"}]},"subject":{"reference":"Patient/705f5b00-9be1-41b4-aae0-e98dee1821b5"},"effectiveDateTime":"2022-12-27T00:00:00+00:00","dosage":[{"doseAndRate":[{"doseQuantity":{"value":5.8,"unit":"TAB","system":"http://terminology.hl7.org/CodeSystem/v3-orderableDrugForm","code":"TAB"}}]}]},"request":{"method":"POST","url":"MedicationStatement"}},{"fullUrl":"Encounter/1094bcfb-1b1f-4e8f-8b71-87a6f413390c","resource":{"resourceType":"Encounter","id":"1094bcfb-1b1f-4e8f-8b71-87a6f413390c","status":"finished","class":{"system":"http://terminology.hl7.org/CodeSystem/v3-ActCode","code":"IMP","display":"inpatient encounter"},"type":[{"coding":[{"system":"http://terminology.hl7.org/CodeSystem/encounter-type","code":"CCS60"}]}],"subject":{"reference":"Patient/705f5b00-9be1-41b4-aae0-e98dee1821b5"},"period":{"start":"2022-06-11T00:00:00+00:00","end":"2022-06-20T00:00:00+00:00"}},"request":{"method":"POST","url":"Encounter"}},{"fullUrl":"Encounter/c5cec8ab-294c-489b-9a77-157317ab0b68","resource":{"resourceType":"Encounter","id":"c5cec8ab-294c-489b-9a77-157317ab0b68","status":"finished","class":{"system":"http://terminology.hl7.org/CodeSystem/v3-ActCode","code":"IMP","display":"inpatient encounter"},"type":[{"coding":[{"system":"http://terminology.hl7.org/CodeSystem/encounter-type","code":"OKI"}]}],"subject":{"reference":"Patient/705f5b00-9be1-41b4-aae0-e98dee1821b5"},"period":{"start":"2022-03-16T00:00:00+00:00","end":"2022-03-18T00:00:00+00:00"}},"request":{"method":"POST","url":"Encounter"}},{"fullUrl":"Encounter/1949b006-4b55-40e0-9250-436ed58d5d1a","resource":{"resourceType":"Encounter","id":"1949b006-4b55-40e0-9250-436ed58d5d1a","status":"finished","class":{"system":"http://terminology.hl7.org/CodeSystem/v3-ActCode","code":"EMER","display":"emergency"},"type":[{"coding":[{"system":"http://terminology.hl7.org/CodeSystem/encounter-type","code":"BD/BM-clin"}]}],"subject":{"reference":"Patient/705f5b00-9be1-41b4-aae0-e98dee1821b5"},"period":{"start":"2022-02-22T00:00:00+00:00","end":"2022-03-03T00:00:00+00:00"}},"request":{"method":"POST","url":"Encounter"}},{"fullUrl":"Encounter/45097cac-af5f-4852-ac3b-c78fd338f2dc","resource":{"resourceType":"Encounter","id":"45097cac-af5f-4852-ac3b-c78fd338f2dc","status":"finished","class":{"system":"http://terminology.hl7.org/CodeSystem/v3-ActCode","code":"SS","display":"short-stay"},"type":[{"coding":[{"system":"http://terminology.hl7.org/CodeSystem/encounter-type","code":"BD/BM-clin"}]}],"subject":{"reference":"Patient/705f5b00-9be1-41b4-aae0-e98dee1821b5"},"period":{"start":"2022-11-21T00:00:00+00:00","end":"2022-11-30T00:00:00+00:00"}},"request":{"method":"POST","url":"Encounter"}}]}