{"resourceType":"Bundle","id":"ea280fb2-c55e-4be2-ab2e-ca4ac58a4994","type":"transaction","entry":[{"fullUrl":"Patient/da95a67c-9bb7-41ae-8588-f4c6182d647e","resource":{"resourceType":"Patient","id":"da95a67c-9bb7-41ae-8588-f4c6182d647e","identifier":[{"type":{"coding":[{"system":"http://terminology.hl7.org/CodeSystem/v2-0203","code":"MR"}]},"system":"urn:fhirgen:mrn","value":"267-05-3010"},{"system":"http://hl7.org/fhir/sid/us-ssn","value":"228-15-0716"}],"name":[{"use":"official","family":"Sosa","given":["Daniel"]},{"use":"maiden","family":"Garcia"}],"telecom":[{"system":"phone","value":"546.010.2508x1997","use":"home"},{"system":"email","value":"gcopeland@gmail.com","use":"mobile"}],"gender":"male","birthDate":"1948-03-27","address":[{"use":"home","line":["53527 Carl Spring"],"city":"Port Jerrychester","state":"MN","postalCode":"64196"},{"use":"old","line":["3520 Teresa Cove"],"city":"Lake James","state":"MT","postalCode":"79777"}],"maritalStatus":{"coding":[{"system":"http://terminology.hl7.org/CodeSystem/v3-MaritalStatus","code":"T","display":"Domestic partner"}]}},"request":{"method":"POST","url":"Patient"}},{"fullUrl":"Observation/2f8e968e-b2ab-4d56-98c4-a227223f7f64","resource":{"resourceType":"Observation","id":"2f8e968e-b2ab-4d56-98c4-a227223f7f64","status":"final","code":{"coding":[{"system":"http://loinc.org","code":"5394-2"}]},"subject":{"reference":"Patient/da95a67c-9bb7-41ae-8588-f4c6182d647e"},"effectiveDateTime":"2022-02-12T00:00:00+00:00","valueRatio":{"numerator":{"value":1},"denominator":{"value":64}}},"request":{"method":"POST","url":"Observation"}},{"fullUrl":"Observation/02dd925f-9476-4eed-92e4-da4ff24b9e97","resource":{"resourceType":"Observation","id":"02dd925f-9476-4eed-92e4-da4ff24b9e97","status":"final","code":{"coding":[{"system":"http://loinc.org","code":"34382-2"}]},"subject":{"reference":"Patient/da95a67c-9bb7-41ae-8588-f4c6182d647e"},"effectiveDateTime":"2022-12-18T00:00:00+00:00","valueRatio":{"numerator":{"value":1},"denominator":{"value":64}}},"request":{"method":"POST","url":"Observation"}},{"fullUrl":"Condition/d4071dd7-25f1-4181-8484-f882869c0c96","resource":{"resourceType":"Condition","id":"d4071dd7-25f1-4181-8484-f882869c0c96","code":{"coding":[{"system":"http://snomed.info/sct","code":"21522001"}]},"subject":{"reference":"Patient/da95a67c-9bb7-41ae-8588-f4c6182d647e"},"onsetDateTime":"2022-05-22T00:00:00+00:00"},"request":{"method":"POST","url":"Condition"}},{"fullUrl":"Condition/546ee984-514c-417b-b163-ec4741e237d4","resource":{"resourceType":"Condition","id":"546ee984-514c-417b-b163-ec4741e237d4","code":{"coding":[{"system":"http://snomed.info/sct","code":"709977002"}]},"subject":{"reference":"Patient/da95a67c-9bb7-41ae-8588-f4c6182d647e"},"onsetDateTime":"2022-12-01T00:00:00+00:00"},"request":{"method":"POST","url":"Condition"}},{"fullUrl":"Condition/50c8f432-9bac-41f9-9385-b9119d83a755","resource":{"resourceType":"Condition","id":"50c8f432-9bac-41f9-9385-b9119d83a755","code":{"coding":[{"system":"http://snomed.info/sct","code":"709977002"}]},"subject":{"reference":"Patient/da95a67c-9bb7-41ae-8588-f4c6182d647e"},"onsetDateTime":"2022-02-13T00:00:00+00:00"},"request":{"method":"POST","url":"Condition"}},{"fullUrl":"Condition/e448c3bb-c35c-4ca6-9690-ddd1505b9f42","resource":{"resourceType":"Condition","id":"e448c3bb-c35c-4ca6-9690-ddd1505b9f42","code":{"coding":[{"system":"http://snomed.info/sct","code":"297123002"}]},"subject":{"reference":"Patient/da95a67c-9bb7-41ae-8588-f4c6182d647e"},"onsetDateTime":"2022-02-06T00:00:00+00:00"},"request":{"method":"POST","url":"Condition"}},{"fullUrl":"Condition/25a83e84-62d8-49b0-b081-4c0162ce7bd8","resource":{"resourceType":"Condition","id":"25a83e84-62d8-49b0-b081-4c0162ce7bd8","code":{"coding":[{"system":"http://snomed.info/sct","code":"3951002"}]},"subject":{"reference":"Patient/da95a67c-9bb7-41ae-8588-f4c6182d647e"},"onsetDateTime":"2022-07-09T00:00:00+00:00"},"request":{"method":"POST","url":"Condition"}},{"fullUrl":"Condition/bf7ca78c-0542-4cd8-9b78-012dda3439e8","resource":{"resourceType":"Condition","id":"bf7ca78c-0542-4cd8-9b78-012dda3439e8","code":{"coding":[{"system":"http://snomed.info/sct","code":"71315007"}]},"subject":{"reference":"Patient/da95a67c-9bb7-41ae-8588-f4c6182d647e"},"onsetDateTime":"2022-07-25T00:00:00+00:00"},"request":{"method":"POST","url":"Condition"}},{"fullUrl":"Condition/f378f2bf-b8b9-4432-9f5c-ab847a84eed9","resource":{"resourceType":"Condition","id":"f378f2bf-b8b9-4432-9f5c-ab847a84eed9","code":{"coding":[{"system":"http://snomed.info/sct","code":"418290006"}]},"subject":{"reference":"Patient/da95a67c-9bb7-41ae-8588-f4c6182d647e"},"onsetDateTime":"2022-12-01T00:00:00+00:00"},"request":{"method":"POST","url":"Condition"}},{"fullUrl":"Condition/9c74626e-f74c-4df4-8fe6-43498e197b7e","resource":{"resourceType":"Condition","id":"9c74626e-f74c-4df4-8fe6-43498e197b7e","code":{"coding":[{"system":"http://snomed.info/sct","code":"248980004"}]},"subject":{"reference":"Patient/da95a67c-9bb7-41ae-8588-f4c6182d647e"},"onsetDateTime":"2022-01-14T00:00:00+00:00"},"request":{"method":"POST","url":"Condition"}},{"fullUrl":"Observation/b0b325ae-5053-40a2-9907-cc4ea75674aa","resource":{"resourceType":"Observation","id":"b0b325ae-5053-40a2-9907-cc4ea75674aa","status":"final","code":{"coding":[{"system":"http://loinc.org","code":"804-5"}]},"subject":{"reference":"Patient/da95a67c-9bb7-41ae-8588-f4c6182d647e"},"effectiveDateTime":"2022-01-14T00:00:00+00:00","valueQuantity":{"value":8.8}},"request":{"method":"POST","url":"Observation"}},{"fullUrl":"Observation/b3f799a4-f8c2-430c-9729-a776109133be","resource":{"resourceType":"Observation","id":"b3f799a4-f8c2-430c-9729-a776109133be","status":"final","code":{"coding":[{"system":"http://loinc.org","code":"26464-8"}]},"subject":{"reference":"Patient/da95a67c-9bb7-41ae-8588-f4c6182d647e"},"effectiveDateTime":"2022-11-17T00:00:00+00:00","valueQuantity":{"value":5.9}},"request":{"method":"POST","url":"Observation"}},{"fullUrl":"Observation/9be44595-ee0d-4242-9438-79b1853f50f9","resource":{"resourceType":"Observation","id":"9be44595-ee0d-4242-9438-79b1853f50f9","status":"final","code":{"coding":[{"system":"http://www.ama-assn.org/go/cpt","code":"85048"}]},"subject":{"reference":"Patient/da95a67c-9bb7-41ae-8588-f4c6182d647e"},"effectiveDateTime":"2022-02-03T00:00:00+00:00","valueCodeableConcept":{"coding":[{"system":"snomed","code":"123456","display":"fake snomed"}]}},"request":{"method":"POST","url":"Observation"}},{"fullUrl":"Observation/8a73938a-998b-4ca9-b8d9-6ff2ddd5463d","resource":{"resourceType":"Observation","id":"8a73938a-998b-4ca9-b8d9-6ff2ddd5463d","status":"final","code":{"coding":[{"system":"http://loinc.org","code":"26464-8"}]},"subject":{"reference":"Patient/da95a67c-9bb7-41ae-8588-f4c6182d647e"},"effectiveDateTime":"2022-08-14T00:00:00+00:00","valueCodeableConcept":{"coding":[{"system":"snomed","code":"123456","display":"fake snomed"}]}},"request":{"method":"POST","url":"Observation"}},{"fullUrl":"Observation/0e97f493-6e95-4a1d-84cf-01fbfe41c9d3","resource":{"resourceType":"Observation","id":"0e97f493-6e95-4a1d-84cf-01fbfe41c9d3","status":"final","code":{"coding":[{"system":"http://loinc.org","code":"49498-9"}]},"subject":{"reference":"Patient/da95a67c-9bb7-41ae-8588-f4c6182d647e"},"effectiveDateTime":"2022-01-19T00:00:00+00:00"},"request":{"method":"POST","url":"Observation"}},{"fullUrl":"Observation/9ed78001-b776-4465-a7af-f2b4542fa14e","resource":{"resourceType":"Observation","id":"9ed78001-b776-4465-a7af-f2b4542fa14e","status":"final","code":{"coding":[{"system":"http://loinc.org","code":"49498-9"}]},"subject":{"reference":"Patient/da95a67c-9bb7-41ae-8588-f4c6182d647e"},"effectiveDateTime":"2022-08-12T00:00:00+00:00"},"request":{"method":"POST","url":"Observation"}},{"fullUrl":"Procedure/5fe3f541-18c9-4120-b061-8953b5b43b0e","resource":{"resourceType":"Procedure","id":"5fe3f541-18c9-4120-b061-8953b5b43b0e","status":"completed","code":{"coding":[{"system":"http://snomed.info/sct","code":"189009"}]},"subject":{"reference":"Patient/da95a67c-9bb7-41ae-8588-f4c6182d647e"},"performedDateTime":"2022-11-18T00:00:00+00:00"},"request":{"method":"POST","url":"Procedure"}},{"fullUrl":"Procedure/0ac5710b-c236-417a-81c8-9cf9de2d18e7","resource":{"resourceType":"Procedure","id":"0ac5710b-c236-417a-81c8-9cf9de2d18e7","status":"completed","code":{"coding":[{"system":"http://snomed.info/sct","code":"115006"}]},"subject":{"reference":"Patient/da95a67c-9bb7-41ae-8588-f4c6182d647e"},"performedDateTime":"2022-06-29T00:00:00+00:00"},"request":{"method":"POST","url":"Procedure"}},{"fullUrl":"Procedure/c2149f8d-dc76-4483-bb02-af37042b49ec","resource":{"resourceType":"Procedure","id":"c2149f8d-dc76-4483-bb02-af37042b49ec","status":"completed","code":{"coding":[{"system":"http://snomed.info/sct","code":"104001"}]},"subject":{"reference":"Patient/da95a67c-9bb7-41ae-8588-f4c6182d647e"},"performedDateTime":"2022-03-21T00:00:00+00:00"},"request":{"method":"POST","url":"Procedure"}},{"fullUrl":"MedicationStatement/5bcaf393-ede9-4c31-91a6-f8ced5cf8b7c","resource":{"resourceType":"MedicationStatement","id":"5bcaf393-ede9-4c31-91a6-f8ced5cf8b7c","status":"completed","medicationCodeableConcept":{"coding":[{"system":"http://www.nlm.nih.gov/research/umls/rxnorm","code":"3640"}]},"subject":{"reference":"Patient/da95a67c-9bb7-41ae-8588-f4c6182d647e"},"effectiveDateTime":"2022-04-09T00:00:00+00:00","dosage":[{"doseAndRate":[{"doseQuantity":{"value":1,"unit":"TAB","system":"http://terminology.hl7.org/CodeSystem/v3-orderableDrugForm","code":"TAB"}}]}]},"request":{"method":"POST","url":"MedicationStatement"}},{"fullUrl":"MedicationStatement/9650cd6f-b315-4623-bbde-0dfc13155058","resource":{"resourceType":"MedicationStatement","id":"9650cd6f-b315-4623-bbde-0dfc13155058","status":"completed","medicationCodeableConcept":{"coding":[{"system":"http://www.nlm.nih.gov/research/umls/rxnorm","code":"18631"}]},"subject":{"reference":"Patient/da95a67c-9bb7-41ae-8588-f4c6182d647e"},"effectiveDateTime":"2022-09-23T00:00:00+00:00","dosage":[{"doseAndRate":[{"doseQuantity":{"value":1,"unit":"TAB","system":"http://terminology.hl7.org/CodeSystem/v3-orderableDrugForm","code":"TAB"}}]}]},"request":{"method":"POST","url":"MedicationStatement"}},{"fullUrl":"MedicationStatement/43d4e4f0-3d91-40dd-b286-1d17a6ce37a8","resource":{"resourceType":"MedicationStatement","id":"43d4e4f0-3d91-40dd-b286-1d17a6ce37a8","status":"completed","medicationCodeableConcept":{"coding":[{"system":"http://www.nlm.nih.gov/research/umls/rxnorm","code":"7980"}]},"subject":{"reference":"Patient/da95a67c-9bb7-41ae-8588-f4c6182d647e"},"effectiveDateTime":"2022-08-24T00:00:00+00:00","dosage":[{"doseAndRate":[{"doseQuantity":{"value":1,"unit":"TAB","system":"http://terminology.hl7.org/CodeSystem/v3-orderableDrugForm","code":"TAB"}}]}]},"request":{"method":"POST","url":"MedicationStatement"}},{"fullUrl":"MedicationStatement/3638e320-e847-4913-835a-04ee15f12b71","resource":{"resourceType":"MedicationStatement","id":"3638e320-e847-4913-835a-04ee15f12b71","status":"completed","medicationCodeableConcept":{"coding":[{"system":"http://www.nlm.nih.gov/research/umls/rxnorm","code":"7980"}]},"subject":{"reference":"Patient/da95a67c-9bb7-41ae-8588-f4c6182d647e"},"effectiveDateTime":"2022-05-28T00:00:00+00:00","dosage":[{"doseAndRate":[{"doseQuantity":{"value":2,"unit":"TAB","system":"http://terminology.hl7.org/CodeSystem/v3-orderableDrugForm","code":"TAB"}}]}]},"request":{"method":"POST","url":"MedicationStatement"}},{"fullUrl":"MedicationStatement/6ad580fc-8f10-4b7a-9a6b-2f4db4328fed","resource":{"resourceType":"MedicationStatement","id":"6ad580fc-8f10-4b7a-9a6b-2f4db4328fed","status":"completed","medicationCodeableConcept":{"coding":[{"system":"http://www.nlm.nih.gov/research/umls/rxnorm","code":"3640"}]},"subject":{"reference":"Patient/da95a67c-9bb7-41ae-8588-f4c6182d647e"},"effectiveDateTime":"2022-03-27T00:00:00+00:00","dosage":[{"doseAndRate":[{"doseQuantity":{"value":1,"unit":"TAB","system":"http://terminology.hl7.org/CodeSystem/v3-orderableDrugForm","code":"TAB"}}]}]},"request":{"method":"POST","url":"MedicationStatement"}},{"fullUrl":"MedicationStatement/108f9bac-937a-431e-bacc-856d3a48e111","resource":{"resourceType":"MedicationStatement","id":"108f9bac-937a-431e-bacc-856d3a48e111","status":"completed","medicationCodeableConcept":{"coding":[{"system":"http://www.nlm.nih.gov/research/umls/rxnorm","code":"8698"}]},"subject":{"reference":"Patient/da95a67c-9bb7-41ae-8588-f4c6182d647e"},"effectiveDateTime":"2022-12-04T00:00:00+00:00","dosage":[{"doseAndRate":[{"doseQuantity":{"value":1,"unit":"TAB","system":"http://terminology.hl7.org/CodeSystem/v3-orderableDrugForm","code":"TAB"}}]}]},"request":{"method":"POST","url":"MedicationStatement"}},{"fullUrl":"MedicationStatement/ab0bc078-1bff-4257-8733-0d61962fbcaa","resource":{"resourceType":"MedicationStatement","id":"ab0bc078-1bff-4257-8733-0d61962fbcaa","status":"completed","medicationCodeableConcept":{"coding":[{"system":"http://www.nlm.nih.gov/research/umls/rxnorm","code":"10395"}]},"subject":{"reference":"Patient/da95a67c-9bb7-41ae-8588-f4c6182d647e"},"effectiveDateTime":"2022-03-01T00:00:00+00:00","dosage":[{"doseAndRate":[{"doseQuantity":{"value":1,"unit":"TAB","system":"http://terminology.hl7.org/CodeSystem/v3-orderableDrugForm","code":"TAB"}}]}]},"request":{"method":"POST","url":"MedicationStatement"}},{"fullUrl":"MedicationStatement/2c90d11e-da29-46cc-a81e-3da4bd885bba","resource":{"resourceType":"MedicationStatement","id":"2c90d11e-da29-46cc-a81e-3da4bd885bba","status":"completed","medicationCodeableConcept":{"coding":[{"system":"http://www.nlm.nih.gov/research/umls/rxnorm","code":"3640"}]},"subject":{"reference":"Patient/da95a67c-9bb7-41ae-8588-f4c6182d647e"},"effectiveDateTime":"2022-05-23T00:00:00+00:00","dosage":[{"doseAndRate":[{"doseQuantity":{"value":4.2,"unit":"TAB","system":"http://terminology.hl7.org/CodeSystem/v3-orderableDrugForm","code":"TAB"}}]}]},"request":{"method":"POST","url":"MedicationStatement"}},{"fullUrl":"MedicationStatement/4c03d129-c1a6-41e6-be25-589bf101608e","resource":{"resourceType":"MedicationStatement","id":"4c03d129-c1a6-41e6-be25-589bf101608e","status":"completed","medicationCodeableConcept":{"coding":[{"system":"http://www.nlm.nih.gov/research/umls/rxnorm","code":"2193"}]},"subject":{"reference":"Patient/da95a67c-9bb7-41ae-8588-f4c6182d647e"},"effectiveDateTime":"2022-04-13T00:00:00+00:00","dosage":[{"doseAndRate":[{"doseQuantity":{"value":3,"unit":"TAB","system":"http://terminology.hl7.org/CodeSystem/v3-orderableDrugForm","code":"TAB"}}]}]},"request":{"method":"POST","url":"MedicationStatement"}},{"fullUrl":"MedicationStatement/4c343f53-ec99-4f9b-8199-b371feb4736f","resource":{"resourceType":"MedicationStatement","id":"4c343f53-ec99-4f9b-8199-b371feb4736f","status":"completed","medicationCodeableConcept":{"coding":[{"system":"http://www.nlm.nih.gov/research/umls/rxnorm","code":"8698"}]},"subject":{"reference":"Patient/da95a67c-9bb7-41ae-8588-f4c6182d647e"},"effectiveDateTime":"2022-08-03T00:00:00+00:00","dosage":[{"doseAndRate":[{"doseQuantity":{"value":5.6,"unit":"TAB","system":"http://terminology.hl7.org/CodeSystem/v3-orderableDrugForm","code":"TAB"}}]}]},"request":{"method":"POST","url":"MedicationStatement"}},{"fullUrl":"Encounter/8b9284b4-2c1c-485f-b7d0-2cdca699a6ef","resource":{"resourceType":"Encounter","id":"8b9284b4-2c1c-485f-b7d0-2cdca699a6ef","status":"finished","class":{"system":"http://terminology.hl7.org/CodeSystem/v3-ActCode","code":"IMP","display":"inpatient encounter"},"type":[{"coding":[{"system":"http://terminology.hl7.org/CodeSystem/encounter-type","code":"BD/BM-clin"}]}],"subject":{"reference":"Patient/da95a67c-9bb7-41ae-8588-f4c6182d647e"},"period":{"start":"2022-09-10T00:00:00+00:00","end":"2022-09-10T00:00:00+00:00"}},"request":{"method":"POST","url":"Encounter"}},{"fullUrl":"Encounter/5be41954-31b2-4bb7-8fcb-828c4099ba2f","resource":{"resourceType":"Encounter","id":"5be41954-31b2-4bb7-8fcb-828c4099ba2f","status":"finished","class":{"system":"http://terminology.hl7.org/CodeSystem/v3-ActCode","code":"IMP","display":"inpatient encounter"},"type":[{"coding":[{"system":"http://terminology.hl7.org/CodeSystem/encounter-type","code":"CCS60"}]}],"subject":{"reference":"Patient/da95a67c-9bb7-41ae-8588-f4c6182d647e"},"period":{"start":"2022-09-20T00:00:00+00:00","end":"2022-09-21T00:00:00+00:00"}},"request":{"method":"POST","url":"Encounter"}},{"fullUrl":"Encounter/8ef2ab4a-82d0-4a71-ba10-d2dda3780a0b","resource":{"resourceType":"Encounter","id":"8ef2ab4a-82d0-4a71-ba10-d2dda3780a0b","status":"finished","class":{"system":"http://terminology.hl7.org/CodeSystem/v3-ActCode","code":"SS","display":"short-stay"},"type":[{"coding":[{"system":"http://terminology.hl7.org/CodeSystem/encounter-type","code":"OKI"}]}],"subject":{"reference":"Patient/da95a67c-9bb7-41ae-8588-f4c6182d647e"},"period":{"start":"2022-07-20T00:00:00+00:00","end":"2022-07-20T00:00:00+00:00"}},"request":{"method":"POST","url":"Encounter"}},{"fullUrl":"Encounter/cf78b719-e62a-43e4-a025-91673ca19257","resource":{"resourceType":"Encounter","id":"cf78b719-e62a-43e4-a025-91673ca19257","status":"finished","class":{"system":"http://terminology.hl7.org/CodeSystem/v3-ActCode","code":"HH","display":"home health"},"type":[{"coding":[{"system":"http://terminology.hl7.org/CodeSystem/encounter-type","code":"BD/BM-clin"}]}],"subject":{"reference":"Patient/da95a67c-9bb7-41ae-8588-f4c6182d647e"},"period":{"start":"2022-07-07T00:00:00+00:00","end":"2022-07-12T00:00:00+00:00"}},"request":{"method":"POST","url":"Encounter"}},{"fullUrl":"Location/7ab2896e-5420-46ee-b950-f6293f1b1e57","resource":{"resourceType":"Location","id":"7ab2896e-5420-46ee-b950-f6293f1b1e57","status":"active","name":"Johnson-Garrison","telecom":[{"system":"phone","value":"+1-593-676-6917x6580","use":"mobile"}],"address":{"use":"work","line":["8184 Coleman Route"],"city":"Lake Adrianfurt","state":"DE","postalCode":"20502"}},"request":{"method":"POST","url":"Location"}},{"fullUrl":"Observation/5dbda210-50d0-4de2-bed4-4ad69d7a73f1","resource":{"resourceType":"Observation","id":"5dbda210-50d0-4de2-bed4-4ad69d7a73f1","status":"final","code":{"coding":[{"system":"http://loinc.org","code":"81956-5"}]},"subject":{"reference":"Patient/da95a67c-9bb7-41ae-8588-f4c6182d647e"},"effectiveDateTime":"2022-05-28T00:00:00+00:00","valueDateTime":"2022-03-14T00:00:00+00:00"},"request":{"method":"POST","url":"Observation"}},{"fullUrl":"Patient/33a140b3-135f-4ca2-84f5-a4edb9f56330","resource":{"resourceType":"Patient","id":"33a140b3-135f-4ca2-84f5-a4edb9f56330","identifier":[{"type":{"coding":[{"system":"http://terminology.hl7.org/CodeSystem/v2-0203","code":"MR"}]},"system":"urn:fhirgen:mrn","value":"801-42-8221"},{"system":"http://hl7.org/fhir/sid/us-ssn","value":"619-78-5226"}],"name":[{"use":"official","family":"Williams","given":["Jordan"]},{"use":"maiden","family":"King"}],"telecom":[{"system":"phone","value":"402-792-3672x34118","use":"home"},{"system":"email","value":"haleseth@gmail.com","use":"work"}],"gender":"male","birthDate":"1959-05-25","address":[{"use":"home","line":["458 Rios Island Suite 000"],"city":"Fostermouth","state":"AL","postalCode":"39748"},{"use":"old","line":["63376 Evans Creek"],"city":"Port Joshuafort","state":"MA","postalCode":"89155"}],"maritalStatus":{"coding":[{"system":"http://terminology.hl7.org/CodeSystem/v3-MaritalStatus","code":"W","display":"Widowed"}]}},"request":{"method":"POST","url":"Patient"}},{"fullUrl":"Observation/a2be2f16-6f33-4e00-86d3-ef897095aea8","resource":{"resourceType":"Observation","id":"a2be2f16-6f33-4e00-86d3-ef897095aea8","status":"final","code":{"coding":[{"system":"http://loinc.org","code":"71793-4"}]},"subject":{"reference":"Patient/33a140b3-135f-4ca2-84f5-a4edb9f56330"},"effectiveDateTime":"2022-01-15T00:00:00+00:00","valueRatio":{"numerator":{"value":1},"denominator":{"value":4}}},"request":{"method":"POST","url":"Observation"}},{"fullUrl":"Observation/4adfd0d0-a421-4016-96b3-93e0e09bc411","resource":{"resourceType":"Observation","id":"4adfd0d0-a421-4016-96b3-93e0e09bc411","status":"final","code":{"coding":[{"system":"http://loinc.org","code":"87925-4"}]},"subject":{"reference":"Patient/33a140b3-135f-4ca2-84f5-a4edb9f56330"},"effectiveDateTime":"2022-07-01T00:00:00+00:00","valueRatio":{"numerator":{"value":1},"denominator":{"value":4}}},"request":{"method":"POST","url":"Observation"}},{"fullUrl":"Condition/24bbdfc6-e0f5-4abc-b358-f275dbc72fef","resource":{"resourceType":"Condition","id":"24bbdfc6-e0f5-4abc-b358-f275dbc72fef","code":{"coding":[{"system":"http://snomed.info/sct","code":"56317004"}]},"subject":{"reference":"Patient/33a140b3-135f-4ca2-84f5-a4edb9f56330"},"onsetDateTime":"2022-07-14T00:00:00+00:00"},"request":{"method":"POST","url":"Condition"}},{"fullUrl":"Condition/db67b650-f871-46d3-9385-4494ee9ad9f2","resource":{"resourceType":"Condition","id":"db67b650-f871-46d3-9385-4494ee9ad9f2","code":{"coding":[{"system":"http://snomed.info/sct","code":"297123002"}]},"subject":{"reference":"Patient/33a140b3-135f-4ca2-84f5-a4edb9f56330"},"onsetDateTime":"2022-09-26T00:00:00+00:00"},"request":{"method":"POST","url":"Condition"}},{"fullUrl":"Condition/16441662-3c8a-4311-8314-c3873e7501d7","resource":{"resourceType":"Condition","id":"16441662-3c8a-4311-8314-c3873e7501d7","code":{"coding":[{"system":"http://snomed.info/sct","code":"418290006"}]},"subject":{"reference":"Patient/33a140b3-135f-4ca2-84f5-a4edb9f56330"},"onsetDateTime":"2022-08-21T00:00:00+00:00"},"request":{"method":"POST","url":"Condition"}},{"fullUrl":"Condition/af189ee0-d40d-4864-940f-71df3d18f315","resource":{"resourceType":"Condition","id":"af189ee0-d40d-4864-940f-71df3d18f315","code":{"coding":[{"system":"http://snomed.info/sct","code":"736686006"}]},"subject":{"reference":"Patient/33a140b3-135f-4ca2-84f5-a4edb9f56330"},"onsetDateTime":"2022-03-18T00:00:00+00:00"},"request":{"method":"POST","url":"Condition"}},{"fullUrl":"Observation/7eecfc06-6b8b-457e-aae0-d42509450e6c","resource":{"resourceType":"Observation","id":"7eecfc06-6b8b-457e-aae0-d42509450e6c","status":"final","code":{"coding":[{"system":"http://loinc.org","code":"804-5"}]},"subject":{"reference":"Patient/33a140b3-135f-4ca2-84f5-a4edb9f56330"},"effectiveDateTime":"2022-05-25T00:00:00+00:00","valueQuantity":{"value":10.3}},"request":{"method":"POST","url":"Observation"}},{"fullUrl":"Observation/516368b2-22d0-4dce-8b5a-1466f2bcd1c8","resource":{"resourceType":"Observation","id":"516368b2-22d0-4dce-8b5a-1466f2bcd1c8","status":"final","code":{"coding":[{"system":"http://www.ama-assn.org/go/cpt","code":"85048"}]},"subject":{"reference":"Patient/33a140b3-135f-4ca2-84f5-a4edb9f56330"},"effectiveDateTime":"2022-10-04T00:00:00+00:00","valueQuantity":{"value":7.8}},"request":{"method":"POST","url":"Observation"}},{"fullUrl":"Observation/313fffc2-9ca3-4d13-a051-23a1c22debc3","resource":{"resourceType":"Observation","id":"313fffc2-9ca3-4d13-a051-23a1c22debc3","status":"final","code":{"coding":[{"system":"http://loinc.org","code":"6690-2"}]},"subject":{"reference":"Patient/33a140b3-135f-4ca2-84f5-a4edb9f56330"},"effectiveDateTime":"2022-09-13T00:00:00+00:00","valueQuantity":{"value":8.4}},"request":{"method":"POST","url":"Observation"}},{"fullUrl":"Observation/3d04a156-20f7-49d2-9617-04738d44f9d1","resource":{"resourceType":"Observation","id":"3d04a156-20f7-49d2-9617-04738d44f9d1","status":"final","code":{"coding":[{"system":"http://loinc.org","code":"804-5"}]},"subject":{"reference":"Patient/33a140b3-135f-4ca2-84f5-a4edb9f56330"},"effectiveDateTime":"2022-08-26T00:00:00+00:00","valueCodeableConcept":{"coding":[{"system":"snomed","code":"123456","display":"fake snomed"}]}},"request":{"method":"POST","url":"Observation"}},{"fullUrl":"Observation/4475db36-5188-443b-805e-f285beff3f6a","resource":{"resourceType":"Observation","id":"4475db36-5188-443b-805e-f285beff3f6a","status":"final","code":{"coding":[{"system":"http://www.ama-assn.org/go/cpt","code":"85048"}]},"subject":{"reference":"Patient/33a140b3-135f-4ca2-84f5-a4edb9f56330"},"effectiveDateTime":"2022-01-01T00:00:00+00:00","valueCodeableConcept":{"coding":[{"system":"snomed","code":"123456","display":"fake snomed"}]}},"request":{"method":"POST","url":"Observation"}},{"fullUrl":"Observation/51d985a2-258a-48d7-a814-5b649451334f","resource":{"resourceType":"Observation","id":"51d985a2-258a-48d7-a814-5b649451334f","status":"final","code":{"coding":[{"system":"http://www.ama-assn.org/go/cpt","code":"85048"}]},"subject":{"reference":"Patient/33a140b3-135f-4ca2-84f5-a4edb9f56330"},"effectiveDateTime":"2022-06-16T00:00:00+00:00","valueCodeableConcept":{"coding":[{"system":"snomed","code":"123456","display":"fake snomed"}]}},"request":{"method":"POST","url":"Observation"}},{"fullUrl":"Observation/83dc8a4c-9c23-48ee-85c0-5dc9fd75c493","resource":{"resourceType":"Observation","id":"83dc8a4c-9c23-48ee-85c0-5dc9fd75c493","status":"final","code":{"coding":[{"system":"http://loinc.org","code":"49498-9"}]},"subject":{"reference":"Patient/33a140b3-135f-4ca2-84f5-a4edb9f56330"},"effectiveDateTime":"2022-05-05T00:00:00+00:00"},"request":{"method":"POST","url":"Observation"}},{"fullUrl":"Observation/2a9721c6-ccbb-45bb-8de2-58c065ac0f44","resource":{"resourceType":"Observation","id":"2a9721c6-ccbb-45bb-8de2-58c065ac0f44","status":"final","code":{"coding":[{"system":"http://loinc.org","code":"49498-9"}]},"subject":{"reference":"Patient/33a140b3-135f-4ca2-84f5-a4edb9f56330"},"effectiveDateTime":"2022-10-14T00:00:00+00:00"},"request":{"method":"POST","url":"Observation"}},{"fullUrl":"Procedure/94385d8b-8b0c-48a3-92f6-c4f6698704cd","resource":{"resourceType":"Procedure","id":"94385d8b-8b0c-48a3-92f6-c4f6698704cd","status":"completed","code":{"coding":[{"system":"http://snomed.info/sct","code":"115006"}]},"subject":{"reference":"Patient/33a140b3-135f-4ca2-84f5-a4edb9f56330"},"performedDateTime":"2022-03-27T00:00:00+00:00"},"request":{"method":"POST","url":"Procedure"}},{"fullUrl":"Procedure/bc5a888c-5466-473e-ae5e-8c667dadce44","resource":{"resourceType":"Procedure","id":"bc5a888c-5466-473e-ae5e-8c667dadce44","status":"completed","code":{"coding":[{"system":"http://snomed.info/sct","code":"189009"}]},"subject":{"reference":"Patient/33a140b3-135f-4ca2-84f5-a4edb9f56330"},"performedDateTime":"2022-12-02T00:00:00+00:00"},"request":{"method":"POST","url":"Procedure"}},{"fullUrl":"Procedure/3788c5f5-b4c0-420e-872d-1c985e36e380","resource":{"resourceType":"Procedure","id":"3788c5f5-b4c0-420e-872d-1c985e36e380","status":"completed","code":{"coding":[{"system":"http://snomed.info/sct","code":"146005"}]},"subject":{"reference":"Patient/33a140b3-135f-4ca2-84f5-a4edb9f56330"},"performedDateTime":"2022-10-13T00:00:00+00:00"},"request":{"method":"POST","url":"Procedure"}},{"fullUrl":"MedicationStatement/d3049d8f-4936-4bef-84f3-c6060e0654ad","resource":{"resourceType":"MedicationStatement","id":"d3049d8f-4936-4bef-84f3-c6060e0654ad","status":"completed","medicationCodeableConcept":{"coding":[{"system":"http://www.nlm.nih.gov/research/umls/rxnorm","code":"3640"}]},"subject":{"reference":"Patient/33a140b3-135f-4ca2-84f5-a4edb9f56330"},"effectiveDateTime":"2022-02-11T00:00:00+00:00","dosage":[{"doseAndRate":[{"doseQuantity":{"value":2,"unit":"TAB","system":"http://terminology.hl7.org/CodeSystem/v3-orderableDrugForm","code":"TAB"}}]}]},"request":{"method":"POST","url":"MedicationStatement"}},{"fullUrl":"MedicationStatement/2f14430e-9139-4022-bd7e-d0e4b5020427","resource":{"resourceType":"MedicationStatement","id":"2f14430e-9139-4022-bd7e-d0e4b5020427","status":"completed","medicationCodeableConcept":{"coding":[{"system":"http://www.nlm.nih.gov/research/umls/rxnorm","code":"18631"}]},"subject":{"reference":"Patient/33a140b3-135f-4ca2-84f5-a4edb9f56330"},"effectiveDateTime":"2022-08-25T00:00:00+00:00","dosage":[{"doseAndRate":[{"doseQuantity":{"value":1,"unit":"TAB","system":"http://terminology.hl7.org/CodeSystem/v3-orderableDrugForm","code":"TAB"}}]}]},"request":{"method":"POST","url":"MedicationStatement"}},{"fullUrl":"MedicationStatement/e35122ce-2457-42b4-859a-f7eb771cfdeb","resource":{"resourceType":"MedicationStatement","id":"e35122ce-2457-42b4-859a-f7eb771cfdeb","status":"completed","medicationCodeableConcept":{"coding":[{"system":"http://www.nlm.nih.gov/research/umls/rxnorm","code":"18631"}]},"subject":{"reference":"Patient/33a140b3-135f-4ca2-84f5-a4edb9f56330"},"effectiveDateTime":"2022-09-22T00:00:00+00:00","dosage":[{"doseAndRate":[{"doseQuantity":{"value":1,"unit":"TAB","system":"http://terminology.hl7.org/CodeSystem/v3-orderableDrugForm","code":"TAB"}}]}]},"request":{"method":"POST","url":"MedicationStatement"}},{"fullUrl":"MedicationStatement/4a0d7a6b-9f77-485c-b21d-3ebbd3b3a5ac","resource":{"resourceType":"MedicationStatement","id":"4a0d7a6b-9f77-485c-b21d-3ebbd3b3a5ac","status":"completed","medicationCodeableConcept":{"coding":[{"system":"http://www.nlm.nih.gov/research/umls/rxnorm","code":"7980"}]},"subject":{"reference":"Patient/33a140b3-135f-4ca2-84f5-a4edb9f56330"},"effectiveDateTime":"2022-12-20T00:00:00+00:00","dosage":[{"doseAndRate":[{"doseQuantity":{"value":1,"unit":"TAB","system":"http://terminology.hl7.org/CodeSystem/v3-orderableDrugForm","code":"TAB"}}]}]},"request":{"method":"POST","url":"MedicationStatement"}},{"fullUrl":"MedicationStatement/32e64040-e4b8-4965-aa47-989fe5da23c4","resource":{"resourceType":"MedicationStatement","id":"32e64040-e4b8-4965-aa47-989fe5da23c4","status":"completed","medicationCodeableConcept":{"coding":[{"system":"http://www.nlm.nih.gov/research/umls/rxnorm","code":"8698"}]},"subject":{"reference":"Patient/33a140b3-135f-4ca2-84f5-a4edb9f56330"},"effectiveDateTime":"2022-05-17T00:00:00+00:00","dosage":[{"doseAndRate":[{"doseQuantity":{"value":1,"unit":"TAB","system":"http://terminology.hl7.org/CodeSystem/v3-orderableDrugForm","code":"TAB"}}]}]},"request":{"method":"POST","url":"MedicationStatement"}},{"fullUrl":"MedicationStatement/408afd90-3672-4dd2-9d01-de4763ac115f","resource":{"resourceType":"MedicationStatement","id":"408afd90-3672-4dd2-9d01-de4763ac115f","status":"completed","medicationCodeableConcept":{"coding":[{"system":"http://www.nlm.nih.gov/research/umls/rxnorm","code":"18631"}]},"subject":{"reference":"Patient/33a140b3-135f-4ca2-84f5-a4edb9f56330"},"effectiveDateTime":"2022-09-01T00:00:00+00:00","dosage":[{"doseAndRate":[{"doseQuantity":{"value":2,"unit":"TAB","system":"http://terminology.hl7.org/CodeSystem/v3-orderableDrugForm","code":"TAB"}}]}]},"request":{"method":"POST","url":"MedicationStatement"}},{"fullUrl":"MedicationStatement/3d2dda22-16d0-4dd8-a392-9d6878e24129","resource":{"resourceType":"MedicationStatement","id":"3d2dda22-16d0-4dd8-a392-9d6878e24129","status":"completed","medicationCodeableConcept":{"coding":[{"system":"http://www.nlm.nih.gov/research/umls/rxnorm","code":"3640"}]},"subject":{"reference":"Patient/33a140b3-135f-4ca2-84f5-a4edb9f56330"},"effectiveDateTime":"2022-10-08T00:00:00+00:00","dosage":[{"doseAndRate":[{"doseQuantity":{"value":3.1,"unit":"TAB","system":"http://terminology.hl7.org/CodeSystem/v3-orderableDrugForm","code":"TAB"}}]}]},"request":{"method":"POST","url":"MedicationStatement"}},{"fullUrl":"MedicationStatement/a0ef354d-ea5d-4bc9-a195-56b0141c47c0","resource":{"resourceType":"MedicationStatement","id":"a0ef354d-ea5d-4bc9-a195-56b0141c47c0","status":"completed","medicationCodeableConcept":{"coding":[{"system":"http://www.nlm.nih.gov/research/umls/rxnorm","code":"10395"}]},"subject":{"reference":"Patient/33a140b3-135f-4ca2-84f5-a4edb9f56330"},"effectiveDateTime":"2022-11-20T00:00:00+00:00","dosage":[{"doseAndRate":[{"doseQuantity":{"value":4.2,"unit":"TAB","system":"http://terminology.hl7.org/CodeSystem/v3-orderableDrugForm","code":"TAB"}}]}]},"request":{"method":"POST","url":"MedicationStatement"}},{"fullUrl":"Encounter/820ae539-6dc1-40e4-88bb-9d80ae9029cc","resource":{"resourceType":"Encounter","id":"820ae539-6dc1-40e4-88bb-9d80ae9029cc","status":"finished","class":{"system":"http://terminology.hl7.org/CodeSystem/v3-ActCode","code":"IMP","display":"inpatient encounter"},"type":[{"coding":[{"system":"http://terminology.hl7.org/CodeSystem/encounter-type","code":"OKI"}]}],"subject":{"reference":"Patient/33a140b3-135f-4ca2-84f5-a4edb9f56330"},"period":{"start":"2022-04-10T00:00:00+00:00","end":"2022-04-10T00:00:00+00:00"}},"request":{"method":"POST","url":"Encounter"}},{"fullUrl":"Encounter/8f6bcd7a-6ff1-4e4e-adad-02089e695584","resource":{"resourceType":"Encounter","id":"8f6bcd7a-6ff1-4e4e-adad-02089e695584","status":"finished","class":{"system":"http://terminology.hl7.org/CodeSystem/v3-ActCode","code":"IMP","display":"inpatient encounter"},"type":[{"coding":[{"system":"http://terminology.hl7.org/CodeSystem/encounter-type","code":"ADMS"}]}],"subject":{"reference":"Patient/33a140b3-135f-4ca2-84f5-a4edb9f56330"},"period":{"start":"2022-05-23T00:00:00+00:00","end":"2022-05-24T00:00:00+00:00"}},"request":{"method":"POST","url":"Encounter"}},{"fullUrl":"Encounter/fef910ca-3ca6-446e-99ef-5f07e7b9ce01","resource":{"resourceType":"Encounter","id":"fef910ca-3ca6-446e-99ef-5f07e7b9ce01","status":"finished","class":{"system":"http://terminology.hl7.org/CodeSystem/v3-ActCode","code":"AMB","display":"ambulatory"},"type":[{"coding":[{"system":"http://terminology.hl7.org/CodeSystem/encounter-type","code":"ADMS"}]}],"subject":{"reference":"Patient/33a140b3-135f-4ca2-84f5-a4edb9f56330"},"period":{"start":"2022-06-06T00:00:00+00:00","end":"2022-06-12T00:00:00+00:00"}},"request":{"method":"POST","url":"Encounter"}},{"fullUrl":"Encounter/684babc6-5998-4577-ba12-4a161f17b0c4","resource":{"resourceType":"Encounter","id":"684babc6-5998-4577-ba12-4a161f17b0c4","status":"finished","class":{"system":"http://terminology.hl7.org/CodeSystem/v3-ActCode","code":"VR","display":"virtual"},"type":[{"coding":[{"system":"http://terminology.hl7.org/CodeSystem/encounter-type","code":"OKI"}]}],"subject":{"reference":"Patient/33a140b3-135f-4ca2-84f5-a4edb9f56330"},"period":{"start":"2022-03-27T00:00:00+00:00","end":"2022-04-04T00:00:00+00:00"}},"request":{"method":"POST","url":"Encounter"}},{"fullUrl":"Location/e88b1814-7a05-47ea-8f67-9658f8737fbd","resource":{"resourceType":"Location","id":"e88b1814-7a05-47ea-8f67-9658f8737fbd","status":"active","name":"Weaver, Woods and Herman","telecom":[{"system":"phone","value":"339.422.3984","use":"work"}],"address":{"use":"work","line":["36676 Christopher Court"],"city":"East Amy","state":"IN","postalCode":"97456"}},"request":{"method":"POST","url":"Location"}},{"fullUrl":"Observation/0ea6e512-7096-4ff0-bef7-d99d75116468","resource":{"resourceType":"Observation","id":"0ea6e512-7096-4ff0-bef7-d99d75116468","status":"final","code":{"coding":[{"system":"http://loinc.org","code":"81956-5"}]},"subject":{"reference":"Patient/33a140b3-135f-4ca2-84f5-a4edb9f56330"},"effectiveDateTime":"2022-02-16T00:00:00+00:00","valueDateTime":"2021-11-28T00:00:00+00:00"},"request":{"method":"POST","url":"Observation"}},{"fullUrl":"Patient/47c8518e-7b79-4384-852e-4f0592245b18","resource":{"resourceType":"Patient","id":"47c8518e-7b79-4384-852e-4f0592245b18","identifier":[{"type":{"coding":[{"system":"http://terminology.hl7.org/CodeSystem/v2-0203","code":"MR"}]},"system":"urn:fhirgen:mrn","value":"716-28-3314"},{"system":"http://hl7.org/fhir/sid/us-ssn","value":"633-27-3604"}],"name":[{"use":"official","family":"Wilson","given":["Tiffany"]},{"use":"maiden","family":"Wright"}],"telecom":[{"system":"phone","value":"4274023780","use":"work"},{"system":"email","value":"gregorymartin@hotmail.com","use":"work"}],"gender":"female","birthDate":"1988-01-14","address":[{"use":"home","line":["55641 Kathryn Pass Apt. 779"],"city":"Lake Kevin","state":"MS","postalCode":"82286"},{"use":"old","line":["42140 Horn Gardens"],"city":"Mariaborough","state":"NH","postalCode":"03420"}],"maritalStatus":{"coding":[{"system":"http://terminology.hl7.org/CodeSystem/v3-MaritalStatus","code":"W","display":"Widowed"}]}},"request":{"method":"POST","url":"Patient"}},{"fullUrl":"Observation/a2a67f19-00d4-4adf-b00c-088c1d16e17d","resource":{"resourceType":"Observation","id":"a2a67f19-00d4-4adf-b00c-088c1d16e17d","status":"final","code":{"coding":[{"system":"http://loinc.org","code":"22590-4"}]},"subject":{"reference":"Patient/47c8518e-7b79-4384-852e-4f0592245b18"},"effectiveDateTime":"2022-09-03T00:00:00+00:00","valueRatio":{"numerator":{"value":1},"denominator":{"value":4}}},"request":{"method":"POST","url":"Observation"}},{"fullUrl":"Observation/84394213-0b6f-4578-877a-c95d5f0987eb","resource":{"resourceType":"Observation","id":"84394213-0b6f-4578-877a-c95d5f0987eb","status":"final","code":{"coding":[{"system":"http://loinc.org","code":"47235-7"}]},"subject":{"reference":"Patient/47c8518e-7b79-4384-852e-4f0592245b18"},"effectiveDateTime":"2022-05-11T00:00:00+00:00","valueRatio":{"numerator":{"value":1},"denominator":{"value":4}}},"request":{"method":"POST","url":"Observation"}},{"fullUrl":"Condition/aff8635f-0642-49ee-b43b-6e541fcc1aa0","resource":{"resourceType":"Condition","id":"aff8635f-0642-49ee-b43b-6e541fcc1aa0","code":{"coding":[{"system":"http://snomed.info/sct","code":"21522001"}]},"subject":{"reference":"Patient/47c8518e-7b79-4384-852e-4f0592245b18"},"onsetDateTime":"2022-07-14T00:00:00+00:00"},"request":{"method":"POST","url":"Condition"}},{"fullUrl":"Condition/0aabd043-9c78-44bf-8da3-0acc3f55f7e6","resource":{"resourceType":"Condition","id":"0aabd043-9c78-44bf-8da3-0acc3f55f7e6","code":{"coding":[{"system":"http://snomed.info/sct","code":"91554004"}]},"subject":{"reference":"Patient/47c8518e-7b79-4384-852e-4f0592245b18"},"onsetDateTime":"2022-05-11T00:00:00+00:00"},"request":{"method":"POST","url":"Condition"}},{"fullUrl":"Condition/11cd8fb3-4ed8-42f8-a294-5e938f2824f3","resource":{"resourceType":"Condition","id":"11cd8fb3-4ed8-42f8-a294-5e938f2824f3","code":{"coding":[{"system":"http://snomed.info/sct","code":"386661006"}]},"subject":{"reference":"Patient/47c8518e-7b79-4384-852e-4f0592245b18"},"onsetDateTime":"2022-05-31T00:00:00+00:00"},"request":{"method":"POST","url":"Condition"}},{"fullUrl":"Condition/51f8542c-ab7c-4f64-81ba-22fbe16b91ec","resource":{"resourceType":"Condition","id":"51f8542c-ab7c-4f64-81ba-22fbe16b91ec","code":{"coding":[{"system":"http://snomed.info/sct","code":"21522001"}]},"subject":{"reference":"Patient/47c8518e-7b79-4384-852e-4f0592245b18"},"onsetDateTime":"2022-07-23T00:00:00+00:00"},"request":{"method":"POST","url":"Condition"}},{"fullUrl":"Condition/7ff3da8d-979c-49a7-b285-3a7fa86875e2","resource":{"resourceType":"Condition","id":"7ff3da8d-979c-49a7-b285-3a7fa86875e2","code":{"coding":[{"system":"http://snomed.info/sct","code":"44882003"}]},"subject":{"reference":"Patient/47c8518e-7b79-4384-852e-4f0592245b18"},"onsetDateTime":"2022-10-03T00:00:00+00:00"},"request":{"method":"POST","url":"Condition"}},{"fullUrl":"Condition/ddf0b3fa-6b9c-4e6f-a43a-c0f5b6af071a","resource":{"resourceType":"Condition","id":"ddf0b3fa-6b9c-4e6f-a43a-c0f5b6af071a","code":{"coding":[{"system":"http://snomed.info/sct","code":"709977002"}]},"subject":{"reference":"Patient/47c8518e-7b79-4384-852e-4f0592245b18"},"onsetDateTime":"2022-09-14T00:00:00+00:00"},"request":{"method":"POST","url":"Condition"}},{"fullUrl":"Observation/62e4b50d-eb9e-4163-9a7b-d5d1704299d5","resource":{"resourceType":"Observation","id":"62e4b50d-eb9e-4163-9a7b-d5d1704299d5","status":"final","code":{"coding":[{"system":"http://loinc.org","code":"804-5"}]},"subject":{"reference":"Patient/47c8518e-7b79-4384-852e-4f0592245b18"},"effectiveDateTime":"2022-05-12T00:00:00+00:00","valueQuantity":{"value":4.7}},"request":{"method":"POST","url":"Observation"}},{"fullUrl":"Observation/3c8e6555-bb8a-482a-9628-97f67d1bd990","resource":{"resourceType":"Observation","id":"3c8e6555-bb8a-482a-9628-97f67d1bd990","status":"final","code":{"coding":[{"system":"http://www.ama-assn.org/go/cpt","code":"85048"}]},"subject":{"reference":"Patient/47c8518e-7b79-4384-852e-4f0592245b18"},"effectiveDateTime":"2022-04-30T00:00:00+00:00","valueQuantity":{"value":8.1}},"request":{"method":"POST","url":"Observation"}},{"fullUrl":"Observation/7eb1fbd7-bd30-4fa5-b9d5-d8155c8efd74","resource":{"resourceType":"Observation","id":"7eb1fbd7-bd30-4fa5-b9d5-d8155c8efd74","status":"final","code":{"coding":[{"system":"http://loinc.org","code":"49498-9"}]},"subject":{"reference":"Patient/47c8518e-7b79-4384-852e-4f0592245b18"},"effectiveDateTime":"2022-08-19T00:00:00+00:00","valueCodeableConcept":{"coding":[{"system":"snomed","code":"123456","display":"fake snomed"}]}},"request":{"method":"POST","url":"Observation"}},{"fullUrl":"Observation/e1707c10-0ac9-4fa8-8978-6b8c3d637993","resource":{"resourceType":"Observation","id":"e1707c10-0ac9-4fa8-8978-6b8c3d637993","status":"final","code":{"coding":[{"system":"http://loinc.org","code":"26464-8"}]},"subject":{"reference":"Patient/47c8518e-7b79-4384-852e-4f0592245b18"},"effectiveDateTime":"2022-07-27T00:00:00+00:00","valueCodeableConcept":{"coding":[{"system":"snomed","code":"123456","display":"fake snomed"}]}},"request":{"method":"POST","url":"Observation"}},{"fullUrl":"Observation/5e46f082-6759-4509-9a94-4b5ac61963cb","resource":{"resourceType":"Observation","id":"5e46f082-6759-4509-9a94-4b5ac61963cb","status":"final","code":{"coding":[{"system":"http://loinc.org","code":"804-5"}]},"subject":{"reference":"Patient/47c8518e-7b79-4384-852e-4f0592245b18"},"effectiveDateTime":"2022-01-06T00:00:00+00:00","valueCodeableConcept":{"coding":[{"system":"snomed","code":"123456","display":"fake snomed"}]}},"request":{"method":"POST","url":"Observation"}},{"fullUrl":"Observation/3dcf0753-1024-42df-8f0e-d140bc50038f","resource":{"resourceType":"Observation","id":"3dcf0753-1024-42df-8f0e-d140bc50038f","status":"final","code":{"coding":[{"system":"http://loinc.org","code":"49498-9"}]},"subject":{"reference":"Patient/47c8518e-7b79-4384-852e-4f0592245b18"},"effectiveDateTime":"2022-06-09T00:00:00+00:00"},"request":{"method":"POST","url":"Observation"}},{"fullUrl":"Observation/dfcef442-7f77-415d-802a-6b9d9b38b075","resource":{"resourceType":"Observation","id":"dfcef442-7f77-415d-802a-6b9d9b38b075","status":"final","code":{"coding":[{"system":"http://loinc.org","code":"49498-9"}]},"subject":{"reference":"Patient/47c8518e-7b79-4384-852e-4f0592245b18"},"effectiveDateTime":"2022-02-17T00:00:00+00:00"},"request":{"method":"POST","url":"Observation"}},{"fullUrl":"Observation/765324c1-07f7-4d98-8ea1-c3cb0f0697be","resource":{"resourceType":"Observation","id":"765324c1-07f7-4d98-8ea1-c3cb0f0697be","status":"final","code":{"coding":[{"system":"http://loinc.org","code":"49498-9"}]},"subject":{"reference":"Patient/47c8518e-7b79-4384-852e-4f0592245b18"},"effectiveDateTime":"2022-07-06T00:00:00+00:00"},"request":{"method":"POST","url":"Observation"}},{"fullUrl":"Procedure/3c298ca4-037d-412d-87e9-f6baec7f2811","resource":{"resourceType":"Procedure","id":"3c298ca4-037d-412d-87e9-f6baec7f2811","status":"completed","code":{"coding":[{"system":"http://snomed.info/sct","code":"146005"}]},"subject":{"reference":"Patient/47c8518e-7b79-4384-852e-4f0592245b18"},"performedDateTime":"2022-10-16T00:00:00+00:00"},"request":{"method":"POST","url":"Procedure"}},{"fullUrl":"Procedure/645d9957-76b2-4bb1-a7b0-9dde96f8384d","resource":{"resourceType":"Procedure","id":"645d9957-76b2-4bb1-a7b0-9dde96f8384d","status":"completed","code":{"coding":[{"system":"http://snomed.info/sct","code":"146005"}]},"subject":{"reference":"Patient/47c8518e-7b79-4384-852e-4f0592245b18"},"performedDateTime":"2022-07-09T00:00:00+00:00"},"request":{"method":"POST","url":"Procedure"}},{"fullUrl":"Procedure/dcaa717b-3cf1-4e5b-bc94-0ca55267d4ef","resource":{"resourceType":"Procedure","id":"dcaa717b-3cf1-4e5b-bc94-0ca55267d4ef","status":"completed","code":{"coding":[{"system":"http://snomed.info/sct","code":"115006"}]},"subject":{"reference":"Patient/47c8518e-7b79-4384-852e-4f0592245b18"},"performedDateTime":"2022-08-11T00:00:00+00:00"},"request":{"method":"POST","url":"Procedure"}},{"fullUrl":"MedicationStatement/2e2e1d61-dac4-4ff4-af19-059363b15e7a","resource":{"resourceType":"MedicationStatement","id":"2e2e1d61-dac4-4ff4-af19-059363b15e7a","status":"completed","medicationCodeableConcept":{"coding":[{"system":"http://www.nlm.nih.gov/research/umls/rxnorm","code":"7984"}]},"subject":{"reference":"Patient/47c8518e-7b79-4384-852e-4f0592245b18"},"effectiveDateTime":"2022-12-21T00:00:00+00:00","dosage":[{"doseAndRate":[{"doseQuantity":{"value":1,"unit":"TAB","system":"http://terminology.hl7.org/CodeSystem/v3-orderableDrugForm","code":"TAB"}}]}]},"request":{"method":"POST","url":"MedicationStatement"}},{"fullUrl":"MedicationStatement/239e8015-7b5e-4b61-9926-16b8e1b7fea2","resource":{"resourceType":"MedicationStatement","id":"239e8015-7b5e-4b61-9926-16b8e1b7fea2","status":"completed","medicationCodeableConcept":{"coding":[{"system":"http://www.nlm.nih.gov/research/umls/rxnorm","code":"2193"}]},"subject":{"reference":"Patient/47c8518e-7b79-4384-852e-4f0592245b18"},"effectiveDateTime":"2022-07-31T00:00:00+00:00","dosage":[{"doseAndRate":[{"doseQuantity":{"value":7,"unit":"TAB","system":"http://terminology.hl7.org/CodeSystem/v3-orderableDrugForm","code":"TAB"}}]}]},"request":{"method":"POST","url":"MedicationStatement"}},{"fullUrl":"MedicationStatement/89a76722-b423-4579-9c1e-75b4280f52ea","resource":{"resourceType":"MedicationStatement","id":"89a76722-b423-4579-9c1e-75b4280f52ea","status":"completed","medicationCodeableConcept":{"coding":[{"system":"http://www.nlm.nih.gov/research/umls/rxnorm","code":"18631"}]},"subject":{"reference":"Patient/47c8518e-7b79-4384-852e-4f0592245b18"},"effectiveDateTime":"2022-12-30T00:00:00+00:00","dosage":[{"doseAndRate":[{"doseQuantity":{"value":3.8,"unit":"TAB","system":"http://terminology.hl7.org/CodeSystem/v3-orderableDrugForm","code":"TAB"}}]}]},"request":{"method":"POST","url":"MedicationStatement"}},{"fullUrl":"MedicationStatement/522e3457-1ef1-4da0-8a90-a1b7e8af9bd7","resource":{"resourceType":"MedicationStatement","id":"522e3457-1ef1-4da0-8a90-a1b7e8af9bd7","status":"completed","medicationCodeableConcept":{"coding":[{"system":"http://www.nlm.nih.gov/research/umls/rxnorm","code":"10395"}]},"subject":{"reference":"Patient/47c8518e-7b79-4384-852e-4f0592245b18"},"effectiveDateTime":"2022-05-18T00:00:00+00:00","dosage":[{"doseAndRate":[{"doseQuantity":{"value":5.7,"unit":"TAB","system":"http://terminology.hl7.org/CodeSystem/v3-orderableDrugForm","code":"TAB"}}]}]},"request":{"method":"POST","url":"MedicationStatement"}},{"fullUrl":"Encounter/5917b69c-7c6b-4266-93ad-1b8a40f7096f","resource":{"resourceType":"Encounter","id":"5917b69c-7c6b-4266-93ad-1b8a40f7096f","status":"finished","class":{"system":"http://terminology.hl7.org/CodeSystem/v3-ActCode","code":"IMP","display":"inpatient encounter"},"type":[{"coding":[{"system":"http://terminology.hl7.org/CodeSystem/encounter-type","code":"OKI"}]}],"subject":{"reference":"Patient/47c8518e-7b79-4384-852e-4f0592245b18"},"period":{"start":"2022-06-06T00:00:00+00:00","end":"2022-06-11T00:00:00+00:00"}},"request":{"method":"POST","url":"Encounter"}},{"fullUrl":"Encounter/f85e6284-9d3a-4f0a-bf0e-6a38c7f09882","resource":{"resourceType":"Encounter","id":"f85e6284-9d3a-4f0a-bf0e-6a38c7f09882","status":"finished","class":{"system":"http://terminology.hl7.org/CodeSystem/v3-ActCode","code":"IMP","display":"inpatient encounter"},"type":[{"coding":[{"system":"http://terminology.hl7.org/CodeSystem/encounter-type","code":"CCS60"}]}],"subject":{"reference":"Patient/47c8518e-7b79-4384-852e-4f0592245b18"},"period":{"start":"2022-09-10T00:00:00+00:00","end":"2022-09-12T00:00:00+00:00"}},"request":{"method":"POST","url":"Encounter"}},{"fullUrl":"Encounter/fa1edc52-b914-4886-a85c-c218b311a188","resource":{"resourceType":"Encounter","id":"fa1edc52-b914-4886-a85c-c218b311a188","status":"finished","class":{"system":"http://terminology.hl7.org/CodeSystem/v3-ActCode","code":"IMP","display":"inpatient encounter"},"type":[{"coding":[{"system":"http://terminology.hl7.org/CodeSystem/encounter-type","code":"ADMS"}]}],"subject":{"reference":"Patient/47c8518e-7b79-4384-852e-4f0592245b18"},"period":{"start":"2022-06-29T00:00:00+00:00","end":"2022-07-06T00:00:00+00:00"}},"request":{"method":"POST","url":"Encounter"}},{"fullUrl":"Encounter/7e418907-a504-4b66-a277-ab3f88b85dc1","resource":{"resourceType":"Encounter","id":"7e418907-a504-4b66-a277-ab3f88b85dc1","status":"finished","class":{"system":"http://terminology.hl7.org/CodeSystem/v3-ActCode","code":"VR","display":"virtual"},"type":[{"coding":[{"system":"http://terminology.hl7.org/CodeSystem/encounter-type","code":"BD/BM-clin"}]}],"subject":{"reference":"Patient/47c8518e-7b79-4384-852e-4f0592245b18"},"period":{"start":"2022-05-23T00:00:00+00:00","end":"2022-05-31T00:00:00+00:00"}},"request":{"method":"POST","url":"Encounter"}},{"fullUrl":"Encounter/10a6cbc5-e659-4317-9758-e8f12cb503d7","resource":{"resourceType":"Encounter","id":"10a6cbc5-e659-4317-9758-e8f12cb503d7","status":"finished","class":{"system":"http://terminology.hl7.org/CodeSystem/v3-ActCode","code":"PRENC","display":"pre-admission"},"type":[{"coding":[{"system":"http://terminology.hl7.org/CodeSystem/encounter-type","code":"OKI"}]}],"subject":{"reference":"Patient/47c8518e-7b79-4384-852e-4f0592245b18"},"period":{"start":"2022-07-02T00:00:00+00:00","end":"2022-07-09T00:00:00+00:00"}},"request":{"method":"POST","url":"Encounter"}},{"fullUrl":"Location/a89c416d-3942-4701-be91-4bde7a961160","resource":{"resourceType":"Location","id":"a89c416d-3942-4701-be91-4bde7a961160","status":"active","name":"Lewis LLC","telecom":[{"system":"phone","value":"586-311-5976x1437","use":"work"}],"address":{"use":"work","line":["9330 Johnson Island"],"city":"Cindystad","state":"LA","postalCode":"29219"}},"request":{"method":"POST","url":"Location"}},{"fullUrl":"Observation/43a0b31d-660f-451a-bc99-e81164a55b8f","resource":{"resourceType":"Observation","id":"43a0b31d-660f-451a-bc99-e81164a55b8f","status":"final","code":{"coding":[{"system":"http://loinc.org","code":"81956-5"}]},"subject":{"reference":"Patient/47c8518e-7b79-4384-852e-4f0592245b18"},"effectiveDateTime":"2022-06-03T00:00:00+00:00","valueDateTime":"2022-05-21T00:00:00+00:00"},"request":{"method":"POST","url":"Observation"}},{"fullUrl":"Patient/e3227160-1dcf-4f12-8897-5dc0557db2f1","resource":{"resourceType":"Patient","id":"e3227160-1dcf-4f12-8897-5dc0557db2f1","identifier":[{"type":{"coding":[{"system":"http://terminology.hl7.org/CodeSystem/v2-0203","code":"MR"}]},"system":"urn:fhirgen:mrn","value":"303-79-7279"},{"system":"http://hl7.org/fhir/sid/us-ssn","value":"112-70-2276"}],"name":[{"use":"official","family":"Moss","given":["Erica"]},{"use":"maiden","family":"Velazquez"}],"telecom":[{"system":"phone","value":"(140)554-1415x53693","use":"work"},{"system":"email","value":"cooperwilliam@hotmail.com","use":"mobile"}],"gender":"female","birthDate":"1982-06-07","address":[{"use":"home","line":["4904 Lydia Streets"],"city":"East Stephanie","state":"AZ","postalCode":"45670"},{"use":"old","line":["1084 Jordan Mountains"],"city":"New Codyland","state":"AK","postalCode":"09570"}],"maritalStatus":{"coding":[{"system":"http://terminology.hl7.org/CodeSystem/v3-MaritalStatus","code":"I","display":"Interlocutory"}]}},"request":{"method":"POST","url":"Patient"}},{"fullUrl":"Observation/763e4663-05eb-442e-adfd-8a40ab684d95","resource":{"resourceType":"Observation","id":"763e4663-05eb-442e-adfd-8a40ab684d95","status":"final","code":{"coding":[{"system":"http://loinc.org","code":"31147-2"}]},"subject":{"reference":"Patient/e3227160-1dcf-4f12-8897-5dc0557db2f1"},"effectiveDateTime":"2022-05-09T00:00:00+00:00","valueRatio":{"numerator":{"value":1},"denominator":{"value":4}}},"request":{"method":"POST","url":"Observation"}},{"fullUrl":"Observation/689505a7-8b89-402e-b1a6-47f5606b78a7","resource":{"resourceType":"Observation","id":"689505a7-8b89-402e-b1a6-47f5606b78a7","status":"final","code":{"coding":[{"system":"http://loinc.org","code":"47235-7"}]},"subject":{"reference":"Patient/e3227160-1dcf-4f12-8897-5dc0557db2f1"},"effectiveDateTime":"2022-01-07T00:00:00+00:00","valueRatio":{"numerator":{"value":1},"denominator":{"value":32}}},"request":{"method":"POST","url":"Observation"}},{"fullUrl":"Condition/c7d3f53a-2dd6-49de-bc59-33a222c1ba11","resource":{"resourceType":"Condition","id":"c7d3f53a-2dd6-49de-bc59-33a222c1ba11","code":{"coding":[{"system":"http://snomed.info/sct","code":"91554004"}]},"subject":{"reference":"Patient/e3227160-1dcf-4f12-8897-5dc0557db2f1"},"onsetDateTime":"2022-05-04T00:00:00+00:00"},"request":{"method":"POST","url":"Condition"}},{"fullUrl":"Condition/f785ffbb-baf3-444c-8db7-40a0e3044937","resource":{"resourceType":"Condition","id":"f785ffbb-baf3-444c-8db7-40a0e3044937","code":{"coding":[{"system":"http://snomed.info/sct","code":"405737000"}]},"subject":{"reference":"Patient/e3227160-1dcf-4f12-8897-5dc0557db2f1"},"onsetDateTime":"2022-06-22T00:00:00+00:00"},"request":{"method":"POST","url":"Condition"}},{"fullUrl":"Condition/35d40f77-1c25-428d-a169-8c810b018f21","resource":{"resourceType":"Condition","id":"35d40f77-1c25-428d-a169-8c810b018f21","code":{"coding":[{"system":"http://snomed.info/sct","code":"271807003"}]},"subject":{"reference":"Patient/e3227160-1dcf-4f12-8897-5dc0557db2f1"},"onsetDateTime":"2022-06-03T00:00:00+00:00"},"request":{"method":"POST","url":"Condition"}},{"fullUrl":"Condition/8150b85e-5c3c-4993-b007-4f37b8485d4b","resource":{"resourceType":"Condition","id":"8150b85e-5c3c-4993-b007-4f37b8485d4b","code":{"coding":[{"system":"http://snomed.info/sct","code":"405737000"}]},"subject":{"reference":"Patient/e3227160-1dcf-4f12-8897-5dc0557db2f1"},"onsetDateTime":"2022-11-10T00:00:00+00:00"},"request":{"method":"POST","url":"Condition"}},{"fullUrl":"Observation/ef933004-6236-4a6f-9e23-7751dd9add94","resource":{"resourceType":"Observation","id":"ef933004-6236-4a6f-9e23-7751dd9add94","status":"final","code":{"coding":[{"system":"http://loinc.org","code":"804-5"}]},"subject":{"reference":"Patient/e3227160-1dcf-4f12-8897-5dc0557db2f1"},"effectiveDateTime":"2022-08-11T00:00:00+00:00","valueQuantity":{"value":9}},"request":{"method":"POST","url":"Observation"}},{"fullUrl":"Observation/5d279531-8307-4630-b3cd-c253cf70c10c","resource":{"resourceType":"Observation","id":"5d279531-8307-4630-b3cd-c253cf70c10c","status":"final","code":{"coding":[{"system":"http://www.ama-assn.org/go/cpt","code":"85048"}]},"subject":{"reference":"Patient/e3227160-1dcf-4f12-8897-5dc0557db2f1"},"effectiveDateTime":"2022-03-18T00:00:00+00:00","valueQuantity":{"value":4.9}},"request":{"method":"POST","url":"Observation"}},{"fullUrl":"Observation/777c474b-c87d-4c82-ac13-13cee5e6c30e","resource":{"resourceType":"Observation","id":"777c474b-c87d-4c82-ac13-13cee5e6c30e","status":"final","code":{"coding":[{"system":"http://loinc.org","code":"26464-8"}]},"subject":{"reference":"Patient/e3227160-1dcf-4f12-8897-5dc0557db2f1"},"effectiveDateTime":"2022-07-27T00:00:00+00:00","valueCodeableConcept":{"coding":[{"system":"snomed","code":"123456","display":"fake snomed"}]}},"request":{"method":"POST","url":"Observation"}},{"fullUrl":"Observation/da63aaf0-ef0a-4f83-8ea1-63f6cc50fc51","resource":{"resourceType":"Observation","id":"da63aaf0-ef0a-4f83-8ea1-63f6cc50fc51","status":"final","code":{"coding":[{"system":"http://loinc.org","code":"26464-8"}]},"subject":{"reference":"Patient/e3227160-1dcf-4f12-8897-5dc0557db2f1"},"effectiveDateTime":"2022-08-27T00:00:00+00:00","valueCodeableConcept":{"coding":[{"system":"snomed","code":"123456","display":"fake snomed"}]}},"request":{"method":"POST","url":"Observation"}},{"fullUrl":"Observation/89470673-8ce0-404d-831c-9560b0c9f0d2","resource":{"resourceType":"Observation","id":"89470673-8ce0-404d-831c-9560b0c9f0d2","status":"final","code":{"coding":[{"system":"http://loinc.org","code":"49498-9"}]},"subject":{"reference":"Patient/e3227160-1dcf-4f12-8897-5dc0557db2f1"},"effectiveDateTime":"2022-09-26T00:00:00+00:00"},"request":{"method":"POST","url":"Observation"}},{"fullUrl":"Observation/735b1c50-6ff2-4a1f-89f1-db41fc81f377","resource":{"resourceType":"Observation","id":"735b1c50-6ff2-4a1f-89f1-db41fc81f377","status":"final","code":{"coding":[{"system":"http://loinc.org","code":"49498-9"}]},"subject":{"reference":"Patient/e3227160-1dcf-4f12-8897-5dc0557db2f1"},"effectiveDateTime":"2022-03-17T00:00:00+00:00"},"request":{"method":"POST","url":"Observation"}},{"fullUrl":"Procedure/8e20ba77-f076-41fa-9cd0-6d455098cc92","resource":{"resourceType":"Procedure","id":"8e20ba77-f076-41fa-9cd0-6d455098cc92","status":"completed","code":{"coding":[{"system":"http://snomed.info/sct","code":"189009"}]},"subject":{"reference":"Patient/e3227160-1dcf-4f12-8897-5dc0557db2f1"},"performedDateTime":"2022-03-16T00:00:00+00:00"},"request":{"method":"POST","url":"Procedure"}},{"fullUrl":"Procedure/306d81c6-a52d-4e77-aa85-fe429516449e","resource":{"resourceType":"Procedure","id":"306d81c6-a52d-4e77-aa85-fe429516449e","status":"completed","code":{"coding":[{"system":"http://snomed.info/sct","code":"189009"}]},"subject":{"reference":"Patient/e3227160-1dcf-4f12-8897-5dc0557db2f1"},"performedDateTime":"2022-10-10T00:00:00+00:00"},"request":{"method":"POST","url":"Procedure"}},{"fullUrl":"Procedure/55f9982c-cfaf-4bab-a683-12c1d4679e96","resource":{"resourceType":"Procedure","id":"55f9982c-cfaf-4bab-a683-12c1d4679e96","status":"completed","code":{"coding":[{"system":"http://snomed.info/sct","code":"647000"}]},"subject":{"reference":"Patient/e3227160-1dcf-4f12-8897-5dc0557db2f1"},"performedDateTime":"2022-11-12T00:00:00+00:00"},"request":{"method":"POST","url":"Procedure"}},{"fullUrl":"MedicationStatement/84056f00-8feb-4f5c-af87-228e85f53ac7","resource":{"resourceType":"MedicationStatement","id":"84056f00-8feb-4f5c-af87-228e85f53ac7","status":"completed","medicationCodeableConcept":{"coding":[{"system":"http://www.nlm.nih.gov/research/umls/rxnorm","code":"2193"}]},"subject":{"reference":"Patient/e3227160-1dcf-4f12-8897-5dc0557db2f1"},"effectiveDateTime":"2022-12-21T00:00:00+00:00","dosage":[{"doseAndRate":[{"doseQuantity":{"value":2,"unit":"TAB","system":"http://terminology.hl7.org/CodeSystem/v3-orderableDrugForm","code":"TAB"}}]}]},"request":{"method":"POST","url":"MedicationStatement"}},{"fullUrl":"MedicationStatement/eac4f20a-342a-4d71-803c-1dc2a1294d8f","resource":{"resourceType":"MedicationStatement","id":"eac4f20a-342a-4d71-803c-1dc2a1294d8f","status":"completed","medicationCodeableConcept":{"coding":[{"system":"http://www.nlm.nih.gov/research/umls/rxnorm","code":"2193"}]},"subject":{"reference":"Patient/e3227160-1dcf-4f12-8897-5dc0557db2f1"},"effectiveDateTime":"2022-06-26T00:00:00+00:00","dosage":[{"doseAndRate":[{"doseQuantity":{"value":1,"unit":"TAB","system":"http://terminology.hl7.org/CodeSystem/v3-orderableDrugForm","code":"TAB"}}]}]},"request":{"method":"POST","url":"MedicationStatement"}},{"fullUrl":"MedicationStatement/341f01c8-74a4-4f49-9961-0b8bd30a6ab9","resource":{"resourceType":"MedicationStatement","id":"341f01c8-74a4-4f49-9961-0b8bd30a6ab9","status":"completed","medicationCodeableConcept":{"coding":[{"system":"http://www.nlm.nih.gov/research/umls/rxnorm","code":"2193"}]},"subject":{"reference":"Patient/e3227160-1dcf-4f12-8897-5dc0557db2f1"},"effectiveDateTime":"2022-11-26T00:00:00+00:00","dosage":[{"doseAndRate":[{"doseQuantity":{"value":1,"unit":"TAB","system":"http://terminology.hl7.org/CodeSystem/v3-orderableDrugForm","code":"TAB"}}]}]},"request":{"method":"POST","url":"MedicationStatement"}},{"fullUrl":"MedicationStatement/176ee45d-4a50-4a5b-a173-b3cfc066ff23","resource":{"resourceType":"MedicationStatement","id":"176ee45d-4a50-4a5b-a173-b3cfc066ff23","status":"completed","medicationCodeableConcept":{"coding":[{"system":"http://www.nlm.nih.gov/research/umls/rxnorm","code":"3640"}]},"subject":{"reference":"Patient/e3227160-1dcf-4f12-8897-5dc0557db2f1"},"effectiveDateTime":"2022-11-08T00:00:00+00:00","dosage":[{"doseAndRate":[{"doseQuantity":{"value":2,"unit":"TAB","system":"http://terminology.hl7.org/CodeSystem/v3-orderableDrugForm","code":"TAB"}}]}]},"request":{"method":"POST","url":"MedicationStatement"}},{"fullUrl":"MedicationStatement/7d7335a6-4c72-458a-828b-df7e1c39a2fe","resource":{"resourceType":"MedicationStatement","id":"7d7335a6-4c72-458a-828b-df7e1c39a2fe","status":"completed","medicationCodeableConcept":{"coding":[{"system":"http://www.nlm.nih.gov/research/umls/rxnorm","code":"7980"}]},"subject":{"reference":"Patient/e3227160-1dcf-4f12-8897-5dc0557db2f1"},"effectiveDateTime":"2022-05-25T00:00:00+00:00","dosage":[{"doseAndRate":[{"doseQuantity":{"value":4.7,"unit":"TAB","system":"http://terminology.hl7.org/CodeSystem/v3-orderableDrugForm","code":"TAB"}}]}]},"request":{"method":"POST","url":"MedicationStatement"}},{"fullUrl":"MedicationStatement/2db89c21-aa1c-4953-b224-cda6b9f87bf2","resource":{"resourceType":"MedicationStatement","id":"2db89c21-aa1c-4953-b224-cda6b9f87bf2","status":"completed","medicationCodeableConcept":{"coding":[{"system":"http://www.nlm.nih.gov/research/umls/rxnorm","code":"10395"}]},"subject":{"reference":"Patient/e3227160-1dcf-4f12-8897-5dc0557db2f1"},"effectiveDateTime":"2022-06-23T00:00:00+00:00","dosage":[{"doseAndRate":[{"doseQuantity":{"value":3.8,"unit":"TAB","system":"http://terminology.hl7.org/CodeSystem/v3-orderableDrugForm","code":"TAB"}}]}]},"request":{"method":"POST","url":"MedicationStatement"}},{"fullUrl":"MedicationStatement/b5f7a1ad-dc7b-4151-91e7-8053096cf89e","resource":{"resourceType":"MedicationStatement","id":"b5f7a1ad-dc7b-4151-91e7-8053096cf89e","status":"completed","medicationCodeableConcept":{"coding":[{"system":"http://www.nlm.nih.gov/research/umls/rxnorm","code":"7980"}]},"subject":{"reference":"Patient/e3227160-1dcf-4f12-8897-5dc0557db2f1"},"effectiveDateTime":"2022-05-15T00:00:00+00:00","dosage":[{"doseAndRate":[{"doseQuantity":{"value":4.4,"unit":"TAB","system":"http://terminology.hl7.org/CodeSystem/v3-orderableDrugForm","code":"TAB"}}]}]},"request":{"method":"POST","url":"MedicationStatement"}},{"fullUrl":"MedicationStatement/6e26ead5-85fd-452d-9083-ec28b51046f4","resource":{"resourceType":"MedicationStatement","id":"6e26ead5-85fd-452d-9083-ec28b51046f4","status":"completed","medicationCodeableConcept":{"coding":[{"system":"http://www.nlm.nih.gov/research/umls/rxnorm","code":"8698"}]},"subject":{"reference":"Patient/e3227160-1dcf-4f12-8897-5dc0557db2f1"},"effectiveDateTime":"2022-06-21T00:00:00+00:00","dosage":[{"doseAndRate":[{"doseQuantity":{"value":5.5,"unit":"TAB","system":"http://terminology.hl7.org/CodeSystem/v3-orderableDrugForm","code":"TAB"}}]}]},"request":{"method":"POST","url":"MedicationStatement"}},{"fullUrl":"Encounter/b2c47a1e-924e-4a29-9394-3961752f1e29","resource":{"resourceType":"Encounter","id":"b2c47a1e-924e-4a29-9394-3961752f1e29","status":"finished","class":{"system":"http://terminology.hl7.org/CodeSystem/v3-ActCode","code":"IMP","display":"inpatient encounter"},"type":[{"coding":[{"system":"http://terminology.hl7.org/CodeSystem/encounter-type","code":"BD/BM-clin"}]}],"subject":{"reference":"Patient/e3227160-1dcf-4f12-8897-5dc0557db2f1"},"period":{"start":"2022-08-12T00:00:00+00:00","end":"2022-08-13T00:00:00+00:00"}},"request":{"method":"POST","url":"Encounter"}},{"fullUrl":"Encounter/34a1e3bd-9ff0-44b2-99f3-c532794fe22d","resource":{"resourceType":"Encounter","id":"34a1e3bd-9ff0-44b2-99f3-c532794fe22d","status":"finished","class":{"system":"http://terminology.hl7.org/CodeSystem/v3-ActCode","code":"IMP","display":"inpatient encounter"},"type":[{"coding":[{"system":"http://terminology.hl7.org/CodeSystem/encounter-type","code":"OKI"}]}],"subject":{"reference":"Patient/e3227160-1dcf-4f12-8897-5dc0557db2f1"},"period":{"start":"2022-06-21T00:00:00+00:00","end":"2022-06-30T00:00:00+00:00"}},"request":{"method":"POST","url":"Encounter"}},{"fullUrl":"Encounter/b0efa353-1074-48ef-977f-399f35304913","resource":{"resourceType":"Encounter","id":"b0efa353-1074-48ef-977f-399f35304913","status":"finished","class":{"system":"http://terminology.hl7.org/CodeSystem/v3-ActCode","code":"IMP","display":"inpatient encounter"},"type":[{"coding":[{"system":"http://terminology.hl7.org/CodeSystem/encounter-type","code":"ADMS"}]}],"subject":{"reference":"Patient/e3227160-1dcf-4f12-8897-5dc0557db2f1"},"period":{"start":"2022-07-22T00:00:00+00:00","end":"2022-07-30T00:00:00+00:00"}},"request":{"method":"POST","url":"Encounter"}},{"fullUrl":"Encounter/59f34b1c-0fc2-4c88-b889-a92ae768c460","resource":{"resourceType":"Encounter","id":"59f34b1c-0fc2-4c88-b889-a92ae768c460","status":"finished","class":{"system":"http://terminology.hl7.org/CodeSystem/v3-ActCode","code":"ACUTE","display":"inpatient acute"},"type":[{"coding":[{"system":"http://terminology.hl7.org/CodeSystem/encounter-type","code":"ADMS"}]}],"subject":{"reference":"Patient/e3227160-1dcf-4f12-8897-5dc0557db2f1"},"period":{"start":"2022-06-07T00:00:00+00:00","end":"2022-06-14T00:00:00+00:00"}},"request":{"method":"POST","url":"Encounter"}},{"fullUrl":"Encounter/237e4697-eb06-4841-911d-e1448aea8f81","resource":{"resourceType":"Encounter","id":"237e4697-eb06-4841-911d-e1448aea8f81","status":"finished","class":{"system":"http://terminology.hl7.org/CodeSystem/v3-ActCode","code":"NONAC","display":"inpatient non-acute"},"type":[{"coding":[{"system":"http://terminology.hl7.org/CodeSystem/encounter-type","code":"BD/BM-clin"}]}],"subject":{"reference":"Patient/e3227160-1dcf-4f12-8897-5dc0557db2f1"},"period":{"start":"2022-11-07T00:00:00+00:00","end":"2022-11-16T00:00:00+00:00"}},"request":{"method":"POST","url":"Encounter"}},{"fullUrl":"Location/46b0e9cf-2135-42b8-bd71-7ee14b7dbef7","resource":{"resourceType":"Location","id":"46b0e9cf-2135-42b8-bd71-7ee14b7dbef7","status":"active","name":"Hunt, Garcia and Fletcher","telecom":[{"system":"phone","value":"(344)721-1976","use":"mobile"}],"address":{"use":"work","line":["18287 Holly Loop Suite 668"],"city":"New Cameron","state":"WV","postalCode":"31489"}},"request":{"method":"POST","url":"Location"}},{"fullUrl":"Observation/00fb20eb-ecfa-464c-9536-769e191d6604","resource":{"resourceType":"Observation","id":"00fb20eb-ecfa-464c-9536-769e191d6604","status":"final","code":{"coding":[{"system":"http://loinc.org","code":"81956-5"}]},"subject":{"reference":"Patient/e3227160-1dcf-4f12-8897-5dc0557db2f1"},"effectiveDateTime":"2022-10-21T00:00:00+00:00","valueDateTime":"2022-09-13T00:00:00+00:00"},"request":{"method":"POST","url":"Observation"}},{"fullUrl":"Patient/30d5c23d-29bb-4560-8c44-71ea3729c073","resource":{"resourceType":"Patient","id":"30d5c23d-29bb-4560-8c44-71ea3729c073","identifier":[{"type":{"coding":[{"system":"http://terminology.hl7.org/CodeSystem/v2-0203","code":"MR"}]},"system":"urn:fhirgen:mrn","value":"318-93-1086"},{"system":"http://hl7.org/fhir/sid/us-ssn","value":"151-40-8893"}],"name":[{"use":"official","family":"Ballard","given":["Melissa"]},{"use":"maiden","family":"Gordon"}],"telecom":[{"system":"phone","value":"+1-116-411-8713x117","use":"home"},{"system":"email","value":"donald55@yahoo.com","use":"work"}],"gender":"other","birthDate":"1970-10-02","address":[{"use":"home","line":["3217 Allison Passage"],"city":"Moranmouth","state":"MI","postalCode":"49644"},{"use":"old","line":["486 Pamela Lock Suite 273"],"city":"Port Breanna","state":"NH","postalCode":"05298"}],"maritalStatus":{"coding":[{"system":"http://terminology.hl7.org/CodeSystem/v3-MaritalStatus","code":"L","display":"Legally Separated"}]}},"request":{"method":"POST","url":"Patient"}},{"fullUrl":"Observation/590ede0d-9eb0-4ef6-83cd-ddf9d8392e4c","resource":{"resourceType":"Observation","id":"590ede0d-9eb0-4ef6-83cd-ddf9d8392e4c","status":"final","code":{"coding":[{"system":"http://loinc.org","code":"46203-6"}]},"subject":{"reference":"Patient/30d5c23d-29bb-4560-8c44-71ea3729c073"},"effectiveDateTime":"2022-01-09T00:00:00+00:00","valueRatio":{"numerator":{"value":1},"denominator":{"value":64}}},"request":{"method":"POST","url":"Observation"}},{"fullUrl":"Observation/617675c4-86f2-48f4-b00f-006bd0a85170","resource":{"resourceType":"Observation","id":"617675c4-86f2-48f4-b00f-006bd0a85170","status":"final","code":{"coding":[{"system":"http://loinc.org","code":"87925-4"}]},"subject":{"reference":"Patient/30d5c23d-29bb-4560-8c44-71ea3729c073"},"effectiveDateTime":"2022-06-10T00:00:00+00:00","valueRatio":{"numerator":{"value":1},"denominator":{"value":64}}},"request":{"method":"POST","url":"Observation"}},{"fullUrl":"Observation/347f0286-ac39-4b72-9164-06d74e8dac26","resource":{"resourceType":"Observation","id":"347f0286-ac39-4b72-9164-06d74e8dac26","status":"final","code":{"coding":[{"system":"http://loinc.org","code":"71793-4"}]},"subject":{"reference":"Patient/30d5c23d-29bb-4560-8c44-71ea3729c073"},"effectiveDateTime":"2022-08-13T00:00:00+00:00","valueRatio":{"numerator":{"value":1},"denominator":{"value":64}}},"request":{"method":"POST","url":"Observation"}},{"fullUrl":"Condition/ffa38ee1-3a43-4250-bafb-21eeafadce9f","resource":{"resourceType":"Condition","id":"ffa38ee1-3a43-4250-bafb-21eeafadce9f","code":{"coding":[{"system":"http://snomed.info/sct","code":"44882003"}]},"subject":{"reference":"Patient/30d5c23d-29bb-4560-8c44-71ea3729c073"},"onsetDateTime":"2022-07-17T00:00:00+00:00"},"request":{"method":"POST","url":"Condition"}},{"fullUrl":"Condition/f030c85e-e55e-4064-b237-876027385f1f","resource":{"resourceType":"Condition","id":"f030c85e-e55e-4064-b237-876027385f1f","code":{"coding":[{"system":"http://snomed.info/sct","code":"736686006"}]},"subject":{"reference":"Patient/30d5c23d-29bb-4560-8c44-71ea3729c073"},"onsetDateTime":"2022-09-22T00:00:00+00:00"},"request":{"method":"POST","url":"Condition"}},{"fullUrl":"Condition/a4c3ef3e-f2ae-4d04-8a17-53634b7ae8ff","resource":{"resourceType":"Condition","id":"a4c3ef3e-f2ae-4d04-8a17-53634b7ae8ff","code":{"coding":[{"system":"http://snomed.info/sct","code":"71315007"}]},"subject":{"reference":"Patient/30d5c23d-29bb-4560-8c44-71ea3729c073"},"onsetDateTime":"2022-04-19T00:00:00+00:00"},"request":{"method":"POST","url":"Condition"}},{"fullUrl":"Condition/4c3d0eb3-e92c-459d-8979-e2cdf4865b48","resource":{"resourceType":"Condition","id":"4c3d0eb3-e92c-459d-8979-e2cdf4865b48","code":{"coding":[{"system":"http://snomed.info/sct","code":"386661006"}]},"subject":{"reference":"Patient/30d5c23d-29bb-4560-8c44-71ea3729c073"},"onsetDateTime":"2022-04-04T00:00:00+00:00"},"request":{"method":"POST","url":"Condition"}},{"fullUrl":"Condition/9dc657eb-4274-4d15-b8ab-25be31578a8f","resource":{"resourceType":"Condition","id":"9dc657eb-4274-4d15-b8ab-25be31578a8f","code":{"coding":[{"system":"http://snomed.info/sct","code":"71315007"}]},"subject":{"reference":"Patient/30d5c23d-29bb-4560-8c44-71ea3729c073"},"onsetDateTime":"2022-06-21T00:00:00+00:00"},"request":{"method":"POST","url":"Condition"}},{"fullUrl":"Observation/844daede-1e6d-4aad-99d1-44bb8a513403","resource":{"resourceType":"Observation","id":"844daede-1e6d-4aad-99d1-44bb8a513403","status":"final","code":{"coding":[{"system":"http://loinc.org","code":"804-5"}]},"subject":{"reference":"Patient/30d5c23d-29bb-4560-8c44-71ea3729c073"},"effectiveDateTime":"2022-02-16T00:00:00+00:00","valueQuantity":{"value":4.4}},"request":{"method":"POST","url":"Observation"}},{"fullUrl":"Observation/edd8a2eb-5829-4ebc-84f7-d4fd2faf1815","resource":{"resourceType":"Observation","id":"edd8a2eb-5829-4ebc-84f7-d4fd2faf1815","status":"final","code":{"coding":[{"system":"http://loinc.org","code":"49498-9"}]},"subject":{"reference":"Patient/30d5c23d-29bb-4560-8c44-71ea3729c073"},"effectiveDateTime":"2022-06-26T00:00:00+00:00","valueQuantity":{"value":5.2}},"request":{"method":"POST","url":"Observation"}},{"fullUrl":"Observation/c8bf2bcf-576f-4095-84b1-5a42e827a25d","resource":{"resourceType":"Observation","id":"c8bf2bcf-576f-4095-84b1-5a42e827a25d","status":"final","code":{"coding":[{"system":"http://loinc.org","code":"26464-8"}]},"subject":{"reference":"Patient/30d5c23d-29bb-4560-8c44-71ea3729c073"},"effectiveDateTime":"2022-08-15T00:00:00+00:00","valueQuantity":{"value":5.5}},"request":{"method":"POST","url":"Observation"}},{"fullUrl":"Observation/39c736dd-71c9-4412-b9da-64243f64482f","resource":{"resourceType":"Observation","id":"39c736dd-71c9-4412-b9da-64243f64482f","status":"final","code":{"coding":[{"system":"http://loinc.org","code":"804-5"}]},"subject":{"reference":"Patient/30d5c23d-29bb-4560-8c44-71ea3729c073"},"effectiveDateTime":"2022-09-26T00:00:00+00:00","valueCodeableConcept":{"coding":[{"system":"snomed","code":"123456","display":"fake snomed"}]}},"request":{"method":"POST","url":"Observation"}},{"fullUrl":"Observation/7b4b1874-e07d-4038-9b73-1ca0c714d4c8","resource":{"resourceType":"Observation","id":"7b4b1874-e07d-4038-9b73-1ca0c714d4c8","status":"final","code":{"coding":[{"system":"http://loinc.org","code":"49498-9"}]},"subject":{"reference":"Patient/30d5c23d-29bb-4560-8c44-71ea3729c073"},"effectiveDateTime":"2022-07-13T00:00:00+00:00","valueCodeableConcept":{"coding":[{"system":"snomed","code":"123456","display":"fake snomed"}]}},"request":{"method":"POST","url":"Observation"}},{"fullUrl":"Observation/63e2f230-7e88-416c-b0f1-14d22e35aaf9","resource":{"resourceType":"Observation","id":"63e2f230-7e88-416c-b0f1-14d22e35aaf9","status":"final","code":{"coding":[{"system":"http://loinc.org","code":"49498-9"}]},"subject":{"reference":"Patient/30d5c23d-29bb-4560-8c44-71ea3729c073"},"effectiveDateTime":"2022-12-13T00:00:00+00:00","valueCodeableConcept":{"coding":[{"system":"snomed","code":"123456","display":"fake snomed"}]}},"request":{"method":"POST","url":"Observation"}},{"fullUrl":"Observation/bde406e1-54a2-4499-acff-f86c7714efae","resource":{"resourceType":"Observation","id":"bde406e1-54a2-4499-acff-f86c7714efae","status":"final","code":{"coding":[{"system":"http://loinc.org","code":"49498-9"}]},"subject":{"reference":"Patient/30d5c23d-29bb-4560-8c44-71ea3729c073"},"effectiveDateTime":"2022-12-18T00:00:00+00:00"},"request":{"method":"POST","url":"Observation"}},{"fullUrl":"Observation/ccd6bddc-4a89-4390-bc54-175f9c6e414d","resource":{"resourceType":"Observation","id":"ccd6bddc-4a89-4390-bc54-175f9c6e414d","status":"final","code":{"coding":[{"system":"http://loinc.org","code":"49498-9"}]},"subject":{"reference":"Patient/30d5c23d-29bb-4560-8c44-71ea3729c073"},"effectiveDateTime":"2022-01-09T00:00:00+00:00"},"request":{"method":"POST","url":"Observation"}},{"fullUrl":"Observation/785816dc-48f9-4376-96a6-3493fcf4d791","resource":{"resourceType":"Observation","id":"785816dc-48f9-4376-96a6-3493fcf4d791","status":"final","code":{"coding":[{"system":"http://loinc.org","code":"49498-9"}]},"subject":{"reference":"Patient/30d5c23d-29bb-4560-8c44-71ea3729c073"},"effectiveDateTime":"2022-09-18T00:00:00+00:00"},"request":{"method":"POST","url":"Observation"}},{"fullUrl":"Procedure/15503771-2b31-4ea3-8c08-ef880dc9e7cc","resource":{"resourceType":"Procedure","id":"15503771-2b31-4ea3-8c08-ef880dc9e7cc","status":"completed","code":{"coding":[{"system":"http://snomed.info/sct","code":"189009"}]},"subject":{"reference":"Patient/30d5c23d-29bb-4560-8c44-71ea3729c073"},"performedDateTime":"2022-01-30T00:00:00+00:00"},"request":{"method":"POST","url":"Procedure"}},{"fullUrl":"Procedure/5bfa827b-faac-4167-b8c1-e345e8fef2fa","resource":{"resourceType":"Procedure","id":"5bfa827b-faac-4167-b8c1-e345e8fef2fa","status":"completed","code":{"coding":[{"system":"http://snomed.info/sct","code":"104001"}]},"subject":{"reference":"Patient/30d5c23d-29bb-4560-8c44-71ea3729c073"},"performedDateTime":"2022-12-27T00:00:00+00:00"},"request":{"method":"POST","url":"Procedure"}},{"fullUrl":"Procedure/ce56486b-dcc0-4ceb-adf6-c01e0fef887f","resource":{"resourceType":"Procedure","id":"ce56486b-dcc0-4ceb-adf6-c01e0fef887f","status":"completed","code":{"coding":[{"system":"http://snomed.info/sct","code":"647000"}]},"subject":{"reference":"Patient/30d5c23d-29bb-4560-8c44-71ea3729c073"},"performedDateTime":"2022-01-17T00:00:00+00:00"},"request":{"method":"POST","url":"Procedure"}},{"fullUrl":"MedicationStatement/f59e0607-2817-45a9-b480-5463854e0f0e","resource":{"resourceType":"MedicationStatement","id":"f59e0607-2817-45a9-b480-5463854e0f0e","status":"completed","medicationCodeableConcept":{"coding":[{"system":"http://www.nlm.nih.gov/research/umls/rxnorm","code":"7984"}]},"subject":{"reference":"Patient/30d5c23d-29bb-4560-8c44-71ea3729c073"},"effectiveDateTime":"2022-01-22T00:00:00+00:00","dosage":[{"doseAndRate":[{"doseQuantity":{"value":2,"unit":"TAB","system":"http://terminology.hl7.org/CodeSystem/v3-orderableDrugForm","code":"TAB"}}]}]},"request":{"method":"POST","url":"MedicationStatement"}},{"fullUrl":"MedicationStatement/7b66bf81-5bb6-402c-bea8-98e7ee4dd251","resource":{"resourceType":"MedicationStatement","id":"7b66bf81-5bb6-402c-bea8-98e7ee4dd251","status":"completed","medicationCodeableConcept":{"coding":[{"system":"http://www.nlm.nih.gov/research/umls/rxnorm","code":"10395"}]},"subject":{"reference":"Patient/30d5c23d-29bb-4560-8c44-71ea3729c073"},"effectiveDateTime":"2022-06-30T00:00:00+00:00","dosage":[{"doseAndRate":[{"doseQuantity":{"value":2,"unit":"TAB","system":"http://terminology.hl7.org/CodeSystem/v3-orderableDrugForm","code":"TAB"}}]}]},"request":{"method":"POST","url":"MedicationStatement"}},{"fullUrl":"MedicationStatement/6dd290df-67b8-4bd7-a761-cf56996129b5","resource":{"resourceType":"MedicationStatement","id":"6dd290df-67b8-4bd7-a761-cf56996129b5","status":"completed","medicationCodeableConcept":{"coding":[{"system":"http://www.nlm.nih.gov/research/umls/rxnorm","code":"10395"}]},"subject":{"reference":"Patient/30d5c23d-29bb-4560-8c44-71ea3729c073"},"effectiveDateTime":"2022-12-23T00:00:00+00:00","dosage":[{"doseAndRate":[{"doseQuantity":{"value":2,"unit":"TAB","system":"http://terminology.hl7.org/CodeSystem/v3-orderableDrugForm","code":"TAB"}}]}]},"request":{"method":"POST","url":"MedicationStatement"}},{"fullUrl":"MedicationStatement/2643bd67-0f6a-4f57-b259-978ca4e7c4c9","resource":{"resourceType":"MedicationStatement","id":"2643bd67-0f6a-4f57-b259-978ca4e7c4c9","status":"completed","medicationCodeableConcept":{"coding":[{"system":"http://www.nlm.nih.gov/research/umls/rxnorm","code":"2193"}]},"subject":{"reference":"Patient/30d5c23d-29bb-4560-8c44-71ea3729c073"},"effectiveDateTime":"2022-05-06T00:00:00+00:00","dosage":[{"doseAndRate":[{"doseQuantity":{"value":2,"unit":"TAB","system":"http://terminology.hl7.org/CodeSystem/v3-orderableDrugForm","code":"TAB"}}]}]},"request":{"method":"POST","url":"MedicationStatement"}},{"fullUrl":"MedicationStatement/5d5f3ada-1140-43e1-a19d-919b6d7d04ed","resource":{"resourceType":"MedicationStatement","id":"5d5f3ada-1140-43e1-a19d-919b6d7d04ed","status":"completed","medicationCodeableConcept":{"coding":[{"system":"http://www.nlm.nih.gov/research/umls/rxnorm","code":"10395"}]},"subject":{"reference":"Patient/30d5c23d-29bb-4560-8c44-71ea3729c073"},"effectiveDateTime":"2022-12-30T00:00:00+00:00","dosage":[{"doseAndRate":[{"doseQuantity":{"value":4.8,"unit":"TAB","system":"http://terminology.hl7.org/CodeSystem/v3-orderableDrugForm","code":"TAB"}}]}]},"request":{"method":"POST","url":"MedicationStatement"}},{"fullUrl":"MedicationStatement/e2260e57-ad0c-440d-88cb-b661076f6fc6","resource":{"resourceType":"MedicationStatement","id":"e2260e57-ad0c-440d-88cb-b661076f6fc6","status":"completed","medicationCodeableConcept":{"coding":[{"system":"http://www.nlm.nih.gov/research/umls/rxnorm","code":"18631"}]},"subject":{"reference":"Patient/30d5c23d-29bb-4560-8c44-71ea3729c073"},"effectiveDateTime":"2022-06-08T00:00:00+00:00","dosage":[{"doseAndRate":[{"doseQuantity":{"value":6.5,"unit":"TAB","system":"http://terminology.hl7.org/CodeSystem/v3-orderableDrugForm","code":"TAB"}}]}]},"request":{"method":"POST","url":"MedicationStatement"}},{"fullUrl":"MedicationStatement/091568b2-df79-4e00-9fb7-9cabb169f35b","resource":{"resourceType":"MedicationStatement","id":"091568b2-df79-4e00-9fb7-9cabb169f35b","status":"completed","medicationCodeableConcept":{"coding":[{"system":"http://www.nlm.nih.gov/research/umls/rxnorm","code":"8698"}]},"subject":{"reference":"Patient/30d5c23d-29bb-4560-8c44-71ea3729c073"},"effectiveDateTime":"2022-08-14T00:00:00+00:00","dosage":[{"doseAndRate":[{"doseQuantity":{"value":5.4,"unit":"TAB","system":"http://terminology.hl7.org/CodeSystem/v3-orderableDrugForm","code":"TAB"}}]}]},"request":{"method":"POST","url":"MedicationStatement"}},{"fullUrl":"MedicationStatement/5a5d9907-3638-456c-9b1f-3833b04a037a","resource":{"resourceType":"MedicationStatement","id":"5a5d9907-3638-456c-9b1f-3833b04a037a","status":"completed","medicationCodeableConcept":{"coding":[{"system":"http://www.nlm.nih.gov/research/umls/rxnorm","code":"10395"}]},"subject":{"reference":"Patient/30d5c23d-29bb-4560-8c44-71ea3729c073"},"effectiveDateTime":"2022-07-21T00:00:00+00:00","dosage":[{"doseAndRate":[{"doseQuantity":{"value":4.8,"unit":"TAB","system":"http://terminology.hl7.org/CodeSystem/v3-orderableDrugForm","code":"TAB"}}]}]},"request":{"method":"POST","url":"MedicationStatement"}},{"fullUrl":"MedicationStatement/61491a28-7f75-4111-a84d-f72c646cb8d2","resource":{"resourceType":"MedicationStatement","id":"61491a28-7f75-4111-a84d-f72c646cb8d2","status":"completed","medicationCodeableConcept":{"coding":[{"system":"http://www.nlm.nih.gov/research/umls/rxnorm","code":"7980"}]},"subject":{"reference":"Patient/30d5c23d-29bb-4560-8c44-71ea3729c073"},"effectiveDateTime":"2022-11-11T00:00:00+00:00","dosage":[{"doseAndRate":[{"doseQuantity":{"value":5.8,"unit":"TAB","system":"http://terminology.hl7.org/CodeSystem/v3-orderableDrugForm","code":"TAB"}}]}]},"request":{"method":"POST","url":"MedicationStatement"}},{"fullUrl":"MedicationStatement/0570882d-0d6a-4f40-ab18-c9b07d69f300","resource":{"resourceType":"MedicationStatement","id":"0570882d-0d6a-4f40-ab18-c9b07d69f300","status":"completed","medicationCodeableConcept":{"coding":[{"system":"http://www.nlm.nih.gov/research/umls/rxnorm","code":"7984"}]},"subject":{"reference":"Patient/30d5c23d-29bb-4560-8c44-71ea3729c073"},"effectiveDateTime":"2022-04-20T00:00:00+00:00","dosage":[{"doseAndRate":[{"doseQuantity":{"value":5,"unit":"TAB","system":"http://terminology.hl7.org/CodeSystem/v3-orderableDrugForm","code":"TAB"}}]}]},"request":{"method":"POST","url":"MedicationStatement"}},{"fullUrl":"Encounter/77d056b0-bdaf-4e44-8427-6b087527e6e9","resource":{"resourceType":"Encounter","id":"77d056b0-bdaf-4e44-8427-6b087527e6e9","status":"finished","class":{"system":"http://terminology.hl7.org/CodeSystem/v3-ActCode","code":"IMP","display":"inpatient encounter"},"type":[{"coding":[{"system":"http://terminology.hl7.org/CodeSystem/encounter-type","code":"CCS60"}]}],"subject":{"reference":"Patient/30d5c23d-29bb-4560-8c44-71ea3729c073"},"period":{"start":"2022-12-05T00:00:00+00:00","end":"2022-12-12T00:00:00+00:00"}},"request":{"method":"POST","url":"Encounter"}},{"fullUrl":"Encounter/150a0a92-91dc-4589-88ab-40ca08240ced","resource":{"resourceType":"Encounter","id":"150a0a92-91dc-4589-88ab-40ca08240ced","status":"finished","class":{"system":"http://terminology.hl7.org/CodeSystem/v3-ActCode","code":"IMP","display":"inpatient encounter"},"type":[{"coding":[{"system":"http://terminology.hl7.org/CodeSystem/encounter-type","code":"BD/BM-clin"}]}],"subject":{"reference":"Patient/30d5c23d-29bb-4560-8c44-71ea3729c073"},"period":{"start":"2022-11-14T00:00:00+00:00","end":"2022-11-23T00:00:00+00:00"}},"request":{"method":"POST","url":"Encounter"}},{"fullUrl":"Encounter/a7c7f0c1-ff7e-45bb-8617-b93a0d311bf3","resource":{"resourceType":"Encounter","id":"a7c7f0c1-ff7e-45bb-8617-b93a0d311bf3","status":"finished","class":{"system":"http://terminology.hl7.org/CodeSystem/v3-ActCode","code":"IMP","display":"inpatient encounter"},"type":[{"coding":[{"system":"http://terminology.hl7.org/CodeSystem/encounter-type","code":"OKI"}]}],"subject":{"reference":"Patient/30d5c23d-29bb-4560-8c44-71ea3729c073"},"period":{"start":"2022-09-02T00:00:00+00:00","end":"2022-09-10T00:00:00+00:00"}},"request":{"method":"POST","url":"Encounter"}},{"fullUrl":"Encounter/f0c04186-5091-4570-8386-53ee46b20608","resource":{"resourceType":"Encounter","id":"f0c04186-5091-4570-8386-53ee46b20608","status":"finished","class":{"system":"http://terminology.hl7.org/CodeSystem/v3-ActCode","code":"AMB","display":"ambulatory"},"type":[{"coding":[{"system":"http://terminology.hl7.org/CodeSystem/encounter-type","code":"OKI"}]}],"subject":{"reference":"Patient/30d5c23d-29bb-4560-8c44-71ea3729c073"},"period":{"start":"2022-12-30T00:00:00+00:00","end":"2022-12-31T00:00:00+00:00"}},"request":{"method":"POST","url":"Encounter"}},{"fullUrl":"Encounter/eaef91a7-8006-4516-ab5a-5ed6fcdd43aa","resource":{"resourceType":"Encounter","id":"eaef91a7-8006-4516-ab5a-5ed6fcdd43aa","status":"finished","class":{"system":"http://terminology.hl7.org/CodeSystem/v3-ActCode","code":"VR","display":"virtual"},"type":[{"coding":[{"system":"http://terminology.hl7.org/CodeSystem/encounter-type","code":"OKI"}]}],"subject":{"reference":"Patient/30d5c23d-29bb-4560-8c44-71ea3729c073"},"period":{"start":"2022-08-31T00:00:00+00:00","end":"2022-09-05T00:00:00+00:00"}},"request":{"method":"POST","url":"Encounter"}},{"fullUrl":"Location/8dc93d79-0999-4908-a99a-48f2eff721f2","resource":{"resourceType":"Location","id":"8dc93d79-0999-4908-a99a-48f2eff721f2","status":"active","name":"Johnson-Bates","telecom":[{"system":"phone","value":"353.277.6133x517","use":"home"}],"address":{"use":"work","line":["935 Jefferson Ridges"],"city":"Lopezchester","state":"CA","postalCode":"22388"}},"request":{"method":"POST","url":"Location"}},{"fullUrl":"Observation/5c5be53c-13bb-4410-89de-0e646c4feaee","resource":{"resourceType":"Observation","id":"5c5be53c-13bb-4410-89de-0e646c4feaee","status":"final","code":{"coding":[{"system":"http://loinc.org","code":"81956-5"}]},"subject":{"reference":"Patient/30d5c23d-29bb-4560-8c44-71ea3729c073"},"effectiveDateTime":"2022-06-08T00:00:00+00:00","valueDateTime":"2022-03-16T00:00:00+00:00"},"request":{"method":"POST","url":"Observation"}}]}