{"resourceType":"Bundle","id":"bf19922d-e825-4343-85a3-36eaad6c76f0","type":"transaction","entry":[{"fullUrl":"Patient/a75f95e4-cd84-4d21-95c1-1503354231d6","resource":{"resourceType":"Patient","id":"a75f95e4-cd84-4d21-95c1-1503354231d6","identifier":[{"type":{"coding":[{"system":"http://terminology.hl7.org/CodeSystem/v2-0203","code":"MR"}]},"system":"urn:fhirgen:mrn","value":"640-27-7923"}],"name":[{"family":"Carter","given":["Zachary"]}],"gender":"male","birthDate":"1997-12-30","address":[{"line":["3798 Jones Loaf Apt. 820"],"city":"North Royville","state":"Delaware"}]},"request":{"method":"POST","url":"Patient"}},{"fullUrl":"Observation/26fa8bb4-9342-48a1-96e3-1766351c6fec","resource":{"resourceType":"Observation","id":"26fa8bb4-9342-48a1-96e3-1766351c6fec","status":"final","code":{"coding":[{"system":"http://loinc.org","code":"34382-2"}]},"subject":{"reference":"Patient/a75f95e4-cd84-4d21-95c1-1503354231d6"},"effectiveDateTime":"2022-10-25T00:00:00+00:00","valueRatio":{"numerator":{"value":1.0},"denominator":{"value":32.0}}},"request":{"method":"POST","url":"Observation"}},{"fullUrl":"Observation/651d4ad8-029b-4977-883c-95153876a08f","resource":{"resourceType":"Observation","id":"651d4ad8-029b-4977-883c-95153876a08f","status":"final","code":{"coding":[{"system":"http://loinc.org","code":"71793-4"}]},"subject":{"reference":"Patient/a75f95e4-cd84-4d21-95c1-1503354231d6"},"effectiveDateTime":"2022-08-11T00:00:00+00:00","valueRatio":{"numerator":{"value":1.0},"denominator":{"value":4.0}}},"request":{"method":"POST","url":"Observation"}},{"fullUrl":"Condition/08677cca-97eb-49dd-b9bf-03d1cc3660ba","resource":{"resourceType":"Condition","id":"08677cca-97eb-49dd-b9bf-03d1cc3660ba","code":{"coding":[{"system":"http://snomed.info/sct","code":"386661006"}]},"subject":{"reference":"Patient/a75f95e4-cd84-4d21-95c1-1503354231d6"},"onsetDateTime":"2022-07-29T00:00:00+00:00"},"request":{"method":"POST","url":"Condition"}},{"fullUrl":"Condition/5bafe7ee-56a7-4a5d-99d6-a7eaaa114f3f","resource":{"resourceType":"Condition","id":"5bafe7ee-56a7-4a5d-99d6-a7eaaa114f3f","code":{"coding":[{"system":"http://snomed.info/sct","code":"71315007"}]},"subject":{"reference":"Patient/a75f95e4-cd84-4d21-95c1-1503354231d6"},"onsetDateTime":"2022-03-11T00:00:00+00:00"},"request":{"method":"POST","url":"Condition"}},{"fullUrl":"Condition/145ca47f-e9d8-4268-ab9b-7dc67b786495","resource":{"resourceType":"Condition","id":"145ca47f-e9d8-4268-ab9b-7dc67b786495","code":{"coding":[{"system":"http://snomed.info/sct","code":"30746006"}]},"subject":{"reference":"Patient/a75f95e4-cd84-4d21-95c1-1503354231d6"},"onsetDateTime":"2022-08-25T00:00:00+00:00"},"request":{"method":"POST","url":"Condition"}},{"fullUrl":"Condition/0627741c-7be5-4e0a-a315-e4eeb3bb9f4d","resource":{"resourceType":"Condition","id":"0627741c-7be5-4e0a-a315-e4eeb3bb9f4d","code":{"coding":[{"system":"http://snomed.info/sct","code":"31070006"}]},"subject":{"reference":"Patient/a75f95e4-cd84-4d21-95c1-1503354231d6"},"onsetDateTime":"2022-01-14T00:00:00+00:00"},"request":{"method":"POST","url":"Condition"}},{"fullUrl":"Condition/f86c03fb-3fd6-4c00-aac5-7993d7fd0cd6","resource":{"resourceType":"Condition","id":"f86c03fb-3fd6-4c00-aac5-7993d7fd0cd6","code":{"coding":[{"system":"http://snomed.info/sct","code":"79342006"}]},"subject":{"reference":"Patient/a75f95e4-cd84-4d21-95c1-1503354231d6"},"onsetDateTime":"2022-08-23T00:00:00+00:00"},"request":{"method":"POST","url":"Condition"}},{"fullUrl":"Condition/f4a7e804-58a0-4c4d-ab3b-caf6b29543c4","resource":{"resourceType":"Condition","id":"f4a7e804-58a0-4c4d-ab3b-caf6b29543c4","code":{"coding":[{"system":"http://snomed.info/sct","code":"21522001"}]},"subject":{"reference":"Patient/a75f95e4-cd84-4d21-95c1-1503354231d6"},"onsetDateTime":"2022-09-29T00:00:00+00:00"},"request":{"method":"POST","url":"Condition"}},{"fullUrl":"Condition/bc8ec4d7-aa85-415e-aa24-b9199e7edc3f","resource":{"resourceType":"Condition","id":"bc8ec4d7-aa85-415e-aa24-b9199e7edc3f","code":{"coding":[{"system":"http://snomed.info/sct","code":"56317004"}]},"subject":{"reference":"Patient/a75f95e4-cd84-4d21-95c1-1503354231d6"},"onsetDateTime":"2022-11-18T00:00:00+00:00"},"request":{"method":"POST","url":"Condition"}},{"fullUrl":"Condition/7f0787c6-19b8-4d6b-9302-f9a8b96add52","resource":{"resourceType":"Condition","id":"7f0787c6-19b8-4d6b-9302-f9a8b96add52","code":{"coding":[{"system":"http://snomed.info/sct","code":"91554004"}]},"subject":{"reference":"Patient/a75f95e4-cd84-4d21-95c1-1503354231d6"},"onsetDateTime":"2022-07-13T00:00:00+00:00"},"request":{"method":"POST","url":"Condition"}},{"fullUrl":"Observation/ce4da456-ead4-428e-bc69-0a8ae65441d1","resource":{"resourceType":"Observation","id":"ce4da456-ead4-428e-bc69-0a8ae65441d1","status":"final","code":{"coding":[{"system":"http://loinc.org","code":"6690-2"}]},"subject":{"reference":"Patient/a75f95e4-cd84-4d21-95c1-1503354231d6"},"effectiveDateTime":"2022-02-04T00:00:00+00:00","valueQuantity":{"value":4.9}},"request":{"method":"POST","url":"Observation"}},{"fullUrl":"Observation/73d80d2d-62f1-4b6b-8965-edfde65bf262","resource":{"resourceType":"Observation","id":"73d80d2d-62f1-4b6b-8965-edfde65bf262","status":"final","code":{"coding":[{"system":"http://loinc.org","code":"6690-2"}]},"subject":{"reference":"Patient/a75f95e4-cd84-4d21-95c1-1503354231d6"},"effectiveDateTime":"2022-08-29T00:00:00+00:00","valueQuantity":{"value":10.2}},"request":{"method":"POST","url":"Observation"}},{"fullUrl":"Procedure/74d6c236-6fed-41e2-8c01-e5dd01d562e0","resource":{"resourceType":"Procedure","id":"74d6c236-6fed-41e2-8c01-e5dd01d562e0","status":"completed","code":{"coding":[{"system":"http://snomed.info/sct","code":"115006"}]},"subject":{"reference":"Patient/a75f95e4-cd84-4d21-95c1-1503354231d6"},"performedDateTime":"2022-03-03T00:00:00+00:00"},"request":{"method":"POST","url":"Procedure"}},{"fullUrl":"Procedure/25203691-7b3a-49a4-bb5a-fbb76482de46","resource":{"resourceType":"Procedure","id":"25203691-7b3a-49a4-bb5a-fbb76482de46","status":"completed","code":{"coding":[{"system":"http://snomed.info/sct","code":"115006"}]},"subject":{"reference":"Patient/a75f95e4-cd84-4d21-95c1-1503354231d6"},"performedDateTime":"2022-07-07T00:00:00+00:00"},"request":{"method":"POST","url":"Procedure"}},{"fullUrl":"Procedure/17791392-f4f7-4854-9a9b-1077985c2789","resource":{"resourceType":"Procedure","id":"17791392-f4f7-4854-9a9b-1077985c2789","status":"completed","code":{"coding":[{"system":"http://snomed.info/sct","code":"104001"}]},"subject":{"reference":"Patient/a75f95e4-cd84-4d21-95c1-1503354231d6"},"performedDateTime":"2022-11-26T00:00:00+00:00"},"request":{"method":"POST","url":"Procedure"}},{"fullUrl":"MedicationStatement/2e060861-246d-4162-a472-5c1e71cecea2","resource":{"resourceType":"MedicationStatement","id":"2e060861-246d-4162-a472-5c1e71cecea2","status":"completed","medicationCodeableConcept":{"coding":[{"system":"http://www.nlm.nih.gov/research/umls/rxnorm","code":"10395"}]},"subject":{"reference":"Patient/a75f95e4-cd84-4d21-95c1-1503354231d6"},"effectiveDateTime":"2022-06-19T00:00:00+00:00","dosage":[{"doseAndRate":[{"doseQuantity":{"value":1.0,"unit":"TAB","system":"http://terminology.hl7.org/CodeSystem/v3-orderableDrugForm","code":"TAB"}}]}]},"request":{"method":"POST","url":"MedicationStatement"}},{"fullUrl":"MedicationStatement/dd538cf9-651e-4219-8bae-733253cc73b0","resource":{"resourceType":"MedicationStatement","id":"dd538cf9-651e-4219-8bae-733253cc73b0","status":"completed","medicationCodeableConcept":{"coding":[{"system":"http://www.nlm.nih.gov/research/umls/rxnorm","code":"2193"}]},"subject":{"reference":"Patient/a75f95e4-cd84-4d21-95c1-1503354231d6"},"effectiveDateTime":"2022-02-11T00:00:00+00:00","dosage":[{"doseAndRate":[{"doseQuantity":{"value":1.0,"unit":"TAB","system":"http://terminology.hl7.org/CodeSystem/v3-orderableDrugForm","code":"TAB"}}]}]},"request":{"method":"POST","url":"MedicationStatement"}},{"fullUrl":"MedicationStatement/28a312fc-8254-42ea-b429-ccdf4b63aa66","resource":{"resourceType":"MedicationStatement","id":"28a312fc-8254-42ea-b429-ccdf4b63aa66","status":"completed","medicationCodeableConcept":{"coding":[{"system":"http://www.nlm.nih.gov/research/umls/rxnorm","code":"8698"}]},"subject":{"reference":"Patient/a75f95e4-cd84-4d21-95c1-1503354231d6"},"effectiveDateTime":"2022-01-07T00:00:00+00:00","dosage":[{"doseAndRate":[{"doseQuantity":{"value":1.0,"unit":"TAB","system":"http://terminology.hl7.org/CodeSystem/v3-orderableDrugForm","code":"TAB"}}]}]},"request":{"method":"POST","url":"MedicationStatement"}},{"fullUrl":"MedicationStatement/e871463c-c2a6-4ceb-bc5c-2386f1bb39e9","resource":{"resourceType":"MedicationStatement","id":"e871463c-c2a6-4ceb-bc5c-2386f1bb39e9","status":"completed","medicationCodeableConcept":{"coding":[{"system":"http://www.nlm.nih.gov/research/umls/rxnorm","code":"2193"}]},"subject":{"reference":"Patient/a75f95e4-cd84-4d21-95c1-1503354231d6"},"effectiveDateTime":"2022-06-25T00:00:00+00:00","dosage":[{"doseAndRate":[{"doseQuantity":{"value":1.0,"unit":"TAB","system":"http://terminology.hl7.org/CodeSystem/v3-orderableDrugForm","code":"TAB"}}]}]},"request":{"method":"POST","url":"MedicationStatement"}},{"fullUrl":"MedicationStatement/53c193de-6ed9-45c5-aace-bc06301459cd","resource":{"resourceType":"MedicationStatement","id":"53c193de-6ed9-45c5-aace-bc06301459cd","status":"completed","medicationCodeableConcept":{"coding":[{"system":"http://www.nlm.nih.gov/research/umls/rxnorm","code":"8698"}]},"subject":{"reference":"Patient/a75f95e4-cd84-4d21-95c1-1503354231d6"},"effectiveDateTime":"2022-06-20T00:00:00+00:00","dosage":[{"doseAndRate":[{"doseQuantity":{"value":1.0,"unit":"TAB","system":"http://terminology.hl7.org/CodeSystem/v3-orderableDrugForm","code":"TAB"}}]}]},"request":{"method":"POST","url":"MedicationStatement"}},{"fullUrl":"MedicationStatement/3ab7ed6f-b330-462a-9d7e-4b98fc092c28","resource":{"resourceType":"MedicationStatement","id":"3ab7ed6f-b330-462a-9d7e-4b98fc092c28","status":"completed","medicationCodeableConcept":{"coding":[{"system":"http://www.nlm.nih.gov/research/umls/rxnorm","code":"3640"}]},"subject":{"reference":"Patient/a75f95e4-cd84-4d21-95c1-1503354231d6"},"effectiveDateTime":"2022-12-25T00:00:00+00:00","dosage":[{"doseAndRate":[{"doseQuantity":{"value":1.0,"unit":"TAB","system":"http://terminology.hl7.org/CodeSystem/v3-orderableDrugForm","code":"TAB"}}]}]},"request":{"method":"POST","url":"MedicationStatement"}},{"fullUrl":"MedicationStatement/07c69df7-ea01-475d-9c99-61f0eb3cbe04","resource":{"resourceType":"MedicationStatement","id":"07c69df7-ea01-475d-9c99-61f0eb3cbe04","status":"completed","medicationCodeableConcept":{"coding":[{"system":"http://www.nlm.nih.gov/research/umls/rxnorm","code":"2193"}]},"subject":{"reference":"Patient/a75f95e4-cd84-4d21-95c1-1503354231d6"},"effectiveDateTime":"2022-07-02T00:00:00+00:00","dosage":[{"doseAndRate":[{"doseQuantity":{"value":1.0,"unit":"TAB","system":"http://terminology.hl7.org/CodeSystem/v3-orderableDrugForm","code":"TAB"}}]}]},"request":{"method":"POST","url":"MedicationStatement"}},{"fullUrl":"MedicationStatement/160f3ec3-50e6-4373-8ebc-9a83abfbf183","resource":{"resourceType":"MedicationStatement","id":"160f3ec3-50e6-4373-8ebc-9a83abfbf183","status":"completed","medicationCodeableConcept":{"coding":[{"system":"http://www.nlm.nih.gov/research/umls/rxnorm","code":"7984"}]},"subject":{"reference":"Patient/a75f95e4-cd84-4d21-95c1-1503354231d6"},"effectiveDateTime":"2022-04-09T00:00:00+00:00","dosage":[{"doseAndRate":[{"doseQuantity":{"value":1.0,"unit":"TAB","system":"http://terminology.hl7.org/CodeSystem/v3-orderableDrugForm","code":"TAB"}}]}]},"request":{"method":"POST","url":"MedicationStatement"}},{"fullUrl":"Encounter/d76fb59c-9b92-422f-8403-105a78a01f8a","resource":{"resourceType":"Encounter","id":"d76fb59c-9b92-422f-8403-105a78a01f8a","status":"finished","class":{"system":"http://terminology.hl7.org/CodeSystem/v3-ActCode","code":"SS","display":"short-stay"},"type":[{"coding":[{"system":"http://terminology.hl7.org/CodeSystem/encounter-type","code":"CCS60"}]}],"subject":{"reference":"Patient/a75f95e4-cd84-4d21-95c1-1503354231d6"},"period":{"start":"2022-04-03T00:00:00+00:00","end":"2022-04-03T00:00:00+00:00"}},"request":{"method":"POST","url":"Encounter"}},{"fullUrl":"Encounter/3f386725-6527-4743-bb7b-0207ddb6e8a2","resource":{"resourceType":"Encounter","id":"3f386725-6527-4743-bb7b-0207ddb6e8a2","status":"finished","class":{"system":"http://terminology.hl7.org/CodeSystem/v3-ActCode","code":"OBSENC","display":"observation encounter"},"type":[{"coding":[{"system":"http://terminology.hl7.org/CodeSystem/encounter-type","code":"ADMS"}]}],"subject":{"reference":"Patient/a75f95e4-cd84-4d21-95c1-1503354231d6"},"period":{"start":"2022-07-08T00:00:00+00:00","end":"2022-07-12T00:00:00+00:00"}},"request":{"method":"POST","url":"Encounter"}},{"fullUrl":"Encounter/d99cbc46-a996-45ad-ab99-6de071644b6e","resource":{"resourceType":"Encounter","id":"d99cbc46-a996-45ad-ab99-6de071644b6e","status":"finished","class":{"system":"http://terminology.hl7.org/CodeSystem/v3-ActCode","code":"IMP","display":"inpatient encounter"},"type":[{"coding":[{"system":"http://terminology.hl7.org/CodeSystem/encounter-type","code":"CCS60"}]}],"subject":{"reference":"Patient/a75f95e4-cd84-4d21-95c1-1503354231d6"},"period":{"start":"2022-03-29T00:00:00+00:00","end":"2022-04-01T00:00:00+00:00"}},"request":{"method":"POST","url":"Encounter"}},{"fullUrl":"Patient/39f68c83-95d1-44b2-a247-d9c9287be72a","resource":{"resourceType":"Patient","id":"39f68c83-95d1-44b2-a247-d9c9287be72a","identifier":[{"type":{"coding":[{"system":"http://terminology.hl7.org/CodeSystem/v2-0203","code":"MR"}]},"system":"urn:fhirgen:mrn","value":"588-51-2247"}],"name":[{"family":"Hays","given":["Jeffrey"]}],"gender":"male","birthDate":"1966-01-13","address":[{"line":["273 Jennifer Corners"],"city":"East Michael","state":"New Mexico"}]},"request":{"method":"POST","url":"Patient"}},{"fullUrl":"Observation/6816fe6e-2963-4e4a-acb5-f8b4fc350b81","resource":{"resourceType":"Observation","id":"6816fe6e-2963-4e4a-acb5-f8b4fc350b81","status":"final","code":{"coding":[{"system":"http://loinc.org","code":"5394-2"}]},"subject":{"reference":"Patient/39f68c83-95d1-44b2-a247-d9c9287be72a"},"effectiveDateTime":"2022-02-11T00:00:00+00:00","valueRatio":{"numerator":{"value":1.0},"denominator":{"value":64.0}}},"request":{"method":"POST","url":"Observation"}},{"fullUrl":"Observation/404feb29-f2d1-4ca5-b689-52777db9db3a","resource":{"resourceType":"Observation","id":"404feb29-f2d1-4ca5-b689-52777db9db3a","status":"final","code":{"coding":[{"system":"http://loinc.org","code":"51475-2"}]},"subject":{"reference":"Patient/39f68c83-95d1-44b2-a247-d9c9287be72a"},"effectiveDateTime":"2022-11-26T00:00:00+00:00","valueRatio":{"numerator":{"value":1.0},"denominator":{"value":64.0}}},"request":{"method":"POST","url":"Observation"}},{"fullUrl":"Observation/4fecd041-94ea-45b2-ae86-308a11d11c6a","resource":{"resourceType":"Observation","id":"4fecd041-94ea-45b2-ae86-308a11d11c6a","status":"final","code":{"coding":[{"system":"http://loinc.org","code":"50690-7"}]},"subject":{"reference":"Patient/39f68c83-95d1-44b2-a247-d9c9287be72a"},"effectiveDateTime":"2022-10-12T00:00:00+00:00","valueRatio":{"numerator":{"value":1.0},"denominator":{"value":32.0}}},"request":{"method":"POST","url":"Observation"}},{"fullUrl":"Condition/1c7cabd8-8c58-4d6f-b4fe-9afe7029e658","resource":{"resourceType":"Condition","id":"1c7cabd8-8c58-4d6f-b4fe-9afe7029e658","code":{"coding":[{"system":"http://snomed.info/sct","code":"405737000"}]},"subject":{"reference":"Patient/39f68c83-95d1-44b2-a247-d9c9287be72a"},"onsetDateTime":"2022-09-15T00:00:00+00:00"},"request":{"method":"POST","url":"Condition"}},{"fullUrl":"Condition/bbbde2a8-21d3-4ef4-a774-48ef7d3e031d","resource":{"resourceType":"Condition","id":"bbbde2a8-21d3-4ef4-a774-48ef7d3e031d","code":{"coding":[{"system":"http://snomed.info/sct","code":"30746006"}]},"subject":{"reference":"Patient/39f68c83-95d1-44b2-a247-d9c9287be72a"},"onsetDateTime":"2022-06-13T00:00:00+00:00"},"request":{"method":"POST","url":"Condition"}},{"fullUrl":"Condition/6d8020dc-973c-44a8-8653-559861045f96","resource":{"resourceType":"Condition","id":"6d8020dc-973c-44a8-8653-559861045f96","code":{"coding":[{"system":"http://snomed.info/sct","code":"297123002"}]},"subject":{"reference":"Patient/39f68c83-95d1-44b2-a247-d9c9287be72a"},"onsetDateTime":"2022-01-25T00:00:00+00:00"},"request":{"method":"POST","url":"Condition"}},{"fullUrl":"Condition/f5369cc9-5fd2-4c9b-a921-1e9906613ed4","resource":{"resourceType":"Condition","id":"f5369cc9-5fd2-4c9b-a921-1e9906613ed4","code":{"coding":[{"system":"http://snomed.info/sct","code":"3951002"}]},"subject":{"reference":"Patient/39f68c83-95d1-44b2-a247-d9c9287be72a"},"onsetDateTime":"2022-04-21T00:00:00+00:00"},"request":{"method":"POST","url":"Condition"}},{"fullUrl":"Observation/0c9aeef5-6df4-4822-9b59-7a275c63e615","resource":{"resourceType":"Observation","id":"0c9aeef5-6df4-4822-9b59-7a275c63e615","status":"final","code":{"coding":[{"system":"http://www.ama-assn.org/go/cpt","code":"85048"}]},"subject":{"reference":"Patient/39f68c83-95d1-44b2-a247-d9c9287be72a"},"effectiveDateTime":"2022-01-22T00:00:00+00:00","valueQuantity":{"value":6.7}},"request":{"method":"POST","url":"Observation"}},{"fullUrl":"Observation/2f60e4ff-2efc-4764-9d31-090bf20ca7e4","resource":{"resourceType":"Observation","id":"2f60e4ff-2efc-4764-9d31-090bf20ca7e4","status":"final","code":{"coding":[{"system":"http://loinc.org","code":"804-5"}]},"subject":{"reference":"Patient/39f68c83-95d1-44b2-a247-d9c9287be72a"},"effectiveDateTime":"2022-01-05T00:00:00+00:00","valueQuantity":{"value":9.7}},"request":{"method":"POST","url":"Observation"}},{"fullUrl":"Observation/5517551a-644c-4f88-8bed-f5347a792c0e","resource":{"resourceType":"Observation","id":"5517551a-644c-4f88-8bed-f5347a792c0e","status":"final","code":{"coding":[{"system":"http://www.ama-assn.org/go/cpt","code":"85048"}]},"subject":{"reference":"Patient/39f68c83-95d1-44b2-a247-d9c9287be72a"},"effectiveDateTime":"2022-05-30T00:00:00+00:00","valueQuantity":{"value":9.8}},"request":{"method":"POST","url":"Observation"}},{"fullUrl":"Procedure/951d445d-85bb-4c3a-bafc-a50a10c27083","resource":{"resourceType":"Procedure","id":"951d445d-85bb-4c3a-bafc-a50a10c27083","status":"completed","code":{"coding":[{"system":"http://snomed.info/sct","code":"115006"}]},"subject":{"reference":"Patient/39f68c83-95d1-44b2-a247-d9c9287be72a"},"performedDateTime":"2022-05-26T00:00:00+00:00"},"request":{"method":"POST","url":"Procedure"}},{"fullUrl":"Procedure/264fe77b-14cc-46a4-877a-fe8a6613eff0","resource":{"resourceType":"Procedure","id":"264fe77b-14cc-46a4-877a-fe8a6613eff0","status":"completed","code":{"coding":[{"system":"http://snomed.info/sct","code":"115006"}]},"subject":{"reference":"Patient/39f68c83-95d1-44b2-a247-d9c9287be72a"},"performedDateTime":"2022-02-14T00:00:00+00:00"},"request":{"method":"POST","url":"Procedure"}},{"fullUrl":"Procedure/959bc560-cd7d-4f7a-800e-06be188367b8","resource":{"resourceType":"Procedure","id":"959bc560-cd7d-4f7a-800e-06be188367b8","status":"completed","code":{"coding":[{"system":"http://snomed.info/sct","code":"146005"}]},"subject":{"reference":"Patient/39f68c83-95d1-44b2-a247-d9c9287be72a"},"performedDateTime":"2022-01-07T00:00:00+00:00"},"request":{"method":"POST","url":"Procedure"}},{"fullUrl":"MedicationStatement/38592e44-5b05-42af-b209-281bc181366e","resource":{"resourceType":"MedicationStatement","id":"38592e44-5b05-42af-b209-281bc181366e","status":"completed","medicationCodeableConcept":{"coding":[{"system":"http://www.nlm.nih.gov/research/umls/rxnorm","code":"10395"}]},"subject":{"reference":"Patient/39f68c83-95d1-44b2-a247-d9c9287be72a"},"effectiveDateTime":"2022-01-21T00:00:00+00:00","dosage":[{"doseAndRate":[{"doseQuantity":{"value":1.0,"unit":"TAB","system":"http://terminology.hl7.org/CodeSystem/v3-orderableDrugForm","code":"TAB"}}]}]},"request":{"method":"POST","url":"MedicationStatement"}},{"fullUrl":"MedicationStatement/d09d8bec-de8c-45d6-8458-5bd89b6a8099","resource":{"resourceType":"MedicationStatement","id":"d09d8bec-de8c-45d6-8458-5bd89b6a8099","status":"completed","medicationCodeableConcept":{"coding":[{"system":"http://www.nlm.nih.gov/research/umls/rxnorm","code":"7980"}]},"subject":{"reference":"Patient/39f68c83-95d1-44b2-a247-d9c9287be72a"},"effectiveDateTime":"2022-07-28T00:00:00+00:00","dosage":[{"doseAndRate":[{"doseQuantity":{"value":2.0,"unit":"TAB","system":"http://terminology.hl7.org/CodeSystem/v3-orderableDrugForm","code":"TAB"}}]}]},"request":{"method":"POST","url":"MedicationStatement"}},{"fullUrl":"MedicationStatement/85ab44df-7073-4e29-96d2-f67e7a994146","resource":{"resourceType":"MedicationStatement","id":"85ab44df-7073-4e29-96d2-f67e7a994146","status":"completed","medicationCodeableConcept":{"coding":[{"system":"http://www.nlm.nih.gov/research/umls/rxnorm","code":"8698"}]},"subject":{"reference":"Patient/39f68c83-95d1-44b2-a247-d9c9287be72a"},"effectiveDateTime":"2022-08-01T00:00:00+00:00","dosage":[{"doseAndRate":[{"doseQuantity":{"value":1.0,"unit":"TAB","system":"http://terminology.hl7.org/CodeSystem/v3-orderableDrugForm","code":"TAB"}}]}]},"request":{"method":"POST","url":"MedicationStatement"}},{"fullUrl":"MedicationStatement/c0ce32aa-c52f-4891-9d6d-c29dac23ee32","resource":{"resourceType":"MedicationStatement","id":"c0ce32aa-c52f-4891-9d6d-c29dac23ee32","status":"completed","medicationCodeableConcept":{"coding":[{"system":"http://www.nlm.nih.gov/research/umls/rxnorm","code":"10395"}]},"subject":{"reference":"Patient/39f68c83-95d1-44b2-a247-d9c9287be72a"},"effectiveDateTime":"2022-07-04T00:00:00+00:00","dosage":[{"doseAndRate":[{"doseQuantity":{"value":1.0,"unit":"TAB","system":"http://terminology.hl7.org/CodeSystem/v3-orderableDrugForm","code":"TAB"}}]}]},"request":{"method":"POST","url":"MedicationStatement"}},{"fullUrl":"Encounter/af1c0875-9886-4f4c-afa1-74c96337430b","resource":{"resourceType":"Encounter","id":"af1c0875-9886-4f4c-afa1-74c96337430b","status":"finished","class":{"system":"http://terminology.hl7.org/CodeSystem/v3-ActCode","code":"PRENC","display":"pre-admission"},"type":[{"coding":[{"system":"http://terminology.hl7.org/CodeSystem/encounter-type","code":"BD/BM-clin"}]}],"subject":{"reference":"Patient/39f68c83-95d1-44b2-a247-d9c9287be72a"},"period":{"start":"2022-10-13T00:00:00+00:00","end":"2022-10-16T00:00:00+00:00"}},"request":{"method":"POST","url":"Encounter"}},{"fullUrl":"Encounter/abe574cf-31e5-454d-bb0e-0eb958a0eba8","resource":{"resourceType":"Encounter","id":"abe574cf-31e5-454d-bb0e-0eb958a0eba8","status":"finished","class":{"system":"http://terminology.hl7.org/CodeSystem/v3-ActCode","code":"AMB","display":"ambulatory"},"type":[{"coding":[{"system":"http://terminology.hl7.org/CodeSystem/encounter-type","code":"CCS60"}]}],"subject":{"reference":"Patient/39f68c83-95d1-44b2-a247-d9c9287be72a"},"period":{"start":"2022-11-02T00:00:00+00:00","end":"2022-11-07T00:00:00+00:00"}},"request":{"method":"POST","url":"Encounter"}},{"fullUrl":"Patient/9b3cb817-f905-4f3f-b632-843e3289ca26","resource":{"resourceType":"Patient","id":"9b3cb817-f905-4f3f-b632-843e3289ca26","identifier":[{"type":{"coding":[{"system":"http://terminology.hl7.org/CodeSystem/v2-0203","code":"MR"}]},"system":"urn:fhirgen:mrn","value":"572-88-2053"}],"name":[{"family":"Collins","given":["Michelle"]}],"gender":"female","birthDate":"1992-05-27","address":[{"line":["980 Dawn Ville Suite 600"],"city":"East Jamesmouth","state":"Ohio"}]},"request":{"method":"POST","url":"Patient"}},{"fullUrl":"Observation/696ce970-5424-493f-8d06-d3273bae2130","resource":{"resourceType":"Observation","id":"696ce970-5424-493f-8d06-d3273bae2130","status":"final","code":{"coding":[{"system":"http://loinc.org","code":"50690-7"}]},"subject":{"reference":"Patient/9b3cb817-f905-4f3f-b632-843e3289ca26"},"effectiveDateTime":"2022-12-26T00:00:00+00:00","valueRatio":{"numerator":{"value":1.0},"denominator":{"value":32.0}}},"request":{"method":"POST","url":"Observation"}},{"fullUrl":"Observation/24d26c16-89dc-44a9-9f23-816a35b5e784","resource":{"resourceType":"Observation","id":"24d26c16-89dc-44a9-9f23-816a35b5e784","status":"final","code":{"coding":[{"system":"http://loinc.org","code":"50695-6"}]},"subject":{"reference":"Patient/9b3cb817-f905-4f3f-b632-843e3289ca26"},"effectiveDateTime":"2022-11-17T00:00:00+00:00","valueRatio":{"numerator":{"value":1.0},"denominator":{"value":64.0}}},"request":{"method":"POST","url":"Observation"}},{"fullUrl":"Condition/a2108846-15e1-4615-bf62-99aba74ae840","resource":{"resourceType":"Condition","id":"a2108846-15e1-4615-bf62-99aba74ae840","code":{"coding":[{"system":"http://snomed.info/sct","code":"30746006"}]},"subject":{"reference":"Patient/9b3cb817-f905-4f3f-b632-843e3289ca26"},"onsetDateTime":"2022-02-15T00:00:00+00:00"},"request":{"method":"POST","url":"Condition"}},{"fullUrl":"Condition/187d6547-38dc-4aa0-9753-3ee272c63663","resource":{"resourceType":"Condition","id":"187d6547-38dc-4aa0-9753-3ee272c63663","code":{"coding":[{"system":"http://snomed.info/sct","code":"21522001"}]},"subject":{"reference":"Patient/9b3cb817-f905-4f3f-b632-843e3289ca26"},"onsetDateTime":"2022-05-23T00:00:00+00:00"},"request":{"method":"POST","url":"Condition"}},{"fullUrl":"Condition/f4df9939-93f1-47a2-b6b5-612d8124f92e","resource":{"resourceType":"Condition","id":"f4df9939-93f1-47a2-b6b5-612d8124f92e","code":{"coding":[{"system":"http://snomed.info/sct","code":"198199009"}]},"subject":{"reference":"Patient/9b3cb817-f905-4f3f-b632-843e3289ca26"},"onsetDateTime":"2022-10-31T00:00:00+00:00"},"request":{"method":"POST","url":"Condition"}},{"fullUrl":"Condition/55a0874d-f8db-426b-82e5-abd62ddfe264","resource":{"resourceType":"Condition","id":"55a0874d-f8db-426b-82e5-abd62ddfe264","code":{"coding":[{"system":"http://snomed.info/sct","code":"418290006"}]},"subject":{"reference":"Patient/9b3cb817-f905-4f3f-b632-843e3289ca26"},"onsetDateTime":"2022-02-13T00:00:00+00:00"},"request":{"method":"POST","url":"Condition"}},{"fullUrl":"Condition/1f03ce0b-cc94-46f4-904f-ab64870ca2f6","resource":{"resourceType":"Condition","id":"1f03ce0b-cc94-46f4-904f-ab64870ca2f6","code":{"coding":[{"system":"http://snomed.info/sct","code":"405737000"}]},"subject":{"reference":"Patient/9b3cb817-f905-4f3f-b632-843e3289ca26"},"onsetDateTime":"2022-09-18T00:00:00+00:00"},"request":{"method":"POST","url":"Condition"}},{"fullUrl":"Condition/47296569-dd61-4453-a5a3-56ecab704870","resource":{"resourceType":"Condition","id":"47296569-dd61-4453-a5a3-56ecab704870","code":{"coding":[{"system":"http://snomed.info/sct","code":"386661006"}]},"subject":{"reference":"Patient/9b3cb817-f905-4f3f-b632-843e3289ca26"},"onsetDateTime":"2022-04-15T00:00:00+00:00"},"request":{"method":"POST","url":"Condition"}},{"fullUrl":"Condition/84283d51-a10e-404e-b4f4-c65be93a31fc","resource":{"resourceType":"Condition","id":"84283d51-a10e-404e-b4f4-c65be93a31fc","code":{"coding":[{"system":"http://snomed.info/sct","code":"56317004"}]},"subject":{"reference":"Patient/9b3cb817-f905-4f3f-b632-843e3289ca26"},"onsetDateTime":"2022-12-20T00:00:00+00:00"},"request":{"method":"POST","url":"Condition"}},{"fullUrl":"Condition/ad061887-9f9c-485e-9129-9369a1b1db78","resource":{"resourceType":"Condition","id":"ad061887-9f9c-485e-9129-9369a1b1db78","code":{"coding":[{"system":"http://snomed.info/sct","code":"386661006"}]},"subject":{"reference":"Patient/9b3cb817-f905-4f3f-b632-843e3289ca26"},"onsetDateTime":"2022-07-05T00:00:00+00:00"},"request":{"method":"POST","url":"Condition"}},{"fullUrl":"Observation/31da619c-84f2-4cb2-861a-ede0ae625a78","resource":{"resourceType":"Observation","id":"31da619c-84f2-4cb2-861a-ede0ae625a78","status":"final","code":{"coding":[{"system":"http://loinc.org","code":"804-5"}]},"subject":{"reference":"Patient/9b3cb817-f905-4f3f-b632-843e3289ca26"},"effectiveDateTime":"2022-01-23T00:00:00+00:00","valueQuantity":{"value":5.2}},"request":{"method":"POST","url":"Observation"}},{"fullUrl":"Observation/b9e4bccb-197b-4648-834f-e15d0c80f2fd","resource":{"resourceType":"Observation","id":"b9e4bccb-197b-4648-834f-e15d0c80f2fd","status":"final","code":{"coding":[{"system":"http://loinc.org","code":"26464-8"}]},"subject":{"reference":"Patient/9b3cb817-f905-4f3f-b632-843e3289ca26"},"effectiveDateTime":"2022-09-08T00:00:00+00:00","valueQuantity":{"value":8.1}},"request":{"method":"POST","url":"Observation"}},{"fullUrl":"Observation/9d9b0cd1-ceb5-40b0-a580-49e7380c3abc","resource":{"resourceType":"Observation","id":"9d9b0cd1-ceb5-40b0-a580-49e7380c3abc","status":"final","code":{"coding":[{"system":"http://loinc.org","code":"49498-9"}]},"subject":{"reference":"Patient/9b3cb817-f905-4f3f-b632-843e3289ca26"},"effectiveDateTime":"2022-11-09T00:00:00+00:00","valueQuantity":{"value":9.4}},"request":{"method":"POST","url":"Observation"}},{"fullUrl":"Procedure/ee0d319c-d6e3-40ee-8ae4-048ba7ddd290","resource":{"resourceType":"Procedure","id":"ee0d319c-d6e3-40ee-8ae4-048ba7ddd290","status":"completed","code":{"coding":[{"system":"http://snomed.info/sct","code":"104001"}]},"subject":{"reference":"Patient/9b3cb817-f905-4f3f-b632-843e3289ca26"},"performedDateTime":"2022-10-18T00:00:00+00:00"},"request":{"method":"POST","url":"Procedure"}},{"fullUrl":"Procedure/2d1f197e-09f8-4b5a-b2f8-0e9b6df13358","resource":{"resourceType":"Procedure","id":"2d1f197e-09f8-4b5a-b2f8-0e9b6df13358","status":"completed","code":{"coding":[{"system":"http://snomed.info/sct","code":"647000"}]},"subject":{"reference":"Patient/9b3cb817-f905-4f3f-b632-843e3289ca26"},"performedDateTime":"2022-06-01T00:00:00+00:00"},"request":{"method":"POST","url":"Procedure"}},{"fullUrl":"Procedure/f07cdbaa-2724-4976-9c49-970d661e614d","resource":{"resourceType":"Procedure","id":"f07cdbaa-2724-4976-9c49-970d661e614d","status":"completed","code":{"coding":[{"system":"http://snomed.info/sct","code":"104001"}]},"subject":{"reference":"Patient/9b3cb817-f905-4f3f-b632-843e3289ca26"},"performedDateTime":"2022-05-24T00:00:00+00:00"},"request":{"method":"POST","url":"Procedure"}},{"fullUrl":"MedicationStatement/cbc5e27e-3d4f-49c3-b1d5-d811f5437111","resource":{"resourceType":"MedicationStatement","id":"cbc5e27e-3d4f-49c3-b1d5-d811f5437111","status":"completed","medicationCodeableConcept":{"coding":[{"system":"http://www.nlm.nih.gov/research/umls/rxnorm","code":"3640"}]},"subject":{"reference":"Patient/9b3cb817-f905-4f3f-b632-843e3289ca26"},"effectiveDateTime":"2022-07-15T00:00:00+00:00","dosage":[{"doseAndRate":[{"doseQuantity":{"value":1.0,"unit":"TAB","system":"http://terminology.hl7.org/CodeSystem/v3-orderableDrugForm","code":"TAB"}}]}]},"request":{"method":"POST","url":"MedicationStatement"}},{"fullUrl":"MedicationStatement/9720b541-3979-4e8c-8b71-f48392ea34cd","resource":{"resourceType":"MedicationStatement","id":"9720b541-3979-4e8c-8b71-f48392ea34cd","status":"completed","medicationCodeableConcept":{"coding":[{"system":"http://www.nlm.nih.gov/research/umls/rxnorm","code":"3640"}]},"subject":{"reference":"Patient/9b3cb817-f905-4f3f-b632-843e3289ca26"},"effectiveDateTime":"2022-10-02T00:00:00+00:00","dosage":[{"doseAndRate":[{"doseQuantity":{"value":2.0,"unit":"TAB","system":"http://terminology.hl7.org/CodeSystem/v3-orderableDrugForm","code":"TAB"}}]}]},"request":{"method":"POST","url":"MedicationStatement"}},{"fullUrl":"MedicationStatement/08d08095-bb5f-4af6-b9c2-0ef221ea854d","resource":{"resourceType":"MedicationStatement","id":"08d08095-bb5f-4af6-b9c2-0ef221ea854d","status":"completed","medicationCodeableConcept":{"coding":[{"system":"http://www.nlm.nih.gov/research/umls/rxnorm","code":"7980"}]},"subject":{"reference":"Patient/9b3cb817-f905-4f3f-b632-843e3289ca26"},"effectiveDateTime":"2022-05-07T00:00:00+00:00","dosage":[{"doseAndRate":[{"doseQuantity":{"value":2.0,"unit":"TAB","system":"http://terminology.hl7.org/CodeSystem/v3-orderableDrugForm","code":"TAB"}}]}]},"request":{"method":"POST","url":"MedicationStatement"}},{"fullUrl":"MedicationStatement/fa665e19-f03f-488e-98ee-cbd5be6a5176","resource":{"resourceType":"MedicationStatement","id":"fa665e19-f03f-488e-98ee-cbd5be6a5176","status":"completed","medicationCodeableConcept":{"coding":[{"system":"http://www.nlm.nih.gov/research/umls/rxnorm","code":"8698"}]},"subject":{"reference":"Patient/9b3cb817-f905-4f3f-b632-843e3289ca26"},"effectiveDateTime":"2022-10-09T00:00:00+00:00","dosage":[{"doseAndRate":[{"doseQuantity":{"value":1.0,"unit":"TAB","system":"http://terminology.hl7.org/CodeSystem/v3-orderableDrugForm","code":"TAB"}}]}]},"request":{"method":"POST","url":"MedicationStatement"}},{"fullUrl":"Encounter/ede30098-adf1-497b-b70b-2abeb81c2617","resource":{"resourceType":"Encounter","id":"ede30098-adf1-497b-b70b-2abeb81c2617","status":"finished","class":{"system":"http://terminology.hl7.org/CodeSystem/v3-ActCode","code":"OBSENC","display":"observation encounter"},"type":[{"coding":[{"system":"http://terminology.hl7.org/CodeSystem/encounter-type","code":"ADMS"}]}],"subject":{"reference":"Patient/9b3cb817-f905-4f3f-b632-843e3289ca26"},"period":{"start":"2022-03-03T00:00:00+00:00","end":"2022-03-11T00:00:00+00:00"}},"request":{"method":"POST","url":"Encounter"}},{"fullUrl":"Encounter/f98bc3cf-c36a-4634-982b-d88befbba4da","resource":{"resourceType":"Encounter","id":"f98bc3cf-c36a-4634-982b-d88befbba4da","status":"finished","class":{"system":"http://terminology.hl7.org/CodeSystem/v3-ActCode","code":"FLD","display":"field"},"type":[{"coding":[{"system":"http://terminology.hl7.org/CodeSystem/encounter-type","code":"BD/BM-clin"}]}],"subject":{"reference":"Patient/9b3cb817-f905-4f3f-b632-843e3289ca26"},"period":{"start":"2022-05-12T00:00:00+00:00","end":"2022-05-12T00:00:00+00:00"}},"request":{"method":"POST","url":"Encounter"}},{"fullUrl":"Patient/a6cc1e3f-aba9-4bd4-8d92-ccffb165f70d","resource":{"resourceType":"Patient","id":"a6cc1e3f-aba9-4bd4-8d92-ccffb165f70d","identifier":[{"type":{"coding":[{"system":"http://terminology.hl7.org/CodeSystem/v2-0203","code":"MR"}]},"system":"urn:fhirgen:mrn","value":"323-80-1079"}],"name":[{"family":"Hughes","given":["Amanda"]}],"gender":"female","birthDate":"1945-07-13","address":[{"line":["57217 Danielle Orchard Apt. 917"],"city":"Taylorbury","state":"Louisiana"}]},"request":{"method":"POST","url":"Patient"}},{"fullUrl":"Observation/ec2f58c5-4723-4f5f-86b4-af95b2e29759","resource":{"resourceType":"Observation","id":"ec2f58c5-4723-4f5f-86b4-af95b2e29759","status":"final","code":{"coding":[{"system":"http://loinc.org","code":"47235-7"}]},"subject":{"reference":"Patient/a6cc1e3f-aba9-4bd4-8d92-ccffb165f70d"},"effectiveDateTime":"2022-05-20T00:00:00+00:00","valueRatio":{"numerator":{"value":1.0},"denominator":{"value":32.0}}},"request":{"method":"POST","url":"Observation"}},{"fullUrl":"Observation/dfe0963c-502b-4444-bd52-02d2b021d096","resource":{"resourceType":"Observation","id":"dfe0963c-502b-4444-bd52-02d2b021d096","status":"final","code":{"coding":[{"system":"http://loinc.org","code":"5394-2"}]},"subject":{"reference":"Patient/a6cc1e3f-aba9-4bd4-8d92-ccffb165f70d"},"effectiveDateTime":"2022-06-23T00:00:00+00:00","valueRatio":{"numerator":{"value":1.0},"denominator":{"value":32.0}}},"request":{"method":"POST","url":"Observation"}},{"fullUrl":"Condition/ea4ae09e-4af1-408a-8bf1-cdf69fe7e858","resource":{"resourceType":"Condition","id":"ea4ae09e-4af1-408a-8bf1-cdf69fe7e858","code":{"coding":[{"system":"http://snomed.info/sct","code":"18165001"}]},"subject":{"reference":"Patient/a6cc1e3f-aba9-4bd4-8d92-ccffb165f70d"},"onsetDateTime":"2022-12-31T00:00:00+00:00"},"request":{"method":"POST","url":"Condition"}},{"fullUrl":"Condition/67d2f278-489e-4070-92f6-73535b428e69","resource":{"resourceType":"Condition","id":"67d2f278-489e-4070-92f6-73535b428e69","code":{"coding":[{"system":"http://snomed.info/sct","code":"418290006"}]},"subject":{"reference":"Patient/a6cc1e3f-aba9-4bd4-8d92-ccffb165f70d"},"onsetDateTime":"2022-12-06T00:00:00+00:00"},"request":{"method":"POST","url":"Condition"}},{"fullUrl":"Condition/3943e1bf-5956-4754-8d48-f414a7b29251","resource":{"resourceType":"Condition","id":"3943e1bf-5956-4754-8d48-f414a7b29251","code":{"coding":[{"system":"http://snomed.info/sct","code":"297123002"}]},"subject":{"reference":"Patient/a6cc1e3f-aba9-4bd4-8d92-ccffb165f70d"},"onsetDateTime":"2022-01-15T00:00:00+00:00"},"request":{"method":"POST","url":"Condition"}},{"fullUrl":"Observation/1a59d00c-402e-4af8-9db1-0bafe4937d83","resource":{"resourceType":"Observation","id":"1a59d00c-402e-4af8-9db1-0bafe4937d83","status":"final","code":{"coding":[{"system":"http://loinc.org","code":"26464-8"}]},"subject":{"reference":"Patient/a6cc1e3f-aba9-4bd4-8d92-ccffb165f70d"},"effectiveDateTime":"2022-09-28T00:00:00+00:00","valueQuantity":{"value":10.3}},"request":{"method":"POST","url":"Observation"}},{"fullUrl":"Observation/53c325f6-f3e0-44c0-8ac7-2034174eec5a","resource":{"resourceType":"Observation","id":"53c325f6-f3e0-44c0-8ac7-2034174eec5a","status":"final","code":{"coding":[{"system":"http://loinc.org","code":"804-5"}]},"subject":{"reference":"Patient/a6cc1e3f-aba9-4bd4-8d92-ccffb165f70d"},"effectiveDateTime":"2022-11-27T00:00:00+00:00","valueQuantity":{"value":7.6}},"request":{"method":"POST","url":"Observation"}},{"fullUrl":"Procedure/b385bae3-ca68-4ebf-a007-e1c188375d8d","resource":{"resourceType":"Procedure","id":"b385bae3-ca68-4ebf-a007-e1c188375d8d","status":"completed","code":{"coding":[{"system":"http://snomed.info/sct","code":"647000"}]},"subject":{"reference":"Patient/a6cc1e3f-aba9-4bd4-8d92-ccffb165f70d"},"performedDateTime":"2022-09-23T00:00:00+00:00"},"request":{"method":"POST","url":"Procedure"}},{"fullUrl":"Procedure/68d83e21-7ce4-4b40-a793-53900b2ca961","resource":{"resourceType":"Procedure","id":"68d83e21-7ce4-4b40-a793-53900b2ca961","status":"completed","code":{"coding":[{"system":"http://snomed.info/sct","code":"189009"}]},"subject":{"reference":"Patient/a6cc1e3f-aba9-4bd4-8d92-ccffb165f70d"},"performedDateTime":"2022-02-08T00:00:00+00:00"},"request":{"method":"POST","url":"Procedure"}},{"fullUrl":"Procedure/beb88dff-1c18-433d-b41c-bc26adc13dd4","resource":{"resourceType":"Procedure","id":"beb88dff-1c18-433d-b41c-bc26adc13dd4","status":"completed","code":{"coding":[{"system":"http://snomed.info/sct","code":"115006"}]},"subject":{"reference":"Patient/a6cc1e3f-aba9-4bd4-8d92-ccffb165f70d"},"performedDateTime":"2022-03-03T00:00:00+00:00"},"request":{"method":"POST","url":"Procedure"}},{"fullUrl":"MedicationStatement/66d607b6-ff22-4b2c-bb4d-5c1f88541ae2","resource":{"resourceType":"MedicationStatement","id":"66d607b6-ff22-4b2c-bb4d-5c1f88541ae2","status":"completed","medicationCodeableConcept":{"coding":[{"system":"http://www.nlm.nih.gov/research/umls/rxnorm","code":"18631"}]},"subject":{"reference":"Patient/a6cc1e3f-aba9-4bd4-8d92-ccffb165f70d"},"effectiveDateTime":"2022-03-24T00:00:00+00:00","dosage":[{"doseAndRate":[{"doseQuantity":{"value":2.0,"unit":"TAB","system":"http://terminology.hl7.org/CodeSystem/v3-orderableDrugForm","code":"TAB"}}]}]},"request":{"method":"POST","url":"MedicationStatement"}},{"fullUrl":"MedicationStatement/bc2059b0-ec8c-4238-b852-53c8febf91d4","resource":{"resourceType":"MedicationStatement","id":"bc2059b0-ec8c-4238-b852-53c8febf91d4","status":"completed","medicationCodeableConcept":{"coding":[{"system":"http://www.nlm.nih.gov/research/umls/rxnorm","code":"10395"}]},"subject":{"reference":"Patient/a6cc1e3f-aba9-4bd4-8d92-ccffb165f70d"},"effectiveDateTime":"2022-01-11T00:00:00+00:00","dosage":[{"doseAndRate":[{"doseQuantity":{"value":1.0,"unit":"TAB","system":"http://terminology.hl7.org/CodeSystem/v3-orderableDrugForm","code":"TAB"}}]}]},"request":{"method":"POST","url":"MedicationStatement"}},{"fullUrl":"MedicationStatement/6fdcb6d4-f6fd-4654-873b-6586b5d24faa","resource":{"resourceType":"MedicationStatement","id":"6fdcb6d4-f6fd-4654-873b-6586b5d24faa","status":"completed","medicationCodeableConcept":{"coding":[{"system":"http://www.nlm.nih.gov/research/umls/rxnorm","code":"8698"}]},"subject":{"reference":"Patient/a6cc1e3f-aba9-4bd4-8d92-ccffb165f70d"},"effectiveDateTime":"2022-06-18T00:00:00+00:00","dosage":[{"doseAndRate":[{"doseQuantity":{"value":2.0,"unit":"TAB","system":"http://terminology.hl7.org/CodeSystem/v3-orderableDrugForm","code":"TAB"}}]}]},"request":{"method":"POST","url":"MedicationStatement"}},{"fullUrl":"Encounter/8fcdc329-4b3d-44d8-a630-eefb745103c5","resource":{"resourceType":"Encounter","id":"8fcdc329-4b3d-44d8-a630-eefb745103c5","status":"finished","class":{"system":"http://terminology.hl7.org/CodeSystem/v3-ActCode","code":"OBSENC","display":"observation encounter"},"type":[{"coding":[{"system":"http://terminology.hl7.org/CodeSystem/encounter-type","code":"CCS60"}]}],"subject":{"reference":"Patient/a6cc1e3f-aba9-4bd4-8d92-ccffb165f70d"},"period":{"start":"2022-04-02T00:00:00+00:00","end":"2022-04-09T00:00:00+00:00"}},"request":{"method":"POST","url":"Encounter"}},{"fullUrl":"Encounter/9e3c74c5-583e-4704-a5fd-1b3c89820248","resource":{"resourceType":"Encounter","id":"9e3c74c5-583e-4704-a5fd-1b3c89820248","status":"finished","class":{"system":"http://terminology.hl7.org/CodeSystem/v3-ActCode","code":"FLD","display":"field"},"type":[{"coding":[{"system":"http://terminology.hl7.org/CodeSystem/encounter-type","code":"BD/BM-clin"}]}],"subject":{"reference":"Patient/a6cc1e3f-aba9-4bd4-8d92-ccffb165f70d"},"period":{"start":"2022-09-21T00:00:00+00:00","end":"2022-09-22T00:00:00+00:00"}},"request":{"method":"POST","url":"Encounter"}},{"fullUrl":"Encounter/f2aa5d24-304e-4f08-86a8-d04edd85f67f","resource":{"resourceType":"Encounter","id":"f2aa5d24-304e-4f08-86a8-d04edd85f67f","status":"finished","class":{"system":"http://terminology.hl7.org/CodeSystem/v3-ActCode","code":"PRENC","display":"pre-admission"},"type":[{"coding":[{"system":"http://terminology.hl7.org/CodeSystem/encounter-type","code":"BD/BM-clin"}]}],"subject":{"reference":"Patient/a6cc1e3f-aba9-4bd4-8d92-ccffb165f70d"},"period":{"start":"2022-07-25T00:00:00+00:00","end":"2022-08-03T00:00:00+00:00"}},"request":{"method":"POST","url":"Encounter"}},{"fullUrl":"Patient/7e455fcf-5e21-475c-8b37-f201935e0445","resource":{"resourceType":"Patient","id":"7e455fcf-5e21-475c-8b37-f201935e0445","identifier":[{"type":{"coding":[{"system":"http://terminology.hl7.org/CodeSystem/v2-0203","code":"MR"}]},"system":"urn:fhirgen:mrn","value":"250-57-9370"}],"name":[{"family":"Brennan","given":["Lisa"]}],"gender":"other","birthDate":"1967-08-21","address":[{"line":["1805 Woodard Turnpike Apt. 788"],"city":"Mooremouth","state":"Massachusetts"}]},"request":{"method":"POST","url":"Patient"}},{"fullUrl":"Observation/fd1536a4-972a-40ba-8dde-cd40fe2bd8c4","resource":{"resourceType":"Observation","id":"fd1536a4-972a-40ba-8dde-cd40fe2bd8c4","status":"final","code":{"coding":[{"system":"http://loinc.org","code":"31147-2"}]},"subject":{"reference":"Patient/7e455fcf-5e21-475c-8b37-f201935e0445"},"effectiveDateTime":"2022-07-15T00:00:00+00:00","valueRatio":{"numerator":{"value":1.0},"denominator":{"value":64.0}}},"request":{"method":"POST","url":"Observation"}},{"fullUrl":"Observation/5d521ce4-1a46-47ae-8814-adc078f17522","resource":{"resourceType":"Observation","id":"5d521ce4-1a46-47ae-8814-adc078f17522","status":"final","code":{"coding":[{"system":"http://loinc.org","code":"47235-7"}]},"subject":{"reference":"Patient/7e455fcf-5e21-475c-8b37-f201935e0445"},"effectiveDateTime":"2022-08-22T00:00:00+00:00","valueRatio":{"numerator":{"value":1.0},"denominator":{"value":4.0}}},"request":{"method":"POST","url":"Observation"}},{"fullUrl":"Condition/ebdf7c3f-3f22-47fa-95c2-ffd295c7852e","resource":{"resourceType":"Condition","id":"ebdf7c3f-3f22-47fa-95c2-ffd295c7852e","code":{"coding":[{"system":"http://snomed.info/sct","code":"248980004"}]},"subject":{"reference":"Patient/7e455fcf-5e21-475c-8b37-f201935e0445"},"onsetDateTime":"2022-11-18T00:00:00+00:00"},"request":{"method":"POST","url":"Condition"}},{"fullUrl":"Condition/bccecf3d-c524-4fd3-be88-dffe2641226c","resource":{"resourceType":"Condition","id":"bccecf3d-c524-4fd3-be88-dffe2641226c","code":{"coding":[{"system":"http://snomed.info/sct","code":"21522001"}]},"subject":{"reference":"Patient/7e455fcf-5e21-475c-8b37-f201935e0445"},"onsetDateTime":"2022-05-07T00:00:00+00:00"},"request":{"method":"POST","url":"Condition"}},{"fullUrl":"Condition/7556fdec-71be-431b-9082-f6c42189d1b9","resource":{"resourceType":"Condition","id":"7556fdec-71be-431b-9082-f6c42189d1b9","code":{"coding":[{"system":"http://snomed.info/sct","code":"248980004"}]},"subject":{"reference":"Patient/7e455fcf-5e21-475c-8b37-f201935e0445"},"onsetDateTime":"2022-02-09T00:00:00+00:00"},"request":{"method":"POST","url":"Condition"}},{"fullUrl":"Condition/259278c1-4907-4769-93c0-ea1a908bd19b","resource":{"resourceType":"Condition","id":"259278c1-4907-4769-93c0-ea1a908bd19b","code":{"coding":[{"system":"http://snomed.info/sct","code":"30746006"}]},"subject":{"reference":"Patient/7e455fcf-5e21-475c-8b37-f201935e0445"},"onsetDateTime":"2022-01-11T00:00:00+00:00"},"request":{"method":"POST","url":"Condition"}},{"fullUrl":"Condition/bbb689ac-fda5-4d8d-8621-7bf35f71fb98","resource":{"resourceType":"Condition","id":"bbb689ac-fda5-4d8d-8621-7bf35f71fb98","code":{"coding":[{"system":"http://snomed.info/sct","code":"21522001"}]},"subject":{"reference":"Patient/7e455fcf-5e21-475c-8b37-f201935e0445"},"onsetDateTime":"2022-06-29T00:00:00+00:00"},"request":{"method":"POST","url":"Condition"}},{"fullUrl":"Condition/d0cdb0f4-2190-4c1c-9d9c-4b8b78c2e256","resource":{"resourceType":"Condition","id":"d0cdb0f4-2190-4c1c-9d9c-4b8b78c2e256","code":{"coding":[{"system":"http://snomed.info/sct","code":"709977002"}]},"subject":{"reference":"Patient/7e455fcf-5e21-475c-8b37-f201935e0445"},"onsetDateTime":"2022-01-16T00:00:00+00:00"},"request":{"method":"POST","url":"Condition"}},{"fullUrl":"Condition/5b68caae-f582-490d-b07d-88bd3f2d7d99","resource":{"resourceType":"Condition","id":"5b68caae-f582-490d-b07d-88bd3f2d7d99","code":{"coding":[{"system":"http://snomed.info/sct","code":"405737000"}]},"subject":{"reference":"Patient/7e455fcf-5e21-475c-8b37-f201935e0445"},"onsetDateTime":"2022-06-21T00:00:00+00:00"},"request":{"method":"POST","url":"Condition"}},{"fullUrl":"Condition/beaa3520-09a6-492f-a11a-25578a340a94","resource":{"resourceType":"Condition","id":"beaa3520-09a6-492f-a11a-25578a340a94","code":{"coding":[{"system":"http://snomed.info/sct","code":"271939006"}]},"subject":{"reference":"Patient/7e455fcf-5e21-475c-8b37-f201935e0445"},"onsetDateTime":"2022-03-30T00:00:00+00:00"},"request":{"method":"POST","url":"Condition"}},{"fullUrl":"Observation/cc01dd3b-4458-4e09-97b7-1680c8420607","resource":{"resourceType":"Observation","id":"cc01dd3b-4458-4e09-97b7-1680c8420607","status":"final","code":{"coding":[{"system":"http://loinc.org","code":"804-5"}]},"subject":{"reference":"Patient/7e455fcf-5e21-475c-8b37-f201935e0445"},"effectiveDateTime":"2022-06-16T00:00:00+00:00","valueQuantity":{"value":8.8}},"request":{"method":"POST","url":"Observation"}},{"fullUrl":"Observation/ea2611b5-3c7e-4d12-a102-a675d54f82a3","resource":{"resourceType":"Observation","id":"ea2611b5-3c7e-4d12-a102-a675d54f82a3","status":"final","code":{"coding":[{"system":"http://www.ama-assn.org/go/cpt","code":"85048"}]},"subject":{"reference":"Patient/7e455fcf-5e21-475c-8b37-f201935e0445"},"effectiveDateTime":"2022-11-06T00:00:00+00:00","valueQuantity":{"value":10.0}},"request":{"method":"POST","url":"Observation"}},{"fullUrl":"Procedure/04a9f061-9961-4186-ac0b-cc87a6241db9","resource":{"resourceType":"Procedure","id":"04a9f061-9961-4186-ac0b-cc87a6241db9","status":"completed","code":{"coding":[{"system":"http://snomed.info/sct","code":"104001"}]},"subject":{"reference":"Patient/7e455fcf-5e21-475c-8b37-f201935e0445"},"performedDateTime":"2022-04-08T00:00:00+00:00"},"request":{"method":"POST","url":"Procedure"}},{"fullUrl":"Procedure/2be81428-a927-4898-9068-aefb14c00035","resource":{"resourceType":"Procedure","id":"2be81428-a927-4898-9068-aefb14c00035","status":"completed","code":{"coding":[{"system":"http://snomed.info/sct","code":"115006"}]},"subject":{"reference":"Patient/7e455fcf-5e21-475c-8b37-f201935e0445"},"performedDateTime":"2022-08-02T00:00:00+00:00"},"request":{"method":"POST","url":"Procedure"}},{"fullUrl":"Procedure/9710092d-4753-4216-a37d-0ac0421d4ebc","resource":{"resourceType":"Procedure","id":"9710092d-4753-4216-a37d-0ac0421d4ebc","status":"completed","code":{"coding":[{"system":"http://snomed.info/sct","code":"104001"}]},"subject":{"reference":"Patient/7e455fcf-5e21-475c-8b37-f201935e0445"},"performedDateTime":"2022-06-02T00:00:00+00:00"},"request":{"method":"POST","url":"Procedure"}},{"fullUrl":"MedicationStatement/fff22456-c44f-4907-91af-231bbcf60e29","resource":{"resourceType":"MedicationStatement","id":"fff22456-c44f-4907-91af-231bbcf60e29","status":"completed","medicationCodeableConcept":{"coding":[{"system":"http://www.nlm.nih.gov/research/umls/rxnorm","code":"7980"}]},"subject":{"reference":"Patient/7e455fcf-5e21-475c-8b37-f201935e0445"},"effectiveDateTime":"2022-05-14T00:00:00+00:00","dosage":[{"doseAndRate":[{"doseQuantity":{"value":1.0,"unit":"TAB","system":"http://terminology.hl7.org/CodeSystem/v3-orderableDrugForm","code":"TAB"}}]}]},"request":{"method":"POST","url":"MedicationStatement"}},{"fullUrl":"MedicationStatement/bcea39e9-1750-4514-b3be-2f91a218271a","resource":{"resourceType":"MedicationStatement","id":"bcea39e9-1750-4514-b3be-2f91a218271a","status":"completed","medicationCodeableConcept":{"coding":[{"system":"http://www.nlm.nih.gov/research/umls/rxnorm","code":"10395"}]},"subject":{"reference":"Patient/7e455fcf-5e21-475c-8b37-f201935e0445"},"effectiveDateTime":"2022-03-16T00:00:00+00:00","dosage":[{"doseAndRate":[{"doseQuantity":{"value":1.0,"unit":"TAB","system":"http://terminology.hl7.org/CodeSystem/v3-orderableDrugForm","code":"TAB"}}]}]},"request":{"method":"POST","url":"MedicationStatement"}},{"fullUrl":"MedicationStatement/dec6b085-7263-4921-adad-7e0b98e9c135","resource":{"resourceType":"MedicationStatement","id":"dec6b085-7263-4921-adad-7e0b98e9c135","status":"completed","medicationCodeableConcept":{"coding":[{"system":"http://www.nlm.nih.gov/research/umls/rxnorm","code":"7984"}]},"subject":{"reference":"Patient/7e455fcf-5e21-475c-8b37-f201935e0445"},"effectiveDateTime":"2022-10-29T00:00:00+00:00","dosage":[{"doseAndRate":[{"doseQuantity":{"value":1.0,"unit":"TAB","system":"http://terminology.hl7.org/CodeSystem/v3-orderableDrugForm","code":"TAB"}}]}]},"request":{"method":"POST","url":"MedicationStatement"}},{"fullUrl":"Encounter/dc21074b-cc01-45dc-af6e-c42e909b277e","resource":{"resourceType":"Encounter","id":"dc21074b-cc01-45dc-af6e-c42e909b277e","status":"finished","class":{"system":"http://terminology.hl7.org/CodeSystem/v3-ActCode","code":"IMP","display":"inpatient encounter"},"type":[{"coding":[{"system":"http://terminology.hl7.org/CodeSystem/encounter-type","code":"CCS60"}]}],"subject":{"reference":"Patient/7e455fcf-5e21-475c-8b37-f201935e0445"},"period":{"start":"2022-03-07T00:00:00+00:00","end":"2022-03-08T00:00:00+00:00"}},"request":{"method":"POST","url":"Encounter"}},{"fullUrl":"Encounter/93350b65-f64d-4e8d-a650-a9f9ebe4028b","resource":{"resourceType":"Encounter","id":"93350b65-f64d-4e8d-a650-a9f9ebe4028b","status":"finished","class":{"system":"http://terminology.hl7.org/CodeSystem/v3-ActCode","code":"SS","display":"short-stay"},"type":[{"coding":[{"system":"http://terminology.hl7.org/CodeSystem/encounter-type","code":"ADMS"}]}],"subject":{"reference":"Patient/7e455fcf-5e21-475c-8b37-f201935e0445"},"period":{"start":"2022-05-05T00:00:00+00:00","end":"2022-05-08T00:00:00+00:00"}},"request":{"method":"POST","url":"Encounter"}},{"fullUrl":"Encounter/19bb24c5-0c3d-4a60-9d48-0e6a2f9527cf","resource":{"resourceType":"Encounter","id":"19bb24c5-0c3d-4a60-9d48-0e6a2f9527cf","status":"finished","class":{"system":"http://terminology.hl7.org/CodeSystem/v3-ActCode","code":"SS","display":"short-stay"},"type":[{"coding":[{"system":"http://terminology.hl7.org/CodeSystem/encounter-type","code":"ADMS"}]}],"subject":{"reference":"Patient/7e455fcf-5e21-475c-8b37-f201935e0445"},"period":{"start":"2022-01-18T00:00:00+00:00","end":"2022-01-22T00:00:00+00:00"}},"request":{"method":"POST","url":"Encounter"}}]}