{"resourceType":"Bundle","id":"f5b79b02-08fa-4833-90fd-f79ee1687b1f","type":"transaction","entry":[{"fullUrl":"Patient/400d0733-c6be-4e0e-903d-072b637279c6","resource":{"resourceType":"Patient","id":"400d0733-c6be-4e0e-903d-072b637279c6","identifier":[{"type":{"coding":[{"system":"http://terminology.hl7.org/CodeSystem/v2-0203","code":"MR"}]},"system":"urn:fhirgen:mrn","value":"665-58-1859"}],"name":[{"family":"Wright","given":["Willie"]}],"telecom":[{"system":"phone","value":"444.104.0946x2861","use":"home"}],"gender":"male","birthDate":"1952-02-10","address":[{"line":["257 Chase Stream Apt. 947"],"city":"New David","state":"Idaho","postalCode":"23441"}]},"request":{"method":"POST","url":"Patient"}},{"fullUrl":"Observation/17fa90e4-323b-4c41-a4e3-5854e0216973","resource":{"resourceType":"Observation","id":"17fa90e4-323b-4c41-a4e3-5854e0216973","status":"final","code":{"coding":[{"system":"http://loinc.org","code":"50690-7"}]},"subject":{"reference":"Patient/400d0733-c6be-4e0e-903d-072b637279c6"},"effectiveDateTime":"2022-10-13T00:00:00+00:00","valueRatio":{"numerator":{"value":1},"denominator":{"value":4}}},"request":{"method":"POST","url":"Observation"}},{"fullUrl":"Observation/650c7c0d-d58f-4322-aba8-1a1ac237e907","resource":{"resourceType":"Observation","id":"650c7c0d-d58f-4322-aba8-1a1ac237e907","status":"final","code":{"coding":[{"system":"http://loinc.org","code":"31146-4"}]},"subject":{"reference":"Patient/400d0733-c6be-4e0e-903d-072b637279c6"},"effectiveDateTime":"2022-03-09T00:00:00+00:00","valueRatio":{"numerator":{"value":1},"denominator":{"value":4}}},"request":{"method":"POST","url":"Observation"}},{"fullUrl":"Condition/7db3b320-6fa6-42c7-9fce-360c195d6d70","resource":{"resourceType":"Condition","id":"7db3b320-6fa6-42c7-9fce-360c195d6d70","code":{"coding":[{"system":"http://snomed.info/sct","code":"56317004"}]},"subject":{"reference":"Patient/400d0733-c6be-4e0e-903d-072b637279c6"},"onsetDateTime":"2022-08-04T00:00:00+00:00"},"request":{"method":"POST","url":"Condition"}},{"fullUrl":"Condition/139cbb53-a14f-474a-88f8-993c3ae5437f","resource":{"resourceType":"Condition","id":"139cbb53-a14f-474a-88f8-993c3ae5437f","code":{"coding":[{"system":"http://snomed.info/sct","code":"405737000"}]},"subject":{"reference":"Patient/400d0733-c6be-4e0e-903d-072b637279c6"},"onsetDateTime":"2022-11-29T00:00:00+00:00"},"request":{"method":"POST","url":"Condition"}},{"fullUrl":"Condition/a4212be8-5471-46ee-81a0-536f98f12d52","resource":{"resourceType":"Condition","id":"a4212be8-5471-46ee-81a0-536f98f12d52","code":{"coding":[{"system":"http://snomed.info/sct","code":"248980004"}]},"subject":{"reference":"Patient/400d0733-c6be-4e0e-903d-072b637279c6"},"onsetDateTime":"2022-06-10T00:00:00+00:00"},"request":{"method":"POST","url":"Condition"}},{"fullUrl":"Observation/81ff0ee4-f263-4a89-a441-151c72b1474e","resource":{"resourceType":"Observation","id":"81ff0ee4-f263-4a89-a441-151c72b1474e","status":"final","code":{"coding":[{"system":"http://loinc.org","code":"804-5"}]},"subject":{"reference":"Patient/400d0733-c6be-4e0e-903d-072b637279c6"},"effectiveDateTime":"2022-04-29T00:00:00+00:00","valueQuantity":{"value":4.1}},"request":{"method":"POST","url":"Observation"}},{"fullUrl":"Observation/c6864a8b-7e23-4778-a173-1c5d452e8fe8","resource":{"resourceType":"Observation","id":"c6864a8b-7e23-4778-a173-1c5d452e8fe8","status":"final","code":{"coding":[{"system":"http://loinc.org","code":"6690-2"}]},"subject":{"reference":"Patient/400d0733-c6be-4e0e-903d-072b637279c6"},"effectiveDateTime":"2022-07-07T00:00:00+00:00","valueQuantity":{"value":6.9}},"request":{"method":"POST","url":"Observation"}},{"fullUrl":"Observation/885245d2-259c-4b62-8d97-16b214852ef7","resource":{"resourceType":"Observation","id":"885245d2-259c-4b62-8d97-16b214852ef7","status":"final","code":{"coding":[{"system":"http://loinc.org","code":"6690-2"}]},"subject":{"reference":"Patient/400d0733-c6be-4e0e-903d-072b637279c6"},"effectiveDateTime":"2022-10-19T00:00:00+00:00","valueQuantity":{"value":5.1}},"request":{"method":"POST","url":"Observation"}},{"fullUrl":"Observation/a6a66738-5d96-4678-924d-bc2d3794421d","resource":{"resourceType":"Observation","id":"a6a66738-5d96-4678-924d-bc2d3794421d","status":"final","code":{"coding":[{"system":"http://loinc.org","code":"49498-9"}]},"subject":{"reference":"Patient/400d0733-c6be-4e0e-903d-072b637279c6"},"effectiveDateTime":"2022-11-29T00:00:00+00:00"},"request":{"method":"POST","url":"Observation"}},{"fullUrl":"Observation/d3e59681-b8fe-46f3-b1b8-c163affba483","resource":{"resourceType":"Observation","id":"d3e59681-b8fe-46f3-b1b8-c163affba483","status":"final","code":{"coding":[{"system":"http://loinc.org","code":"49498-9"}]},"subject":{"reference":"Patient/400d0733-c6be-4e0e-903d-072b637279c6"},"effectiveDateTime":"2022-09-07T00:00:00+00:00"},"request":{"method":"POST","url":"Observation"}},{"fullUrl":"Observation/5ed574c9-e022-439b-9ce5-041406ec9317","resource":{"resourceType":"Observation","id":"5ed574c9-e022-439b-9ce5-041406ec9317","status":"final","code":{"coding":[{"system":"http://loinc.org","code":"49498-9"}]},"subject":{"reference":"Patient/400d0733-c6be-4e0e-903d-072b637279c6"},"effectiveDateTime":"2022-09-11T00:00:00+00:00"},"request":{"method":"POST","url":"Observation"}},{"fullUrl":"Procedure/86bb5b3b-f62b-40e2-86a5-e1b257aac5ab","resource":{"resourceType":"Procedure","id":"86bb5b3b-f62b-40e2-86a5-e1b257aac5ab","status":"completed","code":{"coding":[{"system":"http://snomed.info/sct","code":"647000"}]},"subject":{"reference":"Patient/400d0733-c6be-4e0e-903d-072b637279c6"},"performedDateTime":"2022-07-09T00:00:00+00:00"},"request":{"method":"POST","url":"Procedure"}},{"fullUrl":"Procedure/bb1a5e01-305b-48a0-a1ab-7aa57f71efa5","resource":{"resourceType":"Procedure","id":"bb1a5e01-305b-48a0-a1ab-7aa57f71efa5","status":"completed","code":{"coding":[{"system":"http://snomed.info/sct","code":"647000"}]},"subject":{"reference":"Patient/400d0733-c6be-4e0e-903d-072b637279c6"},"performedDateTime":"2022-10-03T00:00:00+00:00"},"request":{"method":"POST","url":"Procedure"}},{"fullUrl":"Procedure/056a5ae7-d2f4-4f05-8e4c-5f6b88a04ff3","resource":{"resourceType":"Procedure","id":"056a5ae7-d2f4-4f05-8e4c-5f6b88a04ff3","status":"completed","code":{"coding":[{"system":"http://snomed.info/sct","code":"115006"}]},"subject":{"reference":"Patient/400d0733-c6be-4e0e-903d-072b637279c6"},"performedDateTime":"2022-06-09T00:00:00+00:00"},"request":{"method":"POST","url":"Procedure"}},{"fullUrl":"MedicationStatement/96004d11-8067-49d8-9a95-a08f73c1c56c","resource":{"resourceType":"MedicationStatement","id":"96004d11-8067-49d8-9a95-a08f73c1c56c","status":"completed","medicationCodeableConcept":{"coding":[{"system":"http://www.nlm.nih.gov/research/umls/rxnorm","code":"18631"}]},"subject":{"reference":"Patient/400d0733-c6be-4e0e-903d-072b637279c6"},"effectiveDateTime":"2022-04-04T00:00:00+00:00","dosage":[{"doseAndRate":[{"doseQuantity":{"value":2,"unit":"TAB","system":"http://terminology.hl7.org/CodeSystem/v3-orderableDrugForm","code":"TAB"}}]}]},"request":{"method":"POST","url":"MedicationStatement"}},{"fullUrl":"MedicationStatement/74766285-f418-4eee-af62-9e035cc00850","resource":{"resourceType":"MedicationStatement","id":"74766285-f418-4eee-af62-9e035cc00850","status":"completed","medicationCodeableConcept":{"coding":[{"system":"http://www.nlm.nih.gov/research/umls/rxnorm","code":"2193"}]},"subject":{"reference":"Patient/400d0733-c6be-4e0e-903d-072b637279c6"},"effectiveDateTime":"2022-07-15T00:00:00+00:00","dosage":[{"doseAndRate":[{"doseQuantity":{"value":1,"unit":"TAB","system":"http://terminology.hl7.org/CodeSystem/v3-orderableDrugForm","code":"TAB"}}]}]},"request":{"method":"POST","url":"MedicationStatement"}},{"fullUrl":"MedicationStatement/d4b677ce-cb72-420b-bea3-8d324affcbbc","resource":{"resourceType":"MedicationStatement","id":"d4b677ce-cb72-420b-bea3-8d324affcbbc","status":"completed","medicationCodeableConcept":{"coding":[{"system":"http://www.nlm.nih.gov/research/umls/rxnorm","code":"8698"}]},"subject":{"reference":"Patient/400d0733-c6be-4e0e-903d-072b637279c6"},"effectiveDateTime":"2022-12-05T00:00:00+00:00","dosage":[{"doseAndRate":[{"doseQuantity":{"value":1,"unit":"TAB","system":"http://terminology.hl7.org/CodeSystem/v3-orderableDrugForm","code":"TAB"}}]}]},"request":{"method":"POST","url":"MedicationStatement"}},{"fullUrl":"MedicationStatement/873431f7-4d2c-4bc2-a566-6269550665ff","resource":{"resourceType":"MedicationStatement","id":"873431f7-4d2c-4bc2-a566-6269550665ff","status":"completed","medicationCodeableConcept":{"coding":[{"system":"http://www.nlm.nih.gov/research/umls/rxnorm","code":"18631"}]},"subject":{"reference":"Patient/400d0733-c6be-4e0e-903d-072b637279c6"},"effectiveDateTime":"2022-09-04T00:00:00+00:00","dosage":[{"doseAndRate":[{"doseQuantity":{"value":1,"unit":"TAB","system":"http://terminology.hl7.org/CodeSystem/v3-orderableDrugForm","code":"TAB"}}]}]},"request":{"method":"POST","url":"MedicationStatement"}},{"fullUrl":"MedicationStatement/5c4e5aed-2031-40fc-8d91-182a473f9da0","resource":{"resourceType":"MedicationStatement","id":"5c4e5aed-2031-40fc-8d91-182a473f9da0","status":"completed","medicationCodeableConcept":{"coding":[{"system":"http://www.nlm.nih.gov/research/umls/rxnorm","code":"7984"}]},"subject":{"reference":"Patient/400d0733-c6be-4e0e-903d-072b637279c6"},"effectiveDateTime":"2022-09-05T00:00:00+00:00","dosage":[{"doseAndRate":[{"doseQuantity":{"value":2,"unit":"TAB","system":"http://terminology.hl7.org/CodeSystem/v3-orderableDrugForm","code":"TAB"}}]}]},"request":{"method":"POST","url":"MedicationStatement"}},{"fullUrl":"MedicationStatement/95f9e91e-2868-42ab-932f-f968336c3eaf","resource":{"resourceType":"MedicationStatement","id":"95f9e91e-2868-42ab-932f-f968336c3eaf","status":"completed","medicationCodeableConcept":{"coding":[{"system":"http://www.nlm.nih.gov/research/umls/rxnorm","code":"3640"}]},"subject":{"reference":"Patient/400d0733-c6be-4e0e-903d-072b637279c6"},"effectiveDateTime":"2022-11-11T00:00:00+00:00","dosage":[{"doseAndRate":[{"doseQuantity":{"value":4.7,"unit":"TAB","system":"http://terminology.hl7.org/CodeSystem/v3-orderableDrugForm","code":"TAB"}}]}]},"request":{"method":"POST","url":"MedicationStatement"}},{"fullUrl":"Encounter/5b599b3f-2a5f-4c9a-a58d-e8254a42d8e8","resource":{"resourceType":"Encounter","id":"5b599b3f-2a5f-4c9a-a58d-e8254a42d8e8","status":"finished","class":{"system":"http://terminology.hl7.org/CodeSystem/v3-ActCode","code":"IMP","display":"inpatient encounter"},"type":[{"coding":[{"system":"http://terminology.hl7.org/CodeSystem/encounter-type","code":"CCS60"}]}],"subject":{"reference":"Patient/400d0733-c6be-4e0e-903d-072b637279c6"},"period":{"start":"2022-04-28T00:00:00+00:00","end":"2022-05-02T00:00:00+00:00"}},"request":{"method":"POST","url":"Encounter"}},{"fullUrl":"Encounter/e08fa0ff-1d06-4a1e-a44b-d202a766cc9f","resource":{"resourceType":"Encounter","id":"e08fa0ff-1d06-4a1e-a44b-d202a766cc9f","status":"finished","class":{"system":"http://terminology.hl7.org/CodeSystem/v3-ActCode","code":"IMP","display":"inpatient encounter"},"type":[{"coding":[{"system":"http://terminology.hl7.org/CodeSystem/encounter-type","code":"ADMS"}]}],"subject":{"reference":"Patient/400d0733-c6be-4e0e-903d-072b637279c6"},"period":{"start":"2022-02-05T00:00:00+00:00","end":"2022-02-08T00:00:00+00:00"}},"request":{"method":"POST","url":"Encounter"}},{"fullUrl":"Encounter/450a844d-1769-4aff-b602-ee3d7d3df4e9","resource":{"resourceType":"Encounter","id":"450a844d-1769-4aff-b602-ee3d7d3df4e9","status":"finished","class":{"system":"http://terminology.hl7.org/CodeSystem/v3-ActCode","code":"IMP","display":"inpatient encounter"},"type":[{"coding":[{"system":"http://terminology.hl7.org/CodeSystem/encounter-type","code":"ADMS"}]}],"subject":{"reference":"Patient/400d0733-c6be-4e0e-903d-072b637279c6"},"period":{"start":"2022-06-03T00:00:00+00:00","end":"2022-06-09T00:00:00+00:00"}},"request":{"method":"POST","url":"Encounter"}},{"fullUrl":"Encounter/88f04353-3694-4f56-adf8-6c5c3fb03153","resource":{"resourceType":"Encounter","id":"88f04353-3694-4f56-adf8-6c5c3fb03153","status":"finished","class":{"system":"http://terminology.hl7.org/CodeSystem/v3-ActCode","code":"AMB","display":"ambulatory"},"type":[{"coding":[{"system":"http://terminology.hl7.org/CodeSystem/encounter-type","code":"OKI"}]}],"subject":{"reference":"Patient/400d0733-c6be-4e0e-903d-072b637279c6"},"period":{"start":"2022-06-05T00:00:00+00:00","end":"2022-06-13T00:00:00+00:00"}},"request":{"method":"POST","url":"Encounter"}},{"fullUrl":"Encounter/0fd1c7f6-82f4-44ca-a943-1d3154886a5c","resource":{"resourceType":"Encounter","id":"0fd1c7f6-82f4-44ca-a943-1d3154886a5c","status":"finished","class":{"system":"http://terminology.hl7.org/CodeSystem/v3-ActCode","code":"FLD","display":"field"},"type":[{"coding":[{"system":"http://terminology.hl7.org/CodeSystem/encounter-type","code":"BD/BM-clin"}]}],"subject":{"reference":"Patient/400d0733-c6be-4e0e-903d-072b637279c6"},"period":{"start":"2022-04-21T00:00:00+00:00","end":"2022-04-26T00:00:00+00:00"}},"request":{"method":"POST","url":"Encounter"}},{"fullUrl":"Encounter/c1058021-0e25-40bf-b3c3-c72cec584f7d","resource":{"resourceType":"Encounter","id":"c1058021-0e25-40bf-b3c3-c72cec584f7d","status":"finished","class":{"system":"http://terminology.hl7.org/CodeSystem/v3-ActCode","code":"ACUTE","display":"inpatient acute"},"type":[{"coding":[{"system":"http://terminology.hl7.org/CodeSystem/encounter-type","code":"CCS60"}]}],"subject":{"reference":"Patient/400d0733-c6be-4e0e-903d-072b637279c6"},"period":{"start":"2022-03-08T00:00:00+00:00","end":"2022-03-12T00:00:00+00:00"}},"request":{"method":"POST","url":"Encounter"}},{"fullUrl":"Patient/b9ae3f3c-fb30-4af2-bd96-58306020da29","resource":{"resourceType":"Patient","id":"b9ae3f3c-fb30-4af2-bd96-58306020da29","identifier":[{"type":{"coding":[{"system":"http://terminology.hl7.org/CodeSystem/v2-0203","code":"MR"}]},"system":"urn:fhirgen:mrn","value":"227-77-9676"}],"name":[{"family":"Jordan","given":["Brian"]}],"telecom":[{"system":"phone","value":"+1-138-796-6933x87761","use":"home"}],"gender":"male","birthDate":"1971-05-28","address":[{"line":["77701 Hunt Locks"],"city":"Ashleyborough","state":"West Virginia","postalCode":"90420"}]},"request":{"method":"POST","url":"Patient"}},{"fullUrl":"Observation/997c9811-689f-47d7-b00c-16490498821b","resource":{"resourceType":"Observation","id":"997c9811-689f-47d7-b00c-16490498821b","status":"final","code":{"coding":[{"system":"http://loinc.org","code":"47476-7"}]},"subject":{"reference":"Patient/b9ae3f3c-fb30-4af2-bd96-58306020da29"},"effectiveDateTime":"2022-06-15T00:00:00+00:00","valueRatio":{"numerator":{"value":1},"denominator":{"value":64}}},"request":{"method":"POST","url":"Observation"}},{"fullUrl":"Observation/b89af46d-b060-4aca-8afb-34e08313ed64","resource":{"resourceType":"Observation","id":"b89af46d-b060-4aca-8afb-34e08313ed64","status":"final","code":{"coding":[{"system":"http://loinc.org","code":"71793-4"}]},"subject":{"reference":"Patient/b9ae3f3c-fb30-4af2-bd96-58306020da29"},"effectiveDateTime":"2022-09-10T00:00:00+00:00","valueRatio":{"numerator":{"value":1},"denominator":{"value":32}}},"request":{"method":"POST","url":"Observation"}},{"fullUrl":"Observation/774190b8-100b-4cb1-9784-b16fcef6bb52","resource":{"resourceType":"Observation","id":"774190b8-100b-4cb1-9784-b16fcef6bb52","status":"final","code":{"coding":[{"system":"http://loinc.org","code":"50695-6"}]},"subject":{"reference":"Patient/b9ae3f3c-fb30-4af2-bd96-58306020da29"},"effectiveDateTime":"2022-09-06T00:00:00+00:00","valueRatio":{"numerator":{"value":1},"denominator":{"value":4}}},"request":{"method":"POST","url":"Observation"}},{"fullUrl":"Condition/6176c3c7-ee99-429f-9e66-1e728211ecf4","resource":{"resourceType":"Condition","id":"6176c3c7-ee99-429f-9e66-1e728211ecf4","code":{"coding":[{"system":"http://snomed.info/sct","code":"198199009"}]},"subject":{"reference":"Patient/b9ae3f3c-fb30-4af2-bd96-58306020da29"},"onsetDateTime":"2022-02-22T00:00:00+00:00"},"request":{"method":"POST","url":"Condition"}},{"fullUrl":"Condition/fab221e8-a78b-4e8a-a28f-c54048bed327","resource":{"resourceType":"Condition","id":"fab221e8-a78b-4e8a-a28f-c54048bed327","code":{"coding":[{"system":"http://snomed.info/sct","code":"91554004"}]},"subject":{"reference":"Patient/b9ae3f3c-fb30-4af2-bd96-58306020da29"},"onsetDateTime":"2022-03-31T00:00:00+00:00"},"request":{"method":"POST","url":"Condition"}},{"fullUrl":"Condition/c430406f-73be-47f3-a31a-52eb62892a14","resource":{"resourceType":"Condition","id":"c430406f-73be-47f3-a31a-52eb62892a14","code":{"coding":[{"system":"http://snomed.info/sct","code":"31070006"}]},"subject":{"reference":"Patient/b9ae3f3c-fb30-4af2-bd96-58306020da29"},"onsetDateTime":"2022-07-01T00:00:00+00:00"},"request":{"method":"POST","url":"Condition"}},{"fullUrl":"Condition/1132f524-64d7-4806-abfc-b7eea1c23fed","resource":{"resourceType":"Condition","id":"1132f524-64d7-4806-abfc-b7eea1c23fed","code":{"coding":[{"system":"http://snomed.info/sct","code":"30746006"}]},"subject":{"reference":"Patient/b9ae3f3c-fb30-4af2-bd96-58306020da29"},"onsetDateTime":"2022-10-14T00:00:00+00:00"},"request":{"method":"POST","url":"Condition"}},{"fullUrl":"Observation/b96724f0-4cee-4123-9bf7-a6440e2a4bef","resource":{"resourceType":"Observation","id":"b96724f0-4cee-4123-9bf7-a6440e2a4bef","status":"final","code":{"coding":[{"system":"http://loinc.org","code":"26464-8"}]},"subject":{"reference":"Patient/b9ae3f3c-fb30-4af2-bd96-58306020da29"},"effectiveDateTime":"2022-03-14T00:00:00+00:00","valueQuantity":{"value":7.2}},"request":{"method":"POST","url":"Observation"}},{"fullUrl":"Observation/e9ea1aca-436d-426a-8624-540eae2e43b4","resource":{"resourceType":"Observation","id":"e9ea1aca-436d-426a-8624-540eae2e43b4","status":"final","code":{"coding":[{"system":"http://loinc.org","code":"49498-9"}]},"subject":{"reference":"Patient/b9ae3f3c-fb30-4af2-bd96-58306020da29"},"effectiveDateTime":"2022-04-15T00:00:00+00:00","valueQuantity":{"value":8.7}},"request":{"method":"POST","url":"Observation"}},{"fullUrl":"Observation/2a41c2d1-0322-46bc-8722-71385f59643e","resource":{"resourceType":"Observation","id":"2a41c2d1-0322-46bc-8722-71385f59643e","status":"final","code":{"coding":[{"system":"http://loinc.org","code":"26464-8"}]},"subject":{"reference":"Patient/b9ae3f3c-fb30-4af2-bd96-58306020da29"},"effectiveDateTime":"2022-04-17T00:00:00+00:00","valueQuantity":{"value":9.4}},"request":{"method":"POST","url":"Observation"}},{"fullUrl":"Observation/d5a77392-dc32-4c2c-a7a5-ca940f7d7e43","resource":{"resourceType":"Observation","id":"d5a77392-dc32-4c2c-a7a5-ca940f7d7e43","status":"final","code":{"coding":[{"system":"http://loinc.org","code":"49498-9"}]},"subject":{"reference":"Patient/b9ae3f3c-fb30-4af2-bd96-58306020da29"},"effectiveDateTime":"2022-04-13T00:00:00+00:00"},"request":{"method":"POST","url":"Observation"}},{"fullUrl":"Observation/30ecf6ee-0575-4b64-a3da-c0ed7f15b107","resource":{"resourceType":"Observation","id":"30ecf6ee-0575-4b64-a3da-c0ed7f15b107","status":"final","code":{"coding":[{"system":"http://loinc.org","code":"49498-9"}]},"subject":{"reference":"Patient/b9ae3f3c-fb30-4af2-bd96-58306020da29"},"effectiveDateTime":"2022-06-24T00:00:00+00:00"},"request":{"method":"POST","url":"Observation"}},{"fullUrl":"Procedure/e59e06b5-0339-4d8b-bd08-ab5647867606","resource":{"resourceType":"Procedure","id":"e59e06b5-0339-4d8b-bd08-ab5647867606","status":"completed","code":{"coding":[{"system":"http://snomed.info/sct","code":"146005"}]},"subject":{"reference":"Patient/b9ae3f3c-fb30-4af2-bd96-58306020da29"},"performedDateTime":"2022-10-21T00:00:00+00:00"},"request":{"method":"POST","url":"Procedure"}},{"fullUrl":"Procedure/e432f947-732d-4e8c-bc62-066ffb505e27","resource":{"resourceType":"Procedure","id":"e432f947-732d-4e8c-bc62-066ffb505e27","status":"completed","code":{"coding":[{"system":"http://snomed.info/sct","code":"115006"}]},"subject":{"reference":"Patient/b9ae3f3c-fb30-4af2-bd96-58306020da29"},"performedDateTime":"2022-09-23T00:00:00+00:00"},"request":{"method":"POST","url":"Procedure"}},{"fullUrl":"Procedure/a2cd0619-03a2-4c91-923c-f7b6783b3dce","resource":{"resourceType":"Procedure","id":"a2cd0619-03a2-4c91-923c-f7b6783b3dce","status":"completed","code":{"coding":[{"system":"http://snomed.info/sct","code":"146005"}]},"subject":{"reference":"Patient/b9ae3f3c-fb30-4af2-bd96-58306020da29"},"performedDateTime":"2022-01-19T00:00:00+00:00"},"request":{"method":"POST","url":"Procedure"}},{"fullUrl":"MedicationStatement/032824a1-f22b-4d1f-a35a-1f869ecdd614","resource":{"resourceType":"MedicationStatement","id":"032824a1-f22b-4d1f-a35a-1f869ecdd614","status":"completed","medicationCodeableConcept":{"coding":[{"system":"http://www.nlm.nih.gov/research/umls/rxnorm","code":"2193"}]},"subject":{"reference":"Patient/b9ae3f3c-fb30-4af2-bd96-58306020da29"},"effectiveDateTime":"2022-02-02T00:00:00+00:00","dosage":[{"doseAndRate":[{"doseQuantity":{"value":1,"unit":"TAB","system":"http://terminology.hl7.org/CodeSystem/v3-orderableDrugForm","code":"TAB"}}]}]},"request":{"method":"POST","url":"MedicationStatement"}},{"fullUrl":"MedicationStatement/34c4277d-0d0b-48f1-b538-609362709128","resource":{"resourceType":"MedicationStatement","id":"34c4277d-0d0b-48f1-b538-609362709128","status":"completed","medicationCodeableConcept":{"coding":[{"system":"http://www.nlm.nih.gov/research/umls/rxnorm","code":"7980"}]},"subject":{"reference":"Patient/b9ae3f3c-fb30-4af2-bd96-58306020da29"},"effectiveDateTime":"2022-02-03T00:00:00+00:00","dosage":[{"doseAndRate":[{"doseQuantity":{"value":1,"unit":"TAB","system":"http://terminology.hl7.org/CodeSystem/v3-orderableDrugForm","code":"TAB"}}]}]},"request":{"method":"POST","url":"MedicationStatement"}},{"fullUrl":"MedicationStatement/ea171865-008b-4354-ac78-caaa8f1653cb","resource":{"resourceType":"MedicationStatement","id":"ea171865-008b-4354-ac78-caaa8f1653cb","status":"completed","medicationCodeableConcept":{"coding":[{"system":"http://www.nlm.nih.gov/research/umls/rxnorm","code":"18631"}]},"subject":{"reference":"Patient/b9ae3f3c-fb30-4af2-bd96-58306020da29"},"effectiveDateTime":"2022-01-07T00:00:00+00:00","dosage":[{"doseAndRate":[{"doseQuantity":{"value":4.2,"unit":"TAB","system":"http://terminology.hl7.org/CodeSystem/v3-orderableDrugForm","code":"TAB"}}]}]},"request":{"method":"POST","url":"MedicationStatement"}},{"fullUrl":"MedicationStatement/528239e9-5408-4990-9058-98ea280f80bd","resource":{"resourceType":"MedicationStatement","id":"528239e9-5408-4990-9058-98ea280f80bd","status":"completed","medicationCodeableConcept":{"coding":[{"system":"http://www.nlm.nih.gov/research/umls/rxnorm","code":"7980"}]},"subject":{"reference":"Patient/b9ae3f3c-fb30-4af2-bd96-58306020da29"},"effectiveDateTime":"2022-02-18T00:00:00+00:00","dosage":[{"doseAndRate":[{"doseQuantity":{"value":3.4,"unit":"TAB","system":"http://terminology.hl7.org/CodeSystem/v3-orderableDrugForm","code":"TAB"}}]}]},"request":{"method":"POST","url":"MedicationStatement"}},{"fullUrl":"Encounter/47c6586c-1a88-4123-b747-8486a270b0e3","resource":{"resourceType":"Encounter","id":"47c6586c-1a88-4123-b747-8486a270b0e3","status":"finished","class":{"system":"http://terminology.hl7.org/CodeSystem/v3-ActCode","code":"IMP","display":"inpatient encounter"},"type":[{"coding":[{"system":"http://terminology.hl7.org/CodeSystem/encounter-type","code":"OKI"}]}],"subject":{"reference":"Patient/b9ae3f3c-fb30-4af2-bd96-58306020da29"},"period":{"start":"2022-10-09T00:00:00+00:00","end":"2022-10-15T00:00:00+00:00"}},"request":{"method":"POST","url":"Encounter"}},{"fullUrl":"Encounter/5a1e3eef-169e-4af0-8762-fac9087564f9","resource":{"resourceType":"Encounter","id":"5a1e3eef-169e-4af0-8762-fac9087564f9","status":"finished","class":{"system":"http://terminology.hl7.org/CodeSystem/v3-ActCode","code":"IMP","display":"inpatient encounter"},"type":[{"coding":[{"system":"http://terminology.hl7.org/CodeSystem/encounter-type","code":"ADMS"}]}],"subject":{"reference":"Patient/b9ae3f3c-fb30-4af2-bd96-58306020da29"},"period":{"start":"2022-09-22T00:00:00+00:00","end":"2022-09-25T00:00:00+00:00"}},"request":{"method":"POST","url":"Encounter"}},{"fullUrl":"Encounter/91fb5692-161b-4c0e-83e1-31b1f9abee94","resource":{"resourceType":"Encounter","id":"91fb5692-161b-4c0e-83e1-31b1f9abee94","status":"finished","class":{"system":"http://terminology.hl7.org/CodeSystem/v3-ActCode","code":"IMP","display":"inpatient encounter"},"type":[{"coding":[{"system":"http://terminology.hl7.org/CodeSystem/encounter-type","code":"OKI"}]}],"subject":{"reference":"Patient/b9ae3f3c-fb30-4af2-bd96-58306020da29"},"period":{"start":"2022-05-19T00:00:00+00:00","end":"2022-05-22T00:00:00+00:00"}},"request":{"method":"POST","url":"Encounter"}},{"fullUrl":"Encounter/702f7a95-75da-4299-8228-1208993f04e1","resource":{"resourceType":"Encounter","id":"702f7a95-75da-4299-8228-1208993f04e1","status":"finished","class":{"system":"http://terminology.hl7.org/CodeSystem/v3-ActCode","code":"SS","display":"short-stay"},"type":[{"coding":[{"system":"http://terminology.hl7.org/CodeSystem/encounter-type","code":"CCS60"}]}],"subject":{"reference":"Patient/b9ae3f3c-fb30-4af2-bd96-58306020da29"},"period":{"start":"2022-11-11T00:00:00+00:00","end":"2022-11-15T00:00:00+00:00"}},"request":{"method":"POST","url":"Encounter"}},{"fullUrl":"Encounter/06f687d3-0833-43cb-acb5-1e192e13a8a4","resource":{"resourceType":"Encounter","id":"06f687d3-0833-43cb-acb5-1e192e13a8a4","status":"finished","class":{"system":"http://terminology.hl7.org/CodeSystem/v3-ActCode","code":"IMP","display":"inpatient encounter"},"type":[{"coding":[{"system":"http://terminology.hl7.org/CodeSystem/encounter-type","code":"BD/BM-clin"}]}],"subject":{"reference":"Patient/b9ae3f3c-fb30-4af2-bd96-58306020da29"},"period":{"start":"2022-08-22T00:00:00+00:00","end":"2022-08-23T00:00:00+00:00"}},"request":{"method":"POST","url":"Encounter"}},{"fullUrl":"Patient/cfc97da3-1e59-44aa-95a7-d9fe88d95868","resource":{"resourceType":"Patient","id":"cfc97da3-1e59-44aa-95a7-d9fe88d95868","identifier":[{"type":{"coding":[{"system":"http://terminology.hl7.org/CodeSystem/v2-0203","code":"MR"}]},"system":"urn:fhirgen:mrn","value":"198-09-2245"}],"name":[{"family":"Joyce","given":["Nicole"]}],"telecom":[{"system":"phone","value":"+1-183-508-0520x778","use":"home"}],"gender":"female","birthDate":"1954-08-04","address":[{"line":["7548 Dennis Coves Suite 588"],"city":"Smithchester","state":"Alaska","postalCode":"72670"}]},"request":{"method":"POST","url":"Patient"}},{"fullUrl":"Observation/4173b301-1883-4d6d-ac36-cd965a842084","resource":{"resourceType":"Observation","id":"4173b301-1883-4d6d-ac36-cd965a842084","status":"final","code":{"coding":[{"system":"http://loinc.org","code":"46203-6"}]},"subject":{"reference":"Patient/cfc97da3-1e59-44aa-95a7-d9fe88d95868"},"effectiveDateTime":"2022-12-27T00:00:00+00:00","valueRatio":{"numerator":{"value":1},"denominator":{"value":32}}},"request":{"method":"POST","url":"Observation"}},{"fullUrl":"Observation/fdc847a1-dd17-4432-836b-4b3456c7a96d","resource":{"resourceType":"Observation","id":"fdc847a1-dd17-4432-836b-4b3456c7a96d","status":"final","code":{"coding":[{"system":"http://loinc.org","code":"47476-7"}]},"subject":{"reference":"Patient/cfc97da3-1e59-44aa-95a7-d9fe88d95868"},"effectiveDateTime":"2022-01-05T00:00:00+00:00","valueRatio":{"numerator":{"value":1},"denominator":{"value":32}}},"request":{"method":"POST","url":"Observation"}},{"fullUrl":"Observation/a84706d5-b933-4bb3-b0b3-dd7418b045c2","resource":{"resourceType":"Observation","id":"a84706d5-b933-4bb3-b0b3-dd7418b045c2","status":"final","code":{"coding":[{"system":"http://loinc.org","code":"87925-4"}]},"subject":{"reference":"Patient/cfc97da3-1e59-44aa-95a7-d9fe88d95868"},"effectiveDateTime":"2022-03-16T00:00:00+00:00","valueRatio":{"numerator":{"value":1},"denominator":{"value":32}}},"request":{"method":"POST","url":"Observation"}},{"fullUrl":"Condition/999b77dd-61bc-413b-b9a6-9c6de02bdbdd","resource":{"resourceType":"Condition","id":"999b77dd-61bc-413b-b9a6-9c6de02bdbdd","code":{"coding":[{"system":"http://snomed.info/sct","code":"71315007"}]},"subject":{"reference":"Patient/cfc97da3-1e59-44aa-95a7-d9fe88d95868"},"onsetDateTime":"2022-04-27T00:00:00+00:00"},"request":{"method":"POST","url":"Condition"}},{"fullUrl":"Condition/e000cc0a-3992-49e3-8b66-fbdb36f02d29","resource":{"resourceType":"Condition","id":"e000cc0a-3992-49e3-8b66-fbdb36f02d29","code":{"coding":[{"system":"http://snomed.info/sct","code":"271939006"}]},"subject":{"reference":"Patient/cfc97da3-1e59-44aa-95a7-d9fe88d95868"},"onsetDateTime":"2022-10-07T00:00:00+00:00"},"request":{"method":"POST","url":"Condition"}},{"fullUrl":"Condition/da6bb364-1ea7-4bb1-a1a9-246221aec6a2","resource":{"resourceType":"Condition","id":"da6bb364-1ea7-4bb1-a1a9-246221aec6a2","code":{"coding":[{"system":"http://snomed.info/sct","code":"271807003"}]},"subject":{"reference":"Patient/cfc97da3-1e59-44aa-95a7-d9fe88d95868"},"onsetDateTime":"2022-04-26T00:00:00+00:00"},"request":{"method":"POST","url":"Condition"}},{"fullUrl":"Condition/6567c06b-9bdd-4c75-82e7-5f07c7f68dff","resource":{"resourceType":"Condition","id":"6567c06b-9bdd-4c75-82e7-5f07c7f68dff","code":{"coding":[{"system":"http://snomed.info/sct","code":"297123002"}]},"subject":{"reference":"Patient/cfc97da3-1e59-44aa-95a7-d9fe88d95868"},"onsetDateTime":"2022-06-22T00:00:00+00:00"},"request":{"method":"POST","url":"Condition"}},{"fullUrl":"Condition/b436b3fd-54f7-4957-89e9-c0f9098cc467","resource":{"resourceType":"Condition","id":"b436b3fd-54f7-4957-89e9-c0f9098cc467","code":{"coding":[{"system":"http://snomed.info/sct","code":"21522001"}]},"subject":{"reference":"Patient/cfc97da3-1e59-44aa-95a7-d9fe88d95868"},"onsetDateTime":"2022-06-11T00:00:00+00:00"},"request":{"method":"POST","url":"Condition"}},{"fullUrl":"Condition/4f65441e-7cb5-4451-9ca1-9b060ee595f1","resource":{"resourceType":"Condition","id":"4f65441e-7cb5-4451-9ca1-9b060ee595f1","code":{"coding":[{"system":"http://snomed.info/sct","code":"418290006"}]},"subject":{"reference":"Patient/cfc97da3-1e59-44aa-95a7-d9fe88d95868"},"onsetDateTime":"2022-01-27T00:00:00+00:00"},"request":{"method":"POST","url":"Condition"}},{"fullUrl":"Observation/0d3b1654-fabb-4acb-80ca-44f29933c8d3","resource":{"resourceType":"Observation","id":"0d3b1654-fabb-4acb-80ca-44f29933c8d3","status":"final","code":{"coding":[{"system":"http://www.ama-assn.org/go/cpt","code":"85048"}]},"subject":{"reference":"Patient/cfc97da3-1e59-44aa-95a7-d9fe88d95868"},"effectiveDateTime":"2022-09-08T00:00:00+00:00","valueQuantity":{"value":10.1}},"request":{"method":"POST","url":"Observation"}},{"fullUrl":"Observation/f35fe629-f1d4-458c-a300-4d9e9f0b13d0","resource":{"resourceType":"Observation","id":"f35fe629-f1d4-458c-a300-4d9e9f0b13d0","status":"final","code":{"coding":[{"system":"http://loinc.org","code":"49498-9"}]},"subject":{"reference":"Patient/cfc97da3-1e59-44aa-95a7-d9fe88d95868"},"effectiveDateTime":"2022-08-28T00:00:00+00:00","valueQuantity":{"value":9.1}},"request":{"method":"POST","url":"Observation"}},{"fullUrl":"Observation/dc39b570-e622-4990-8969-b6f3c86c2b31","resource":{"resourceType":"Observation","id":"dc39b570-e622-4990-8969-b6f3c86c2b31","status":"final","code":{"coding":[{"system":"http://loinc.org","code":"49498-9"}]},"subject":{"reference":"Patient/cfc97da3-1e59-44aa-95a7-d9fe88d95868"},"effectiveDateTime":"2022-12-17T00:00:00+00:00"},"request":{"method":"POST","url":"Observation"}},{"fullUrl":"Observation/61dd95b4-c68a-482d-951c-7fd4198de20d","resource":{"resourceType":"Observation","id":"61dd95b4-c68a-482d-951c-7fd4198de20d","status":"final","code":{"coding":[{"system":"http://loinc.org","code":"49498-9"}]},"subject":{"reference":"Patient/cfc97da3-1e59-44aa-95a7-d9fe88d95868"},"effectiveDateTime":"2022-06-22T00:00:00+00:00"},"request":{"method":"POST","url":"Observation"}},{"fullUrl":"Procedure/c2f27ba3-2b7a-4a83-9b49-18109dbaf9f4","resource":{"resourceType":"Procedure","id":"c2f27ba3-2b7a-4a83-9b49-18109dbaf9f4","status":"completed","code":{"coding":[{"system":"http://snomed.info/sct","code":"189009"}]},"subject":{"reference":"Patient/cfc97da3-1e59-44aa-95a7-d9fe88d95868"},"performedDateTime":"2022-03-22T00:00:00+00:00"},"request":{"method":"POST","url":"Procedure"}},{"fullUrl":"Procedure/66a6c9cd-5a4e-4000-8353-fa9231ec5ee6","resource":{"resourceType":"Procedure","id":"66a6c9cd-5a4e-4000-8353-fa9231ec5ee6","status":"completed","code":{"coding":[{"system":"http://snomed.info/sct","code":"115006"}]},"subject":{"reference":"Patient/cfc97da3-1e59-44aa-95a7-d9fe88d95868"},"performedDateTime":"2022-06-10T00:00:00+00:00"},"request":{"method":"POST","url":"Procedure"}},{"fullUrl":"Procedure/323ab460-b858-4c41-b339-f9e29bb96673","resource":{"resourceType":"Procedure","id":"323ab460-b858-4c41-b339-f9e29bb96673","status":"completed","code":{"coding":[{"system":"http://snomed.info/sct","code":"189009"}]},"subject":{"reference":"Patient/cfc97da3-1e59-44aa-95a7-d9fe88d95868"},"performedDateTime":"2022-06-03T00:00:00+00:00"},"request":{"method":"POST","url":"Procedure"}},{"fullUrl":"MedicationStatement/344c43ea-0d9c-4c75-886c-cdb370e5e2df","resource":{"resourceType":"MedicationStatement","id":"344c43ea-0d9c-4c75-886c-cdb370e5e2df","status":"completed","medicationCodeableConcept":{"coding":[{"system":"http://www.nlm.nih.gov/research/umls/rxnorm","code":"3640"}]},"subject":{"reference":"Patient/cfc97da3-1e59-44aa-95a7-d9fe88d95868"},"effectiveDateTime":"2022-03-06T00:00:00+00:00","dosage":[{"doseAndRate":[{"doseQuantity":{"value":1,"unit":"TAB","system":"http://terminology.hl7.org/CodeSystem/v3-orderableDrugForm","code":"TAB"}}]}]},"request":{"method":"POST","url":"MedicationStatement"}},{"fullUrl":"MedicationStatement/ab115bcc-f4fe-47a8-8abd-29793d31cf86","resource":{"resourceType":"MedicationStatement","id":"ab115bcc-f4fe-47a8-8abd-29793d31cf86","status":"completed","medicationCodeableConcept":{"coding":[{"system":"http://www.nlm.nih.gov/research/umls/rxnorm","code":"7980"}]},"subject":{"reference":"Patient/cfc97da3-1e59-44aa-95a7-d9fe88d95868"},"effectiveDateTime":"2022-09-24T00:00:00+00:00","dosage":[{"doseAndRate":[{"doseQuantity":{"value":6.6,"unit":"TAB","system":"http://terminology.hl7.org/CodeSystem/v3-orderableDrugForm","code":"TAB"}}]}]},"request":{"method":"POST","url":"MedicationStatement"}},{"fullUrl":"MedicationStatement/b47338b6-085a-43da-bcc1-a65f4538c3e5","resource":{"resourceType":"MedicationStatement","id":"b47338b6-085a-43da-bcc1-a65f4538c3e5","status":"completed","medicationCodeableConcept":{"coding":[{"system":"http://www.nlm.nih.gov/research/umls/rxnorm","code":"8698"}]},"subject":{"reference":"Patient/cfc97da3-1e59-44aa-95a7-d9fe88d95868"},"effectiveDateTime":"2022-11-10T00:00:00+00:00","dosage":[{"doseAndRate":[{"doseQuantity":{"value":4.2,"unit":"TAB","system":"http://terminology.hl7.org/CodeSystem/v3-orderableDrugForm","code":"TAB"}}]}]},"request":{"method":"POST","url":"MedicationStatement"}},{"fullUrl":"MedicationStatement/e8e65b65-6605-40ea-8bb0-721b1d37dd53","resource":{"resourceType":"MedicationStatement","id":"e8e65b65-6605-40ea-8bb0-721b1d37dd53","status":"completed","medicationCodeableConcept":{"coding":[{"system":"http://www.nlm.nih.gov/research/umls/rxnorm","code":"3640"}]},"subject":{"reference":"Patient/cfc97da3-1e59-44aa-95a7-d9fe88d95868"},"effectiveDateTime":"2022-01-03T00:00:00+00:00","dosage":[{"doseAndRate":[{"doseQuantity":{"value":3.3,"unit":"TAB","system":"http://terminology.hl7.org/CodeSystem/v3-orderableDrugForm","code":"TAB"}}]}]},"request":{"method":"POST","url":"MedicationStatement"}},{"fullUrl":"MedicationStatement/8cec723e-ce77-4339-a700-5289dcc8df52","resource":{"resourceType":"MedicationStatement","id":"8cec723e-ce77-4339-a700-5289dcc8df52","status":"completed","medicationCodeableConcept":{"coding":[{"system":"http://www.nlm.nih.gov/research/umls/rxnorm","code":"10395"}]},"subject":{"reference":"Patient/cfc97da3-1e59-44aa-95a7-d9fe88d95868"},"effectiveDateTime":"2022-08-10T00:00:00+00:00","dosage":[{"doseAndRate":[{"doseQuantity":{"value":3.9,"unit":"TAB","system":"http://terminology.hl7.org/CodeSystem/v3-orderableDrugForm","code":"TAB"}}]}]},"request":{"method":"POST","url":"MedicationStatement"}},{"fullUrl":"MedicationStatement/37e9bc8c-6e72-409c-a62c-e14bc3c39607","resource":{"resourceType":"MedicationStatement","id":"37e9bc8c-6e72-409c-a62c-e14bc3c39607","status":"completed","medicationCodeableConcept":{"coding":[{"system":"http://www.nlm.nih.gov/research/umls/rxnorm","code":"3640"}]},"subject":{"reference":"Patient/cfc97da3-1e59-44aa-95a7-d9fe88d95868"},"effectiveDateTime":"2022-04-24T00:00:00+00:00","dosage":[{"doseAndRate":[{"doseQuantity":{"value":4.7,"unit":"TAB","system":"http://terminology.hl7.org/CodeSystem/v3-orderableDrugForm","code":"TAB"}}]}]},"request":{"method":"POST","url":"MedicationStatement"}},{"fullUrl":"Encounter/5353d345-bb1d-4db2-8a1b-a6e6491dcb9d","resource":{"resourceType":"Encounter","id":"5353d345-bb1d-4db2-8a1b-a6e6491dcb9d","status":"finished","class":{"system":"http://terminology.hl7.org/CodeSystem/v3-ActCode","code":"IMP","display":"inpatient encounter"},"type":[{"coding":[{"system":"http://terminology.hl7.org/CodeSystem/encounter-type","code":"CCS60"}]}],"subject":{"reference":"Patient/cfc97da3-1e59-44aa-95a7-d9fe88d95868"},"period":{"start":"2022-12-09T00:00:00+00:00","end":"2022-12-12T00:00:00+00:00"}},"request":{"method":"POST","url":"Encounter"}},{"fullUrl":"Encounter/b87f0380-fbf2-4e17-8542-3ea754d2a030","resource":{"resourceType":"Encounter","id":"b87f0380-fbf2-4e17-8542-3ea754d2a030","status":"finished","class":{"system":"http://terminology.hl7.org/CodeSystem/v3-ActCode","code":"IMP","display":"inpatient encounter"},"type":[{"coding":[{"system":"http://terminology.hl7.org/CodeSystem/encounter-type","code":"BD/BM-clin"}]}],"subject":{"reference":"Patient/cfc97da3-1e59-44aa-95a7-d9fe88d95868"},"period":{"start":"2022-05-31T00:00:00+00:00","end":"2022-06-02T00:00:00+00:00"}},"request":{"method":"POST","url":"Encounter"}},{"fullUrl":"Encounter/e3c0c0e4-c8da-4136-bcde-274f13a9d218","resource":{"resourceType":"Encounter","id":"e3c0c0e4-c8da-4136-bcde-274f13a9d218","status":"finished","class":{"system":"http://terminology.hl7.org/CodeSystem/v3-ActCode","code":"IMP","display":"inpatient encounter"},"type":[{"coding":[{"system":"http://terminology.hl7.org/CodeSystem/encounter-type","code":"BD/BM-clin"}]}],"subject":{"reference":"Patient/cfc97da3-1e59-44aa-95a7-d9fe88d95868"},"period":{"start":"2022-09-28T00:00:00+00:00","end":"2022-10-03T00:00:00+00:00"}},"request":{"method":"POST","url":"Encounter"}},{"fullUrl":"Encounter/c44eb097-8b64-4085-a342-95f7e37d7856","resource":{"resourceType":"Encounter","id":"c44eb097-8b64-4085-a342-95f7e37d7856","status":"finished","class":{"system":"http://terminology.hl7.org/CodeSystem/v3-ActCode","code":"PRENC","display":"pre-admission"},"type":[{"coding":[{"system":"http://terminology.hl7.org/CodeSystem/encounter-type","code":"OKI"}]}],"subject":{"reference":"Patient/cfc97da3-1e59-44aa-95a7-d9fe88d95868"},"period":{"start":"2022-11-03T00:00:00+00:00","end":"2022-11-04T00:00:00+00:00"}},"request":{"method":"POST","url":"Encounter"}},{"fullUrl":"Encounter/c49c2375-e0e3-422a-98f8-0c937b0936d4","resource":{"resourceType":"Encounter","id":"c49c2375-e0e3-422a-98f8-0c937b0936d4","status":"finished","class":{"system":"http://terminology.hl7.org/CodeSystem/v3-ActCode","code":"OBSENC","display":"observation encounter"},"type":[{"coding":[{"system":"http://terminology.hl7.org/CodeSystem/encounter-type","code":"OKI"}]}],"subject":{"reference":"Patient/cfc97da3-1e59-44aa-95a7-d9fe88d95868"},"period":{"start":"2022-08-30T00:00:00+00:00","end":"2022-09-07T00:00:00+00:00"}},"request":{"method":"POST","url":"Encounter"}},{"fullUrl":"Encounter/9caf20b6-c0a2-4421-a474-d88ee60723b4","resource":{"resourceType":"Encounter","id":"9caf20b6-c0a2-4421-a474-d88ee60723b4","status":"finished","class":{"system":"http://terminology.hl7.org/CodeSystem/v3-ActCode","code":"IMP","display":"inpatient encounter"},"type":[{"coding":[{"system":"http://terminology.hl7.org/CodeSystem/encounter-type","code":"BD/BM-clin"}]}],"subject":{"reference":"Patient/cfc97da3-1e59-44aa-95a7-d9fe88d95868"},"period":{"start":"2022-10-15T00:00:00+00:00","end":"2022-10-19T00:00:00+00:00"}},"request":{"method":"POST","url":"Encounter"}},{"fullUrl":"Patient/e283d1d5-7474-4181-ac2e-20cebc529e49","resource":{"resourceType":"Patient","id":"e283d1d5-7474-4181-ac2e-20cebc529e49","identifier":[{"type":{"coding":[{"system":"http://terminology.hl7.org/CodeSystem/v2-0203","code":"MR"}]},"system":"urn:fhirgen:mrn","value":"507-50-6079"}],"name":[{"family":"Griffith","given":["Sherri"]}],"telecom":[{"system":"phone","value":"466-413-2452","use":"home"}],"gender":"female","birthDate":"2000-11-22","address":[{"line":["314 Charles Course Apt. 627"],"city":"Travisburgh","state":"Oklahoma","postalCode":"65127"}]},"request":{"method":"POST","url":"Patient"}},{"fullUrl":"Observation/6e1223f4-b52b-467c-bc12-e77711b9b81d","resource":{"resourceType":"Observation","id":"6e1223f4-b52b-467c-bc12-e77711b9b81d","status":"final","code":{"coding":[{"system":"http://loinc.org","code":"50695-6"}]},"subject":{"reference":"Patient/e283d1d5-7474-4181-ac2e-20cebc529e49"},"effectiveDateTime":"2022-07-21T00:00:00+00:00","valueRatio":{"numerator":{"value":1},"denominator":{"value":64}}},"request":{"method":"POST","url":"Observation"}},{"fullUrl":"Observation/bcb716c5-e073-41ee-bb58-f73f0d731e79","resource":{"resourceType":"Observation","id":"bcb716c5-e073-41ee-bb58-f73f0d731e79","status":"final","code":{"coding":[{"system":"http://loinc.org","code":"22590-4"}]},"subject":{"reference":"Patient/e283d1d5-7474-4181-ac2e-20cebc529e49"},"effectiveDateTime":"2022-09-28T00:00:00+00:00","valueRatio":{"numerator":{"value":1},"denominator":{"value":4}}},"request":{"method":"POST","url":"Observation"}},{"fullUrl":"Condition/1f12d174-ba61-44cc-838c-e43397031678","resource":{"resourceType":"Condition","id":"1f12d174-ba61-44cc-838c-e43397031678","code":{"coding":[{"system":"http://snomed.info/sct","code":"31070006"}]},"subject":{"reference":"Patient/e283d1d5-7474-4181-ac2e-20cebc529e49"},"onsetDateTime":"2022-09-29T00:00:00+00:00"},"request":{"method":"POST","url":"Condition"}},{"fullUrl":"Condition/50c6f34f-8b3b-4a71-b895-959799d1525c","resource":{"resourceType":"Condition","id":"50c6f34f-8b3b-4a71-b895-959799d1525c","code":{"coding":[{"system":"http://snomed.info/sct","code":"31070006"}]},"subject":{"reference":"Patient/e283d1d5-7474-4181-ac2e-20cebc529e49"},"onsetDateTime":"2022-09-12T00:00:00+00:00"},"request":{"method":"POST","url":"Condition"}},{"fullUrl":"Condition/3f77790a-7982-4683-8c86-083bbc109579","resource":{"resourceType":"Condition","id":"3f77790a-7982-4683-8c86-083bbc109579","code":{"coding":[{"system":"http://snomed.info/sct","code":"736686006"}]},"subject":{"reference":"Patient/e283d1d5-7474-4181-ac2e-20cebc529e49"},"onsetDateTime":"2022-10-29T00:00:00+00:00"},"request":{"method":"POST","url":"Condition"}},{"fullUrl":"Condition/cfe6a474-4f8d-40ec-ba8d-d785c4631e04","resource":{"resourceType":"Condition","id":"cfe6a474-4f8d-40ec-ba8d-d785c4631e04","code":{"coding":[{"system":"http://snomed.info/sct","code":"405737000"}]},"subject":{"reference":"Patient/e283d1d5-7474-4181-ac2e-20cebc529e49"},"onsetDateTime":"2022-02-25T00:00:00+00:00"},"request":{"method":"POST","url":"Condition"}},{"fullUrl":"Condition/3dca1ed8-f35d-43b5-a3b0-b2f9d38c5f80","resource":{"resourceType":"Condition","id":"3dca1ed8-f35d-43b5-a3b0-b2f9d38c5f80","code":{"coding":[{"system":"http://snomed.info/sct","code":"3951002"}]},"subject":{"reference":"Patient/e283d1d5-7474-4181-ac2e-20cebc529e49"},"onsetDateTime":"2022-11-02T00:00:00+00:00"},"request":{"method":"POST","url":"Condition"}},{"fullUrl":"Condition/5545a0a8-26f9-43cc-a30b-5f174ae04d30","resource":{"resourceType":"Condition","id":"5545a0a8-26f9-43cc-a30b-5f174ae04d30","code":{"coding":[{"system":"http://snomed.info/sct","code":"30746006"}]},"subject":{"reference":"Patient/e283d1d5-7474-4181-ac2e-20cebc529e49"},"onsetDateTime":"2022-09-21T00:00:00+00:00"},"request":{"method":"POST","url":"Condition"}},{"fullUrl":"Condition/db2f086b-6d26-471a-a109-274fa0767d28","resource":{"resourceType":"Condition","id":"db2f086b-6d26-471a-a109-274fa0767d28","code":{"coding":[{"system":"http://snomed.info/sct","code":"709977002"}]},"subject":{"reference":"Patient/e283d1d5-7474-4181-ac2e-20cebc529e49"},"onsetDateTime":"2022-10-15T00:00:00+00:00"},"request":{"method":"POST","url":"Condition"}},{"fullUrl":"Condition/db18af97-5bdc-4c84-bc44-2c6533ad9f19","resource":{"resourceType":"Condition","id":"db18af97-5bdc-4c84-bc44-2c6533ad9f19","code":{"coding":[{"system":"http://snomed.info/sct","code":"71315007"}]},"subject":{"reference":"Patient/e283d1d5-7474-4181-ac2e-20cebc529e49"},"onsetDateTime":"2022-10-29T00:00:00+00:00"},"request":{"method":"POST","url":"Condition"}},{"fullUrl":"Observation/c472ea26-d880-4e9c-8174-f99a7d9764da","resource":{"resourceType":"Observation","id":"c472ea26-d880-4e9c-8174-f99a7d9764da","status":"final","code":{"coding":[{"system":"http://loinc.org","code":"26464-8"}]},"subject":{"reference":"Patient/e283d1d5-7474-4181-ac2e-20cebc529e49"},"effectiveDateTime":"2022-11-30T00:00:00+00:00","valueQuantity":{"value":5.3}},"request":{"method":"POST","url":"Observation"}},{"fullUrl":"Observation/3349020e-37d5-40e5-99b4-572dd87557e9","resource":{"resourceType":"Observation","id":"3349020e-37d5-40e5-99b4-572dd87557e9","status":"final","code":{"coding":[{"system":"http://loinc.org","code":"6690-2"}]},"subject":{"reference":"Patient/e283d1d5-7474-4181-ac2e-20cebc529e49"},"effectiveDateTime":"2022-04-24T00:00:00+00:00","valueQuantity":{"value":7.2}},"request":{"method":"POST","url":"Observation"}},{"fullUrl":"Observation/6d6c1775-86e0-4e19-8410-e107b43f62b6","resource":{"resourceType":"Observation","id":"6d6c1775-86e0-4e19-8410-e107b43f62b6","status":"final","code":{"coding":[{"system":"http://loinc.org","code":"49498-9"}]},"subject":{"reference":"Patient/e283d1d5-7474-4181-ac2e-20cebc529e49"},"effectiveDateTime":"2022-10-19T00:00:00+00:00","valueQuantity":{"value":11}},"request":{"method":"POST","url":"Observation"}},{"fullUrl":"Observation/ac47c59e-90c4-4f33-a401-bfcebd3adef0","resource":{"resourceType":"Observation","id":"ac47c59e-90c4-4f33-a401-bfcebd3adef0","status":"final","code":{"coding":[{"system":"http://loinc.org","code":"49498-9"}]},"subject":{"reference":"Patient/e283d1d5-7474-4181-ac2e-20cebc529e49"},"effectiveDateTime":"2022-07-09T00:00:00+00:00"},"request":{"method":"POST","url":"Observation"}},{"fullUrl":"Observation/48be746e-cdce-47cc-a24f-19290fd03c1e","resource":{"resourceType":"Observation","id":"48be746e-cdce-47cc-a24f-19290fd03c1e","status":"final","code":{"coding":[{"system":"http://loinc.org","code":"49498-9"}]},"subject":{"reference":"Patient/e283d1d5-7474-4181-ac2e-20cebc529e49"},"effectiveDateTime":"2022-01-15T00:00:00+00:00"},"request":{"method":"POST","url":"Observation"}},{"fullUrl":"Observation/cfb27b18-4e68-43d4-a7ff-588c55ed96e0","resource":{"resourceType":"Observation","id":"cfb27b18-4e68-43d4-a7ff-588c55ed96e0","status":"final","code":{"coding":[{"system":"http://loinc.org","code":"49498-9"}]},"subject":{"reference":"Patient/e283d1d5-7474-4181-ac2e-20cebc529e49"},"effectiveDateTime":"2022-12-19T00:00:00+00:00"},"request":{"method":"POST","url":"Observation"}},{"fullUrl":"Procedure/248451b4-9015-4742-9649-1c6b08c9e12a","resource":{"resourceType":"Procedure","id":"248451b4-9015-4742-9649-1c6b08c9e12a","status":"completed","code":{"coding":[{"system":"http://snomed.info/sct","code":"104001"}]},"subject":{"reference":"Patient/e283d1d5-7474-4181-ac2e-20cebc529e49"},"performedDateTime":"2022-01-01T00:00:00+00:00"},"request":{"method":"POST","url":"Procedure"}},{"fullUrl":"Procedure/fe74b856-8064-431f-9405-d64e86b5400a","resource":{"resourceType":"Procedure","id":"fe74b856-8064-431f-9405-d64e86b5400a","status":"completed","code":{"coding":[{"system":"http://snomed.info/sct","code":"189009"}]},"subject":{"reference":"Patient/e283d1d5-7474-4181-ac2e-20cebc529e49"},"performedDateTime":"2022-02-26T00:00:00+00:00"},"request":{"method":"POST","url":"Procedure"}},{"fullUrl":"Procedure/10ab2261-f33a-4793-a2af-011a1f70d31e","resource":{"resourceType":"Procedure","id":"10ab2261-f33a-4793-a2af-011a1f70d31e","status":"completed","code":{"coding":[{"system":"http://snomed.info/sct","code":"647000"}]},"subject":{"reference":"Patient/e283d1d5-7474-4181-ac2e-20cebc529e49"},"performedDateTime":"2022-12-06T00:00:00+00:00"},"request":{"method":"POST","url":"Procedure"}},{"fullUrl":"MedicationStatement/4e555cb0-7ad8-4a7e-aab6-ce37a1136a0a","resource":{"resourceType":"MedicationStatement","id":"4e555cb0-7ad8-4a7e-aab6-ce37a1136a0a","status":"completed","medicationCodeableConcept":{"coding":[{"system":"http://www.nlm.nih.gov/research/umls/rxnorm","code":"3640"}]},"subject":{"reference":"Patient/e283d1d5-7474-4181-ac2e-20cebc529e49"},"effectiveDateTime":"2022-01-26T00:00:00+00:00","dosage":[{"doseAndRate":[{"doseQuantity":{"value":2,"unit":"TAB","system":"http://terminology.hl7.org/CodeSystem/v3-orderableDrugForm","code":"TAB"}}]}]},"request":{"method":"POST","url":"MedicationStatement"}},{"fullUrl":"MedicationStatement/e756b1f2-17aa-456d-bbad-c0c50c44d931","resource":{"resourceType":"MedicationStatement","id":"e756b1f2-17aa-456d-bbad-c0c50c44d931","status":"completed","medicationCodeableConcept":{"coding":[{"system":"http://www.nlm.nih.gov/research/umls/rxnorm","code":"7984"}]},"subject":{"reference":"Patient/e283d1d5-7474-4181-ac2e-20cebc529e49"},"effectiveDateTime":"2022-12-09T00:00:00+00:00","dosage":[{"doseAndRate":[{"doseQuantity":{"value":2,"unit":"TAB","system":"http://terminology.hl7.org/CodeSystem/v3-orderableDrugForm","code":"TAB"}}]}]},"request":{"method":"POST","url":"MedicationStatement"}},{"fullUrl":"MedicationStatement/32f0417e-0aa0-4f19-9952-4393d1ace276","resource":{"resourceType":"MedicationStatement","id":"32f0417e-0aa0-4f19-9952-4393d1ace276","status":"completed","medicationCodeableConcept":{"coding":[{"system":"http://www.nlm.nih.gov/research/umls/rxnorm","code":"2193"}]},"subject":{"reference":"Patient/e283d1d5-7474-4181-ac2e-20cebc529e49"},"effectiveDateTime":"2022-01-04T00:00:00+00:00","dosage":[{"doseAndRate":[{"doseQuantity":{"value":1,"unit":"TAB","system":"http://terminology.hl7.org/CodeSystem/v3-orderableDrugForm","code":"TAB"}}]}]},"request":{"method":"POST","url":"MedicationStatement"}},{"fullUrl":"MedicationStatement/1297b361-9ea4-4578-a6d5-d385633d1c4f","resource":{"resourceType":"MedicationStatement","id":"1297b361-9ea4-4578-a6d5-d385633d1c4f","status":"completed","medicationCodeableConcept":{"coding":[{"system":"http://www.nlm.nih.gov/research/umls/rxnorm","code":"3640"}]},"subject":{"reference":"Patient/e283d1d5-7474-4181-ac2e-20cebc529e49"},"effectiveDateTime":"2022-12-29T00:00:00+00:00","dosage":[{"doseAndRate":[{"doseQuantity":{"value":1,"unit":"TAB","system":"http://terminology.hl7.org/CodeSystem/v3-orderableDrugForm","code":"TAB"}}]}]},"request":{"method":"POST","url":"MedicationStatement"}},{"fullUrl":"MedicationStatement/465c77ba-b6c2-402f-8a4d-966321fa1628","resource":{"resourceType":"MedicationStatement","id":"465c77ba-b6c2-402f-8a4d-966321fa1628","status":"completed","medicationCodeableConcept":{"coding":[{"system":"http://www.nlm.nih.gov/research/umls/rxnorm","code":"18631"}]},"subject":{"reference":"Patient/e283d1d5-7474-4181-ac2e-20cebc529e49"},"effectiveDateTime":"2022-10-05T00:00:00+00:00","dosage":[{"doseAndRate":[{"doseQuantity":{"value":1,"unit":"TAB","system":"http://terminology.hl7.org/CodeSystem/v3-orderableDrugForm","code":"TAB"}}]}]},"request":{"method":"POST","url":"MedicationStatement"}},{"fullUrl":"MedicationStatement/db8634d2-4c19-48c9-9aa7-9c55349588a4","resource":{"resourceType":"MedicationStatement","id":"db8634d2-4c19-48c9-9aa7-9c55349588a4","status":"completed","medicationCodeableConcept":{"coding":[{"system":"http://www.nlm.nih.gov/research/umls/rxnorm","code":"8698"}]},"subject":{"reference":"Patient/e283d1d5-7474-4181-ac2e-20cebc529e49"},"effectiveDateTime":"2022-06-30T00:00:00+00:00","dosage":[{"doseAndRate":[{"doseQuantity":{"value":1,"unit":"TAB","system":"http://terminology.hl7.org/CodeSystem/v3-orderableDrugForm","code":"TAB"}}]}]},"request":{"method":"POST","url":"MedicationStatement"}},{"fullUrl":"MedicationStatement/6be7227b-b459-4b37-a540-d3e824bbb0a0","resource":{"resourceType":"MedicationStatement","id":"6be7227b-b459-4b37-a540-d3e824bbb0a0","status":"completed","medicationCodeableConcept":{"coding":[{"system":"http://www.nlm.nih.gov/research/umls/rxnorm","code":"10395"}]},"subject":{"reference":"Patient/e283d1d5-7474-4181-ac2e-20cebc529e49"},"effectiveDateTime":"2022-02-07T00:00:00+00:00","dosage":[{"doseAndRate":[{"doseQuantity":{"value":1,"unit":"TAB","system":"http://terminology.hl7.org/CodeSystem/v3-orderableDrugForm","code":"TAB"}}]}]},"request":{"method":"POST","url":"MedicationStatement"}},{"fullUrl":"MedicationStatement/5c490386-444d-44f6-85d7-50dfe9e4f9dc","resource":{"resourceType":"MedicationStatement","id":"5c490386-444d-44f6-85d7-50dfe9e4f9dc","status":"completed","medicationCodeableConcept":{"coding":[{"system":"http://www.nlm.nih.gov/research/umls/rxnorm","code":"8698"}]},"subject":{"reference":"Patient/e283d1d5-7474-4181-ac2e-20cebc529e49"},"effectiveDateTime":"2022-01-07T00:00:00+00:00","dosage":[{"doseAndRate":[{"doseQuantity":{"value":6.1,"unit":"TAB","system":"http://terminology.hl7.org/CodeSystem/v3-orderableDrugForm","code":"TAB"}}]}]},"request":{"method":"POST","url":"MedicationStatement"}},{"fullUrl":"MedicationStatement/dcd3d9f7-e14a-41b7-a30d-e295f2e1bb66","resource":{"resourceType":"MedicationStatement","id":"dcd3d9f7-e14a-41b7-a30d-e295f2e1bb66","status":"completed","medicationCodeableConcept":{"coding":[{"system":"http://www.nlm.nih.gov/research/umls/rxnorm","code":"3640"}]},"subject":{"reference":"Patient/e283d1d5-7474-4181-ac2e-20cebc529e49"},"effectiveDateTime":"2022-05-09T00:00:00+00:00","dosage":[{"doseAndRate":[{"doseQuantity":{"value":4,"unit":"TAB","system":"http://terminology.hl7.org/CodeSystem/v3-orderableDrugForm","code":"TAB"}}]}]},"request":{"method":"POST","url":"MedicationStatement"}},{"fullUrl":"MedicationStatement/533cfc82-6dae-4b4d-b094-ea99e8564d12","resource":{"resourceType":"MedicationStatement","id":"533cfc82-6dae-4b4d-b094-ea99e8564d12","status":"completed","medicationCodeableConcept":{"coding":[{"system":"http://www.nlm.nih.gov/research/umls/rxnorm","code":"18631"}]},"subject":{"reference":"Patient/e283d1d5-7474-4181-ac2e-20cebc529e49"},"effectiveDateTime":"2022-06-09T00:00:00+00:00","dosage":[{"doseAndRate":[{"doseQuantity":{"value":4.8,"unit":"TAB","system":"http://terminology.hl7.org/CodeSystem/v3-orderableDrugForm","code":"TAB"}}]}]},"request":{"method":"POST","url":"MedicationStatement"}},{"fullUrl":"MedicationStatement/db808474-f1f3-4005-bfd4-1fe5f17e4ceb","resource":{"resourceType":"MedicationStatement","id":"db808474-f1f3-4005-bfd4-1fe5f17e4ceb","status":"completed","medicationCodeableConcept":{"coding":[{"system":"http://www.nlm.nih.gov/research/umls/rxnorm","code":"18631"}]},"subject":{"reference":"Patient/e283d1d5-7474-4181-ac2e-20cebc529e49"},"effectiveDateTime":"2022-10-13T00:00:00+00:00","dosage":[{"doseAndRate":[{"doseQuantity":{"value":3.9,"unit":"TAB","system":"http://terminology.hl7.org/CodeSystem/v3-orderableDrugForm","code":"TAB"}}]}]},"request":{"method":"POST","url":"MedicationStatement"}},{"fullUrl":"MedicationStatement/5a0410d9-23a2-4f54-947c-4b77d5511f3e","resource":{"resourceType":"MedicationStatement","id":"5a0410d9-23a2-4f54-947c-4b77d5511f3e","status":"completed","medicationCodeableConcept":{"coding":[{"system":"http://www.nlm.nih.gov/research/umls/rxnorm","code":"2193"}]},"subject":{"reference":"Patient/e283d1d5-7474-4181-ac2e-20cebc529e49"},"effectiveDateTime":"2022-01-16T00:00:00+00:00","dosage":[{"doseAndRate":[{"doseQuantity":{"value":3.9,"unit":"TAB","system":"http://terminology.hl7.org/CodeSystem/v3-orderableDrugForm","code":"TAB"}}]}]},"request":{"method":"POST","url":"MedicationStatement"}},{"fullUrl":"MedicationStatement/e7743f1e-f2b0-42aa-b1ca-4cc9ab88a551","resource":{"resourceType":"MedicationStatement","id":"e7743f1e-f2b0-42aa-b1ca-4cc9ab88a551","status":"completed","medicationCodeableConcept":{"coding":[{"system":"http://www.nlm.nih.gov/research/umls/rxnorm","code":"7984"}]},"subject":{"reference":"Patient/e283d1d5-7474-4181-ac2e-20cebc529e49"},"effectiveDateTime":"2022-08-07T00:00:00+00:00","dosage":[{"doseAndRate":[{"doseQuantity":{"value":3.5,"unit":"TAB","system":"http://terminology.hl7.org/CodeSystem/v3-orderableDrugForm","code":"TAB"}}]}]},"request":{"method":"POST","url":"MedicationStatement"}},{"fullUrl":"MedicationStatement/a5c631e3-7190-4df5-929e-7990eb3bd616","resource":{"resourceType":"MedicationStatement","id":"a5c631e3-7190-4df5-929e-7990eb3bd616","status":"completed","medicationCodeableConcept":{"coding":[{"system":"http://www.nlm.nih.gov/research/umls/rxnorm","code":"10395"}]},"subject":{"reference":"Patient/e283d1d5-7474-4181-ac2e-20cebc529e49"},"effectiveDateTime":"2022-04-22T00:00:00+00:00","dosage":[{"doseAndRate":[{"doseQuantity":{"value":4.6,"unit":"TAB","system":"http://terminology.hl7.org/CodeSystem/v3-orderableDrugForm","code":"TAB"}}]}]},"request":{"method":"POST","url":"MedicationStatement"}},{"fullUrl":"MedicationStatement/e989c278-0822-4ef6-b2b9-cc039a59c5a8","resource":{"resourceType":"MedicationStatement","id":"e989c278-0822-4ef6-b2b9-cc039a59c5a8","status":"completed","medicationCodeableConcept":{"coding":[{"system":"http://www.nlm.nih.gov/research/umls/rxnorm","code":"18631"}]},"subject":{"reference":"Patient/e283d1d5-7474-4181-ac2e-20cebc529e49"},"effectiveDateTime":"2022-12-11T00:00:00+00:00","dosage":[{"doseAndRate":[{"doseQuantity":{"value":3.2,"unit":"TAB","system":"http://terminology.hl7.org/CodeSystem/v3-orderableDrugForm","code":"TAB"}}]}]},"request":{"method":"POST","url":"MedicationStatement"}},{"fullUrl":"Encounter/90115524-09cf-4134-a58a-5f2e40350a8e","resource":{"resourceType":"Encounter","id":"90115524-09cf-4134-a58a-5f2e40350a8e","status":"finished","class":{"system":"http://terminology.hl7.org/CodeSystem/v3-ActCode","code":"IMP","display":"inpatient encounter"},"type":[{"coding":[{"system":"http://terminology.hl7.org/CodeSystem/encounter-type","code":"OKI"}]}],"subject":{"reference":"Patient/e283d1d5-7474-4181-ac2e-20cebc529e49"},"period":{"start":"2022-05-18T00:00:00+00:00","end":"2022-05-19T00:00:00+00:00"}},"request":{"method":"POST","url":"Encounter"}},{"fullUrl":"Encounter/3f1a2bd7-af8f-4631-bef6-f1be8184b247","resource":{"resourceType":"Encounter","id":"3f1a2bd7-af8f-4631-bef6-f1be8184b247","status":"finished","class":{"system":"http://terminology.hl7.org/CodeSystem/v3-ActCode","code":"IMP","display":"inpatient encounter"},"type":[{"coding":[{"system":"http://terminology.hl7.org/CodeSystem/encounter-type","code":"CCS60"}]}],"subject":{"reference":"Patient/e283d1d5-7474-4181-ac2e-20cebc529e49"},"period":{"start":"2022-10-15T00:00:00+00:00","end":"2022-10-20T00:00:00+00:00"}},"request":{"method":"POST","url":"Encounter"}},{"fullUrl":"Encounter/c5f18abd-ddd6-423a-aab7-5641342257b8","resource":{"resourceType":"Encounter","id":"c5f18abd-ddd6-423a-aab7-5641342257b8","status":"finished","class":{"system":"http://terminology.hl7.org/CodeSystem/v3-ActCode","code":"FLD","display":"field"},"type":[{"coding":[{"system":"http://terminology.hl7.org/CodeSystem/encounter-type","code":"OKI"}]}],"subject":{"reference":"Patient/e283d1d5-7474-4181-ac2e-20cebc529e49"},"period":{"start":"2022-03-03T00:00:00+00:00","end":"2022-03-11T00:00:00+00:00"}},"request":{"method":"POST","url":"Encounter"}},{"fullUrl":"Encounter/e7d71068-4f70-4937-8b52-fed930351f3b","resource":{"resourceType":"Encounter","id":"e7d71068-4f70-4937-8b52-fed930351f3b","status":"finished","class":{"system":"http://terminology.hl7.org/CodeSystem/v3-ActCode","code":"IMP","display":"inpatient encounter"},"type":[{"coding":[{"system":"http://terminology.hl7.org/CodeSystem/encounter-type","code":"OKI"}]}],"subject":{"reference":"Patient/e283d1d5-7474-4181-ac2e-20cebc529e49"},"period":{"start":"2022-05-06T00:00:00+00:00","end":"2022-05-11T00:00:00+00:00"}},"request":{"method":"POST","url":"Encounter"}},{"fullUrl":"Patient/e8f479e6-ae71-4193-a350-9a5787668d77","resource":{"resourceType":"Patient","id":"e8f479e6-ae71-4193-a350-9a5787668d77","identifier":[{"type":{"coding":[{"system":"http://terminology.hl7.org/CodeSystem/v2-0203","code":"MR"}]},"system":"urn:fhirgen:mrn","value":"376-26-2345"}],"name":[{"family":"Burns","given":["David"]}],"telecom":[{"system":"phone","value":"183-535-2540x677","use":"home"}],"gender":"other","birthDate":"1983-12-10","address":[{"line":["3441 Rice Ford"],"city":"South David","state":"Wyoming","postalCode":"26421"}]},"request":{"method":"POST","url":"Patient"}},{"fullUrl":"Observation/e533fcfd-3101-4466-a36f-73f0e6355e27","resource":{"resourceType":"Observation","id":"e533fcfd-3101-4466-a36f-73f0e6355e27","status":"final","code":{"coding":[{"system":"http://loinc.org","code":"34382-2"}]},"subject":{"reference":"Patient/e8f479e6-ae71-4193-a350-9a5787668d77"},"effectiveDateTime":"2022-09-01T00:00:00+00:00","valueRatio":{"numerator":{"value":1},"denominator":{"value":32}}},"request":{"method":"POST","url":"Observation"}},{"fullUrl":"Observation/31e5e76f-57a6-4058-af90-5073afa66403","resource":{"resourceType":"Observation","id":"31e5e76f-57a6-4058-af90-5073afa66403","status":"final","code":{"coding":[{"system":"http://loinc.org","code":"34382-2"}]},"subject":{"reference":"Patient/e8f479e6-ae71-4193-a350-9a5787668d77"},"effectiveDateTime":"2022-07-26T00:00:00+00:00","valueRatio":{"numerator":{"value":1},"denominator":{"value":4}}},"request":{"method":"POST","url":"Observation"}},{"fullUrl":"Condition/1ae7911f-52f1-4993-bba4-e869c1a598d9","resource":{"resourceType":"Condition","id":"1ae7911f-52f1-4993-bba4-e869c1a598d9","code":{"coding":[{"system":"http://snomed.info/sct","code":"271939006"}]},"subject":{"reference":"Patient/e8f479e6-ae71-4193-a350-9a5787668d77"},"onsetDateTime":"2022-03-03T00:00:00+00:00"},"request":{"method":"POST","url":"Condition"}},{"fullUrl":"Condition/b99a09d9-a399-4cad-a910-3145f0585d21","resource":{"resourceType":"Condition","id":"b99a09d9-a399-4cad-a910-3145f0585d21","code":{"coding":[{"system":"http://snomed.info/sct","code":"21522001"}]},"subject":{"reference":"Patient/e8f479e6-ae71-4193-a350-9a5787668d77"},"onsetDateTime":"2022-09-12T00:00:00+00:00"},"request":{"method":"POST","url":"Condition"}},{"fullUrl":"Condition/ae29d9cd-70a4-4c56-a827-7b1a071e7b0a","resource":{"resourceType":"Condition","id":"ae29d9cd-70a4-4c56-a827-7b1a071e7b0a","code":{"coding":[{"system":"http://snomed.info/sct","code":"31070006"}]},"subject":{"reference":"Patient/e8f479e6-ae71-4193-a350-9a5787668d77"},"onsetDateTime":"2022-05-11T00:00:00+00:00"},"request":{"method":"POST","url":"Condition"}},{"fullUrl":"Condition/145f9248-873f-49c6-9949-93ea1df9b03d","resource":{"resourceType":"Condition","id":"145f9248-873f-49c6-9949-93ea1df9b03d","code":{"coding":[{"system":"http://snomed.info/sct","code":"386661006"}]},"subject":{"reference":"Patient/e8f479e6-ae71-4193-a350-9a5787668d77"},"onsetDateTime":"2022-01-28T00:00:00+00:00"},"request":{"method":"POST","url":"Condition"}},{"fullUrl":"Condition/4e842afc-0a37-4f8f-a799-8a69e6a10f89","resource":{"resourceType":"Condition","id":"4e842afc-0a37-4f8f-a799-8a69e6a10f89","code":{"coding":[{"system":"http://snomed.info/sct","code":"31070006"}]},"subject":{"reference":"Patient/e8f479e6-ae71-4193-a350-9a5787668d77"},"onsetDateTime":"2022-04-04T00:00:00+00:00"},"request":{"method":"POST","url":"Condition"}},{"fullUrl":"Condition/73579667-01c2-450b-9065-7a5c3d29fece","resource":{"resourceType":"Condition","id":"73579667-01c2-450b-9065-7a5c3d29fece","code":{"coding":[{"system":"http://snomed.info/sct","code":"709977002"}]},"subject":{"reference":"Patient/e8f479e6-ae71-4193-a350-9a5787668d77"},"onsetDateTime":"2022-09-16T00:00:00+00:00"},"request":{"method":"POST","url":"Condition"}},{"fullUrl":"Observation/8da5cb6d-977f-4e8a-b03d-655791ee87fd","resource":{"resourceType":"Observation","id":"8da5cb6d-977f-4e8a-b03d-655791ee87fd","status":"final","code":{"coding":[{"system":"http://loinc.org","code":"6690-2"}]},"subject":{"reference":"Patient/e8f479e6-ae71-4193-a350-9a5787668d77"},"effectiveDateTime":"2022-09-13T00:00:00+00:00","valueQuantity":{"value":9.2}},"request":{"method":"POST","url":"Observation"}},{"fullUrl":"Observation/1c891528-8d03-40c6-a687-37a0647be051","resource":{"resourceType":"Observation","id":"1c891528-8d03-40c6-a687-37a0647be051","status":"final","code":{"coding":[{"system":"http://www.ama-assn.org/go/cpt","code":"85048"}]},"subject":{"reference":"Patient/e8f479e6-ae71-4193-a350-9a5787668d77"},"effectiveDateTime":"2022-01-15T00:00:00+00:00","valueQuantity":{"value":10}},"request":{"method":"POST","url":"Observation"}},{"fullUrl":"Observation/c0e8cd97-b71f-4a0c-bc61-9afc92239b86","resource":{"resourceType":"Observation","id":"c0e8cd97-b71f-4a0c-bc61-9afc92239b86","status":"final","code":{"coding":[{"system":"http://loinc.org","code":"6690-2"}]},"subject":{"reference":"Patient/e8f479e6-ae71-4193-a350-9a5787668d77"},"effectiveDateTime":"2022-03-02T00:00:00+00:00","valueQuantity":{"value":10.8}},"request":{"method":"POST","url":"Observation"}},{"fullUrl":"Observation/cd99d235-972e-435b-97c8-5515ab4c8d93","resource":{"resourceType":"Observation","id":"cd99d235-972e-435b-97c8-5515ab4c8d93","status":"final","code":{"coding":[{"system":"http://loinc.org","code":"49498-9"}]},"subject":{"reference":"Patient/e8f479e6-ae71-4193-a350-9a5787668d77"},"effectiveDateTime":"2022-03-29T00:00:00+00:00"},"request":{"method":"POST","url":"Observation"}},{"fullUrl":"Observation/5bcec9c5-293c-4531-898f-56e6d7fca249","resource":{"resourceType":"Observation","id":"5bcec9c5-293c-4531-898f-56e6d7fca249","status":"final","code":{"coding":[{"system":"http://loinc.org","code":"49498-9"}]},"subject":{"reference":"Patient/e8f479e6-ae71-4193-a350-9a5787668d77"},"effectiveDateTime":"2022-01-27T00:00:00+00:00"},"request":{"method":"POST","url":"Observation"}},{"fullUrl":"Observation/8557930c-3354-4c63-ba82-bbd05dc09ade","resource":{"resourceType":"Observation","id":"8557930c-3354-4c63-ba82-bbd05dc09ade","status":"final","code":{"coding":[{"system":"http://loinc.org","code":"49498-9"}]},"subject":{"reference":"Patient/e8f479e6-ae71-4193-a350-9a5787668d77"},"effectiveDateTime":"2022-06-24T00:00:00+00:00"},"request":{"method":"POST","url":"Observation"}},{"fullUrl":"Procedure/8c19c4a4-af7f-49c5-b2e2-b18c825582c0","resource":{"resourceType":"Procedure","id":"8c19c4a4-af7f-49c5-b2e2-b18c825582c0","status":"completed","code":{"coding":[{"system":"http://snomed.info/sct","code":"104001"}]},"subject":{"reference":"Patient/e8f479e6-ae71-4193-a350-9a5787668d77"},"performedDateTime":"2022-01-02T00:00:00+00:00"},"request":{"method":"POST","url":"Procedure"}},{"fullUrl":"Procedure/27a7dcb9-5459-4da5-9ab0-fedeb60ece18","resource":{"resourceType":"Procedure","id":"27a7dcb9-5459-4da5-9ab0-fedeb60ece18","status":"completed","code":{"coding":[{"system":"http://snomed.info/sct","code":"104001"}]},"subject":{"reference":"Patient/e8f479e6-ae71-4193-a350-9a5787668d77"},"performedDateTime":"2022-07-16T00:00:00+00:00"},"request":{"method":"POST","url":"Procedure"}},{"fullUrl":"Procedure/56f38dae-e48c-4b9b-a639-726f1ebe7c46","resource":{"resourceType":"Procedure","id":"56f38dae-e48c-4b9b-a639-726f1ebe7c46","status":"completed","code":{"coding":[{"system":"http://snomed.info/sct","code":"189009"}]},"subject":{"reference":"Patient/e8f479e6-ae71-4193-a350-9a5787668d77"},"performedDateTime":"2022-10-11T00:00:00+00:00"},"request":{"method":"POST","url":"Procedure"}},{"fullUrl":"MedicationStatement/43a7801e-20f3-4e5f-a8f9-0f58529f36a2","resource":{"resourceType":"MedicationStatement","id":"43a7801e-20f3-4e5f-a8f9-0f58529f36a2","status":"completed","medicationCodeableConcept":{"coding":[{"system":"http://www.nlm.nih.gov/research/umls/rxnorm","code":"7984"}]},"subject":{"reference":"Patient/e8f479e6-ae71-4193-a350-9a5787668d77"},"effectiveDateTime":"2022-10-10T00:00:00+00:00","dosage":[{"doseAndRate":[{"doseQuantity":{"value":2,"unit":"TAB","system":"http://terminology.hl7.org/CodeSystem/v3-orderableDrugForm","code":"TAB"}}]}]},"request":{"method":"POST","url":"MedicationStatement"}},{"fullUrl":"MedicationStatement/28791007-10b0-4807-b5d9-4f64f5f6b4d8","resource":{"resourceType":"MedicationStatement","id":"28791007-10b0-4807-b5d9-4f64f5f6b4d8","status":"completed","medicationCodeableConcept":{"coding":[{"system":"http://www.nlm.nih.gov/research/umls/rxnorm","code":"2193"}]},"subject":{"reference":"Patient/e8f479e6-ae71-4193-a350-9a5787668d77"},"effectiveDateTime":"2022-07-30T00:00:00+00:00","dosage":[{"doseAndRate":[{"doseQuantity":{"value":1,"unit":"TAB","system":"http://terminology.hl7.org/CodeSystem/v3-orderableDrugForm","code":"TAB"}}]}]},"request":{"method":"POST","url":"MedicationStatement"}},{"fullUrl":"MedicationStatement/b6c1fe65-7ebf-4592-8e8e-cbc80a68ef62","resource":{"resourceType":"MedicationStatement","id":"b6c1fe65-7ebf-4592-8e8e-cbc80a68ef62","status":"completed","medicationCodeableConcept":{"coding":[{"system":"http://www.nlm.nih.gov/research/umls/rxnorm","code":"7980"}]},"subject":{"reference":"Patient/e8f479e6-ae71-4193-a350-9a5787668d77"},"effectiveDateTime":"2022-05-19T00:00:00+00:00","dosage":[{"doseAndRate":[{"doseQuantity":{"value":1,"unit":"TAB","system":"http://terminology.hl7.org/CodeSystem/v3-orderableDrugForm","code":"TAB"}}]}]},"request":{"method":"POST","url":"MedicationStatement"}},{"fullUrl":"MedicationStatement/fe481143-435d-45ac-9332-ae386212b0d4","resource":{"resourceType":"MedicationStatement","id":"fe481143-435d-45ac-9332-ae386212b0d4","status":"completed","medicationCodeableConcept":{"coding":[{"system":"http://www.nlm.nih.gov/research/umls/rxnorm","code":"7984"}]},"subject":{"reference":"Patient/e8f479e6-ae71-4193-a350-9a5787668d77"},"effectiveDateTime":"2022-06-19T00:00:00+00:00","dosage":[{"doseAndRate":[{"doseQuantity":{"value":1,"unit":"TAB","system":"http://terminology.hl7.org/CodeSystem/v3-orderableDrugForm","code":"TAB"}}]}]},"request":{"method":"POST","url":"MedicationStatement"}},{"fullUrl":"MedicationStatement/c135a332-c5bc-447c-93db-b291f4263e7c","resource":{"resourceType":"MedicationStatement","id":"c135a332-c5bc-447c-93db-b291f4263e7c","status":"completed","medicationCodeableConcept":{"coding":[{"system":"http://www.nlm.nih.gov/research/umls/rxnorm","code":"10395"}]},"subject":{"reference":"Patient/e8f479e6-ae71-4193-a350-9a5787668d77"},"effectiveDateTime":"2022-01-31T00:00:00+00:00","dosage":[{"doseAndRate":[{"doseQuantity":{"value":2,"unit":"TAB","system":"http://terminology.hl7.org/CodeSystem/v3-orderableDrugForm","code":"TAB"}}]}]},"request":{"method":"POST","url":"MedicationStatement"}},{"fullUrl":"MedicationStatement/59a442e2-94b5-4439-8e18-6c746101be58","resource":{"resourceType":"MedicationStatement","id":"59a442e2-94b5-4439-8e18-6c746101be58","status":"completed","medicationCodeableConcept":{"coding":[{"system":"http://www.nlm.nih.gov/research/umls/rxnorm","code":"8698"}]},"subject":{"reference":"Patient/e8f479e6-ae71-4193-a350-9a5787668d77"},"effectiveDateTime":"2022-05-19T00:00:00+00:00","dosage":[{"doseAndRate":[{"doseQuantity":{"value":2,"unit":"TAB","system":"http://terminology.hl7.org/CodeSystem/v3-orderableDrugForm","code":"TAB"}}]}]},"request":{"method":"POST","url":"MedicationStatement"}},{"fullUrl":"MedicationStatement/6696c5fb-9af4-4f6c-8766-83c6df4972c4","resource":{"resourceType":"MedicationStatement","id":"6696c5fb-9af4-4f6c-8766-83c6df4972c4","status":"completed","medicationCodeableConcept":{"coding":[{"system":"http://www.nlm.nih.gov/research/umls/rxnorm","code":"2193"}]},"subject":{"reference":"Patient/e8f479e6-ae71-4193-a350-9a5787668d77"},"effectiveDateTime":"2022-01-28T00:00:00+00:00","dosage":[{"doseAndRate":[{"doseQuantity":{"value":2,"unit":"TAB","system":"http://terminology.hl7.org/CodeSystem/v3-orderableDrugForm","code":"TAB"}}]}]},"request":{"method":"POST","url":"MedicationStatement"}},{"fullUrl":"MedicationStatement/82da697e-1a0e-4929-accd-32e8687f9a4e","resource":{"resourceType":"MedicationStatement","id":"82da697e-1a0e-4929-accd-32e8687f9a4e","status":"completed","medicationCodeableConcept":{"coding":[{"system":"http://www.nlm.nih.gov/research/umls/rxnorm","code":"3640"}]},"subject":{"reference":"Patient/e8f479e6-ae71-4193-a350-9a5787668d77"},"effectiveDateTime":"2022-08-10T00:00:00+00:00","dosage":[{"doseAndRate":[{"doseQuantity":{"value":4.4,"unit":"TAB","system":"http://terminology.hl7.org/CodeSystem/v3-orderableDrugForm","code":"TAB"}}]}]},"request":{"method":"POST","url":"MedicationStatement"}},{"fullUrl":"MedicationStatement/2b63bf03-cd47-4e6c-9726-e4df828a18b8","resource":{"resourceType":"MedicationStatement","id":"2b63bf03-cd47-4e6c-9726-e4df828a18b8","status":"completed","medicationCodeableConcept":{"coding":[{"system":"http://www.nlm.nih.gov/research/umls/rxnorm","code":"10395"}]},"subject":{"reference":"Patient/e8f479e6-ae71-4193-a350-9a5787668d77"},"effectiveDateTime":"2022-08-18T00:00:00+00:00","dosage":[{"doseAndRate":[{"doseQuantity":{"value":5.9,"unit":"TAB","system":"http://terminology.hl7.org/CodeSystem/v3-orderableDrugForm","code":"TAB"}}]}]},"request":{"method":"POST","url":"MedicationStatement"}},{"fullUrl":"MedicationStatement/81bd065f-d8f0-49fd-928e-de3ac3da1a21","resource":{"resourceType":"MedicationStatement","id":"81bd065f-d8f0-49fd-928e-de3ac3da1a21","status":"completed","medicationCodeableConcept":{"coding":[{"system":"http://www.nlm.nih.gov/research/umls/rxnorm","code":"3640"}]},"subject":{"reference":"Patient/e8f479e6-ae71-4193-a350-9a5787668d77"},"effectiveDateTime":"2022-12-30T00:00:00+00:00","dosage":[{"doseAndRate":[{"doseQuantity":{"value":6.6,"unit":"TAB","system":"http://terminology.hl7.org/CodeSystem/v3-orderableDrugForm","code":"TAB"}}]}]},"request":{"method":"POST","url":"MedicationStatement"}},{"fullUrl":"MedicationStatement/3ab38ea6-d131-4828-9fe0-4ceee2a5c201","resource":{"resourceType":"MedicationStatement","id":"3ab38ea6-d131-4828-9fe0-4ceee2a5c201","status":"completed","medicationCodeableConcept":{"coding":[{"system":"http://www.nlm.nih.gov/research/umls/rxnorm","code":"7984"}]},"subject":{"reference":"Patient/e8f479e6-ae71-4193-a350-9a5787668d77"},"effectiveDateTime":"2022-03-13T00:00:00+00:00","dosage":[{"doseAndRate":[{"doseQuantity":{"value":6.4,"unit":"TAB","system":"http://terminology.hl7.org/CodeSystem/v3-orderableDrugForm","code":"TAB"}}]}]},"request":{"method":"POST","url":"MedicationStatement"}},{"fullUrl":"MedicationStatement/15a4f3dd-4f58-44ac-9d95-653bd26d4724","resource":{"resourceType":"MedicationStatement","id":"15a4f3dd-4f58-44ac-9d95-653bd26d4724","status":"completed","medicationCodeableConcept":{"coding":[{"system":"http://www.nlm.nih.gov/research/umls/rxnorm","code":"8698"}]},"subject":{"reference":"Patient/e8f479e6-ae71-4193-a350-9a5787668d77"},"effectiveDateTime":"2022-11-11T00:00:00+00:00","dosage":[{"doseAndRate":[{"doseQuantity":{"value":5.5,"unit":"TAB","system":"http://terminology.hl7.org/CodeSystem/v3-orderableDrugForm","code":"TAB"}}]}]},"request":{"method":"POST","url":"MedicationStatement"}},{"fullUrl":"MedicationStatement/370783d8-71bb-4070-a018-81d141664a2a","resource":{"resourceType":"MedicationStatement","id":"370783d8-71bb-4070-a018-81d141664a2a","status":"completed","medicationCodeableConcept":{"coding":[{"system":"http://www.nlm.nih.gov/research/umls/rxnorm","code":"7980"}]},"subject":{"reference":"Patient/e8f479e6-ae71-4193-a350-9a5787668d77"},"effectiveDateTime":"2022-01-18T00:00:00+00:00","dosage":[{"doseAndRate":[{"doseQuantity":{"value":3.3,"unit":"TAB","system":"http://terminology.hl7.org/CodeSystem/v3-orderableDrugForm","code":"TAB"}}]}]},"request":{"method":"POST","url":"MedicationStatement"}},{"fullUrl":"MedicationStatement/12e95d1b-03af-48f1-9753-ba85600c5003","resource":{"resourceType":"MedicationStatement","id":"12e95d1b-03af-48f1-9753-ba85600c5003","status":"completed","medicationCodeableConcept":{"coding":[{"system":"http://www.nlm.nih.gov/research/umls/rxnorm","code":"8698"}]},"subject":{"reference":"Patient/e8f479e6-ae71-4193-a350-9a5787668d77"},"effectiveDateTime":"2022-01-21T00:00:00+00:00","dosage":[{"doseAndRate":[{"doseQuantity":{"value":5.4,"unit":"TAB","system":"http://terminology.hl7.org/CodeSystem/v3-orderableDrugForm","code":"TAB"}}]}]},"request":{"method":"POST","url":"MedicationStatement"}},{"fullUrl":"Encounter/9a24de23-fbbf-4039-9ae0-6227f472baf4","resource":{"resourceType":"Encounter","id":"9a24de23-fbbf-4039-9ae0-6227f472baf4","status":"finished","class":{"system":"http://terminology.hl7.org/CodeSystem/v3-ActCode","code":"IMP","display":"inpatient encounter"},"type":[{"coding":[{"system":"http://terminology.hl7.org/CodeSystem/encounter-type","code":"CCS60"}]}],"subject":{"reference":"Patient/e8f479e6-ae71-4193-a350-9a5787668d77"},"period":{"start":"2022-05-05T00:00:00+00:00","end":"2022-05-11T00:00:00+00:00"}},"request":{"method":"POST","url":"Encounter"}},{"fullUrl":"Encounter/59059da2-619a-423f-b34b-1d0b440ddf88","resource":{"resourceType":"Encounter","id":"59059da2-619a-423f-b34b-1d0b440ddf88","status":"finished","class":{"system":"http://terminology.hl7.org/CodeSystem/v3-ActCode","code":"IMP","display":"inpatient encounter"},"type":[{"coding":[{"system":"http://terminology.hl7.org/CodeSystem/encounter-type","code":"OKI"}]}],"subject":{"reference":"Patient/e8f479e6-ae71-4193-a350-9a5787668d77"},"period":{"start":"2022-04-18T00:00:00+00:00","end":"2022-04-25T00:00:00+00:00"}},"request":{"method":"POST","url":"Encounter"}},{"fullUrl":"Encounter/6eddeed0-36a6-464c-9ce4-d2e8018f195f","resource":{"resourceType":"Encounter","id":"6eddeed0-36a6-464c-9ce4-d2e8018f195f","status":"finished","class":{"system":"http://terminology.hl7.org/CodeSystem/v3-ActCode","code":"IMP","display":"inpatient encounter"},"type":[{"coding":[{"system":"http://terminology.hl7.org/CodeSystem/encounter-type","code":"OKI"}]}],"subject":{"reference":"Patient/e8f479e6-ae71-4193-a350-9a5787668d77"},"period":{"start":"2022-05-27T00:00:00+00:00","end":"2022-06-02T00:00:00+00:00"}},"request":{"method":"POST","url":"Encounter"}},{"fullUrl":"Encounter/b624e9d8-2ae7-4af2-8a5d-10a8eec5e08b","resource":{"resourceType":"Encounter","id":"b624e9d8-2ae7-4af2-8a5d-10a8eec5e08b","status":"finished","class":{"system":"http://terminology.hl7.org/CodeSystem/v3-ActCode","code":"NONAC","display":"inpatient non-acute"},"type":[{"coding":[{"system":"http://terminology.hl7.org/CodeSystem/encounter-type","code":"OKI"}]}],"subject":{"reference":"Patient/e8f479e6-ae71-4193-a350-9a5787668d77"},"period":{"start":"2022-07-06T00:00:00+00:00","end":"2022-07-08T00:00:00+00:00"}},"request":{"method":"POST","url":"Encounter"}},{"fullUrl":"Encounter/55b5d1e5-5aaf-43fb-a700-d2ab32acaa72","resource":{"resourceType":"Encounter","id":"55b5d1e5-5aaf-43fb-a700-d2ab32acaa72","status":"finished","class":{"system":"http://terminology.hl7.org/CodeSystem/v3-ActCode","code":"ACUTE","display":"inpatient acute"},"type":[{"coding":[{"system":"http://terminology.hl7.org/CodeSystem/encounter-type","code":"CCS60"}]}],"subject":{"reference":"Patient/e8f479e6-ae71-4193-a350-9a5787668d77"},"period":{"start":"2022-10-16T00:00:00+00:00","end":"2022-10-21T00:00:00+00:00"}},"request":{"method":"POST","url":"Encounter"}}]}