{"resourceType":"Bundle","id":"19dc0fa8-ba6b-42e8-a1f6-9cc12ffdeb43","type":"collection","entry":[{"fullUrl":"Patient/3546c2cb-9403-4e09-acc7-eab285a2ffc9","resource":{"resourceType":"Patient","id":"3546c2cb-9403-4e09-acc7-eab285a2ffc9","meta":{"profile":["http://hl7.org/fhir/us/core/StructureDefinition/us-core-patient"]},"extension":[{"extension":[{"url":"ombCategory","valueCoding":{"system":"urn:oid:2.16.840.1.113883.6.238","code":"2054-5","display":"Black or African American"}},{"url":"text","valueString":"Black or African American"}],"url":"http://hl7.org/fhir/us/core/StructureDefinition/us-core-race"},{"extension":[{"url":"ombCategory","valueCoding":{"system":"urn:oid:2.16.840.1.113883.6.238","code":"2186-5","display":"Not Hispanic or Latino"}},{"url":"text","valueString":"Not Hispanic or Latino"}],"url":"http://hl7.org/fhir/us/core/StructureDefinition/us-core-ethnicity"}],"identifier":[{"type":{"coding":[{"system":"http://terminology.hl7.org/CodeSystem/v2-0203","code":"MR"}]},"system":"urn:fhirgen:mrn","value":"822-89-8805"},{"system":"http://hl7.org/fhir/sid/us-ssn","value":"782-57-7123"}],"name":[{"use":"official","family":"Ruiz","given":["Edward"]},{"use":"maiden","family":"Moody"}],"telecom":[{"system":"phone","value":"531.341.3655x568","use":"work"},{"system":"email","value":"huntnancy@yahoo.com","use":"mobile"}],"gender":"male","birthDate":"1973-06-15","address":[{"use":"home","line":["7578 Fox Dale"],"city":"Garyton","state":"OR","postalCode":"59199"},{"use":"old","line":["9066 Robert Harbor"],"city":"New Dominique","state":"ND","postalCode":"30056"}],"maritalStatus":{"coding":[{"system":"http://terminology.hl7.org/CodeSystem/v3-MaritalStatus","code":"L","display":"Legally Separated"}]}}},{"fullUrl":"Observation/3b60ac14-618a-413e-8c0a-b50206a7557c","resource":{"resourceType":"Observation","id":"3b60ac14-618a-413e-8c0a-b50206a7557c","meta":{"profile":["http://hl7.org/fhir/us/core/StructureDefinition/us-core-observation-lab"]},"status":"final","category":[{"coding":[{"system":"http://terminology.hl7.org/CodeSystem/observation-category","code":"laboratory","display":"Laboratory"}]}],"code":{"coding":[{"system":"http://loinc.org","code":"50695-6"}]},"subject":{"reference":"Patient/3546c2cb-9403-4e09-acc7-eab285a2ffc9"},"effectiveDateTime":"2022-12-17T00:00:00+00:00","valueRatio":{"numerator":{"value":1},"denominator":{"value":64}}}},{"fullUrl":"Observation/a3a9cf01-68ff-4ea3-9db9-f81bb5ff36d4","resource":{"resourceType":"Observation","id":"a3a9cf01-68ff-4ea3-9db9-f81bb5ff36d4","meta":{"profile":["http://hl7.org/fhir/us/core/StructureDefinition/us-core-observation-lab"]},"status":"final","category":[{"coding":[{"system":"http://terminology.hl7.org/CodeSystem/observation-category","code":"laboratory","display":"Laboratory"}]}],"code":{"coding":[{"system":"http://loinc.org","code":"46203-6"}]},"subject":{"reference":"Patient/3546c2cb-9403-4e09-acc7-eab285a2ffc9"},"effectiveDateTime":"2022-10-24T00:00:00+00:00","valueRatio":{"numerator":{"value":1},"denominator":{"value":64}}}},{"fullUrl":"Observation/b0c4c64f-f046-4cf4-b1c2-13b9b6fffe0c","resource":{"resourceType":"Observation","id":"b0c4c64f-f046-4cf4-b1c2-13b9b6fffe0c","meta":{"profile":["http://hl7.org/fhir/us/core/StructureDefinition/us-core-observation-lab"]},"status":"final","category":[{"coding":[{"system":"http://terminology.hl7.org/CodeSystem/observation-category","code":"laboratory","display":"Laboratory"}]}],"code":{"coding":[{"system":"http://loinc.org","code":"50690-7"}]},"subject":{"reference":"Patient/3546c2cb-9403-4e09-acc7-eab285a2ffc9"},"effectiveDateTime":"2022-04-14T00:00:00+00:00","valueRatio":{"numerator":{"value":1},"denominator":{"value":4}}}},{"fullUrl":"Condition/290dd758-604c-4e8d-9d1a-a8d8f387ec84","resource":{"resourceType":"Condition","id":"290dd758-604c-4e8d-9d1a-a8d8f387ec84","meta":{"profile":["http://hl7.org/fhir/us/core/StructureDefinition/us-core-condition"]},"clinicalStatus":{"coding":[{"system":"http://terminology.hl7.org/CodeSystem/condition-clinical","code":"active","display":"Active"}]},"category":[{"coding":[{"system":"http://terminology.hl7.org/CodeSystem/condition-category","code":"problem-list-item"}]}],"code":{"coding":[{"system":"http://snomed.info/sct","code":"91554004"}]},"subject":{"reference":"Patient/3546c2cb-9403-4e09-acc7-eab285a2ffc9"},"onsetDateTime":"2022-04-01T00:00:00+00:00"}},{"fullUrl":"Condition/163fed68-7f08-44f7-9ab4-51fab39f4a5d","resource":{"resourceType":"Condition","id":"163fed68-7f08-44f7-9ab4-51fab39f4a5d","meta":{"profile":["http://hl7.org/fhir/us/core/StructureDefinition/us-core-condition"]},"clinicalStatus":{"coding":[{"system":"http://terminology.hl7.org/CodeSystem/condition-clinical","code":"active","display":"Active"}]},"category":[{"coding":[{"system":"http://terminology.hl7.org/CodeSystem/condition-category","code":"problem-list-item"}]}],"code":{"coding":[{"system":"http://snomed.info/sct","code":"44882003"}]},"subject":{"reference":"Patient/3546c2cb-9403-4e09-acc7-eab285a2ffc9"},"onsetDateTime":"2022-07-05T00:00:00+00:00"}},{"fullUrl":"Condition/8469f138-ec87-4530-94c5-b2e03ae1603c","resource":{"resourceType":"Condition","id":"8469f138-ec87-4530-94c5-b2e03ae1603c","meta":{"profile":["http://hl7.org/fhir/us/core/StructureDefinition/us-core-condition"]},"clinicalStatus":{"coding":[{"system":"http://terminology.hl7.org/CodeSystem/condition-clinical","code":"active","display":"Active"}]},"category":[{"coding":[{"system":"http://terminology.hl7.org/CodeSystem/condition-category","code":"problem-list-item"}]}],"code":{"coding":[{"system":"http://snomed.info/sct","code":"736686006"}]},"subject":{"reference":"Patient/3546c2cb-9403-4e09-acc7-eab285a2ffc9"},"onsetDateTime":"2022-12-23T00:00:00+00:00"}},{"fullUrl":"Condition/0f9b8f94-4cf3-46d0-b9b6-6a31f1837018","resource":{"resourceType":"Condition","id":"0f9b8f94-4cf3-46d0-b9b6-6a31f1837018","meta":{"profile":["http://hl7.org/fhir/us/core/StructureDefinition/us-core-condition"]},"clinicalStatus":{"coding":[{"system":"http://terminology.hl7.org/CodeSystem/condition-clinical","code":"active","display":"Active"}]},"category":[{"coding":[{"system":"http://terminology.hl7.org/CodeSystem/condition-category","code":"problem-list-item"}]}],"code":{"coding":[{"system":"http://snomed.info/sct","code":"44882003"}]},"subject":{"reference":"Patient/3546c2cb-9403-4e09-acc7-eab285a2ffc9"},"onsetDateTime":"2022-02-28T00:00:00+00:00"}},{"fullUrl":"Condition/7d22ca66-ed07-4a6c-a94d-604ab1ff2008","resource":{"resourceType":"Condition","id":"7d22ca66-ed07-4a6c-a94d-604ab1ff2008","meta":{"profile":["http://hl7.org/fhir/us/core/StructureDefinition/us-core-condition"]},"clinicalStatus":{"coding":[{"system":"http://terminology.hl7.org/CodeSystem/condition-clinical","code":"active","display":"Active"}]},"category":[{"coding":[{"system":"http://terminology.hl7.org/CodeSystem/condition-category","code":"problem-list-item"}]}],"code":{"coding":[{"system":"http://snomed.info/sct","code":"736686006"}]},"subject":{"reference":"Patient/3546c2cb-9403-4e09-acc7-eab285a2ffc9"},"onsetDateTime":"2022-11-15T00:00:00+00:00"}},{"fullUrl":"Condition/c3f6e90e-f12b-4542-9cc2-895996ea56f9","resource":{"resourceType":"Condition","id":"c3f6e90e-f12b-4542-9cc2-895996ea56f9","meta":{"profile":["http://hl7.org/fhir/us/core/StructureDefinition/us-core-condition"]},"clinicalStatus":{"coding":[{"system":"http://terminology.hl7.org/CodeSystem/condition-clinical","code":"active","display":"Active"}]},"category":[{"coding":[{"system":"http://terminology.hl7.org/CodeSystem/condition-category","code":"problem-list-item"}]}],"code":{"coding":[{"system":"http://snomed.info/sct","code":"91554004"}]},"subject":{"reference":"Patient/3546c2cb-9403-4e09-acc7-eab285a2ffc9"},"onsetDateTime":"2022-05-28T00:00:00+00:00"}},{"fullUrl":"Observation/a135dc85-2b32-496e-a1e6-ad618aa63dd6","resource":{"resourceType":"Observation","id":"a135dc85-2b32-496e-a1e6-ad618aa63dd6","meta":{"profile":["http://hl7.org/fhir/us/core/StructureDefinition/us-core-observation-lab"]},"status":"final","category":[{"coding":[{"system":"http://terminology.hl7.org/CodeSystem/observation-category","code":"laboratory","display":"Laboratory"}]}],"code":{"coding":[{"system":"http://loinc.org","code":"6690-2"}]},"subject":{"reference":"Patient/3546c2cb-9403-4e09-acc7-eab285a2ffc9"},"effectiveDateTime":"2022-08-09T00:00:00+00:00","valueQuantity":{"value":7.2}}},{"fullUrl":"Observation/2d3d3250-4f50-4926-85d4-bf238cfc2820","resource":{"resourceType":"Observation","id":"2d3d3250-4f50-4926-85d4-bf238cfc2820","meta":{"profile":["http://hl7.org/fhir/us/core/StructureDefinition/us-core-observation-lab"]},"status":"final","category":[{"coding":[{"system":"http://terminology.hl7.org/CodeSystem/observation-category","code":"laboratory","display":"Laboratory"}]}],"code":{"coding":[{"system":"http://loinc.org","code":"6690-2"}]},"subject":{"reference":"Patient/3546c2cb-9403-4e09-acc7-eab285a2ffc9"},"effectiveDateTime":"2022-02-18T00:00:00+00:00","valueQuantity":{"value":5.2}}},{"fullUrl":"Observation/938134b4-ab97-4906-b0ac-ede568dcab67","resource":{"resourceType":"Observation","id":"938134b4-ab97-4906-b0ac-ede568dcab67","meta":{"profile":["http://hl7.org/fhir/us/core/StructureDefinition/us-core-observation-lab"]},"status":"final","category":[{"coding":[{"system":"http://terminology.hl7.org/CodeSystem/observation-category","code":"laboratory","display":"Laboratory"}]}],"code":{"coding":[{"system":"http://loinc.org","code":"49498-9"}]},"subject":{"reference":"Patient/3546c2cb-9403-4e09-acc7-eab285a2ffc9"},"effectiveDateTime":"2022-11-06T00:00:00+00:00","valueQuantity":{"value":8.4}}},{"fullUrl":"Observation/54fcc81c-219e-47f4-9f58-1b2406669e91","resource":{"resourceType":"Observation","id":"54fcc81c-219e-47f4-9f58-1b2406669e91","meta":{"profile":["http://hl7.org/fhir/us/core/StructureDefinition/us-core-bmi"]},"status":"final","category":[{"coding":[{"system":"http://terminology.hl7.org/CodeSystem/observation-category","code":"vital-signs","display":"Vital Signs"}]}],"code":{"coding":[{"system":"http://loinc.org","code":"39156-5"}]},"subject":{"reference":"Patient/3546c2cb-9403-4e09-acc7-eab285a2ffc9"},"effectiveDateTime":"2022-01-16T00:00:00+00:00","valueQuantity":{"value":10.6,"unit":"kg/m2","system":"http://unitsofmeasure.org","code":"kg/m2"}}},{"fullUrl":"Observation/f1eb8e22-70e1-4a0b-93db-4642c1cadc7b","resource":{"resourceType":"Observation","id":"f1eb8e22-70e1-4a0b-93db-4642c1cadc7b","meta":{"profile":["http://hl7.org/fhir/us/core/StructureDefinition/us-core-bmi"]},"status":"final","category":[{"coding":[{"system":"http://terminology.hl7.org/CodeSystem/observation-category","code":"vital-signs","display":"Vital Signs"}]}],"code":{"coding":[{"system":"http://loinc.org","code":"39156-5"}]},"subject":{"reference":"Patient/3546c2cb-9403-4e09-acc7-eab285a2ffc9"},"effectiveDateTime":"2022-03-21T00:00:00+00:00","valueQuantity":{"value":25.39,"unit":"kg/m2","system":"http://unitsofmeasure.org","code":"kg/m2"}}},{"fullUrl":"Observation/147bdf70-2cfb-4ddb-aea7-f8241cf9c4df","resource":{"resourceType":"Observation","id":"147bdf70-2cfb-4ddb-aea7-f8241cf9c4df","meta":{"profile":["http://hl7.org/fhir/us/core/StructureDefinition/us-core-head-circumference"]},"status":"final","category":[{"coding":[{"system":"http://terminology.hl7.org/CodeSystem/observation-category","code":"vital-signs","display":"Vital Signs"}]}],"code":{"coding":[{"system":"http://loinc.org","code":"9843-4"}]},"subject":{"reference":"Patient/3546c2cb-9403-4e09-acc7-eab285a2ffc9"},"effectiveDateTime":"2022-01-13T00:00:00+00:00","valueQuantity":{"value":8.1,"unit":"Inch","system":"http://unitsofmeasure.org","code":"[in_i]"}}},{"fullUrl":"Observation/66df4cc7-76f2-47c4-b3ca-e9df2b5dad84","resource":{"resourceType":"Observation","id":"66df4cc7-76f2-47c4-b3ca-e9df2b5dad84","meta":{"profile":["http://hl7.org/fhir/us/core/StructureDefinition/us-core-head-circumference"]},"status":"final","category":[{"coding":[{"system":"http://terminology.hl7.org/CodeSystem/observation-category","code":"vital-signs","display":"Vital Signs"}]}],"code":{"coding":[{"system":"http://loinc.org","code":"9843-4"}]},"subject":{"reference":"Patient/3546c2cb-9403-4e09-acc7-eab285a2ffc9"},"effectiveDateTime":"2022-06-03T00:00:00+00:00","valueQuantity":{"value":5.9,"unit":"Inch","system":"http://unitsofmeasure.org","code":"[in_i]"}}},{"fullUrl":"Observation/7288e71f-1143-4156-9774-b19614a3c8ac","resource":{"resourceType":"Observation","id":"7288e71f-1143-4156-9774-b19614a3c8ac","meta":{"profile":["http://hl7.org/fhir/us/core/StructureDefinition/us-core-body-height"]},"status":"final","category":[{"coding":[{"system":"http://terminology.hl7.org/CodeSystem/observation-category","code":"vital-signs","display":"Vital Signs"}]}],"code":{"coding":[{"system":"http://loinc.org","code":"8302-2"}]},"subject":{"reference":"Patient/3546c2cb-9403-4e09-acc7-eab285a2ffc9"},"effectiveDateTime":"2022-12-23T00:00:00+00:00","valueQuantity":{"value":61.2,"unit":"Inch","system":"http://unitsofmeasure.org","code":"[in_i]"}}},{"fullUrl":"Observation/bffd3f72-ef2f-42a1-a6f2-2865bd6c0873","resource":{"resourceType":"Observation","id":"bffd3f72-ef2f-42a1-a6f2-2865bd6c0873","meta":{"profile":["http://hl7.org/fhir/us/core/StructureDefinition/us-core-body-weight"]},"status":"final","category":[{"coding":[{"system":"http://terminology.hl7.org/CodeSystem/observation-category","code":"vital-signs","display":"Vital Signs"}]}],"code":{"coding":[{"system":"http://loinc.org","code":"29463-7"}]},"subject":{"reference":"Patient/3546c2cb-9403-4e09-acc7-eab285a2ffc9"},"effectiveDateTime":"2022-10-24T00:00:00+00:00","valueQuantity":{"value":46.44,"unit":"kilogram","system":"http://unitsofmeasure.org","code":"kg"}}},{"fullUrl":"Observation/4edcf61e-9a9f-475f-b3e3-8244ffc38d95","resource":{"resourceType":"Observation","id":"4edcf61e-9a9f-475f-b3e3-8244ffc38d95","meta":{"profile":["http://hl7.org/fhir/us/core/StructureDefinition/us-core-body-weight"]},"status":"final","category":[{"coding":[{"system":"http://terminology.hl7.org/CodeSystem/observation-category","code":"vital-signs","display":"Vital Signs"}]}],"code":{"coding":[{"system":"http://loinc.org","code":"29463-7"}]},"subject":{"reference":"Patient/3546c2cb-9403-4e09-acc7-eab285a2ffc9"},"effectiveDateTime":"2022-06-10T00:00:00+00:00","valueQuantity":{"value":135.56,"unit":"kilogram","system":"http://unitsofmeasure.org","code":"kg"}}},{"fullUrl":"Observation/0b9219cc-e857-47d1-819b-a41f30f2df48","resource":{"resourceType":"Observation","id":"0b9219cc-e857-47d1-819b-a41f30f2df48","meta":{"profile":["http://hl7.org/fhir/us/core/StructureDefinition/us-core-body-temperature"]},"status":"final","category":[{"coding":[{"system":"http://terminology.hl7.org/CodeSystem/observation-category","code":"vital-signs","display":"Vital Signs"}]}],"code":{"coding":[{"system":"http://loinc.org","code":"8310-5"}]},"subject":{"reference":"Patient/3546c2cb-9403-4e09-acc7-eab285a2ffc9"},"effectiveDateTime":"2022-11-20T00:00:00+00:00","valueQuantity":{"value":29.38,"unit":"Degrees Fahrenheit","system":"http://unitsofmeasure.org","code":"[degF]"}}},{"fullUrl":"Observation/eb5f60a0-535d-42c3-aca8-22fd890c2ec1","resource":{"resourceType":"Observation","id":"eb5f60a0-535d-42c3-aca8-22fd890c2ec1","meta":{"profile":["http://hl7.org/fhir/us/core/StructureDefinition/us-core-body-temperature"]},"status":"final","category":[{"coding":[{"system":"http://terminology.hl7.org/CodeSystem/observation-category","code":"vital-signs","display":"Vital Signs"}]}],"code":{"coding":[{"system":"http://loinc.org","code":"8310-5"}]},"subject":{"reference":"Patient/3546c2cb-9403-4e09-acc7-eab285a2ffc9"},"effectiveDateTime":"2022-07-01T00:00:00+00:00","valueQuantity":{"value":61.54,"unit":"Degrees Fahrenheit","system":"http://unitsofmeasure.org","code":"[degF]"}}},{"fullUrl":"Observation/6f2b0750-7a51-4121-ac28-0e7631fb377e","resource":{"resourceType":"Observation","id":"6f2b0750-7a51-4121-ac28-0e7631fb377e","meta":{"profile":["http://hl7.org/fhir/us/core/StructureDefinition/us-core-heart-rate"]},"status":"final","category":[{"coding":[{"system":"http://terminology.hl7.org/CodeSystem/observation-category","code":"vital-signs","display":"Vital Signs"}]}],"code":{"coding":[{"system":"http://loinc.org","code":"8867-4"}]},"subject":{"reference":"Patient/3546c2cb-9403-4e09-acc7-eab285a2ffc9"},"effectiveDateTime":"2022-08-09T00:00:00+00:00","valueQuantity":{"value":100.4,"unit":"Per Minute","system":"http://unitsofmeasure.org","code":"/min"}}},{"fullUrl":"Observation/733092f9-644e-492a-b089-c11c8ad9db04","resource":{"resourceType":"Observation","id":"733092f9-644e-492a-b089-c11c8ad9db04","meta":{"profile":["http://hl7.org/fhir/us/core/StructureDefinition/us-core-heart-rate"]},"status":"final","category":[{"coding":[{"system":"http://terminology.hl7.org/CodeSystem/observation-category","code":"vital-signs","display":"Vital Signs"}]}],"code":{"coding":[{"system":"http://loinc.org","code":"8867-4"}]},"subject":{"reference":"Patient/3546c2cb-9403-4e09-acc7-eab285a2ffc9"},"effectiveDateTime":"2022-02-12T00:00:00+00:00","valueQuantity":{"value":98.6,"unit":"Per Minute","system":"http://unitsofmeasure.org","code":"/min"}}},{"fullUrl":"Patient/d80d384b-d169-40a0-843d-0b0a5354cab5","resource":{"resourceType":"Patient","id":"d80d384b-d169-40a0-843d-0b0a5354cab5","meta":{"profile":["http://hl7.org/fhir/us/core/StructureDefinition/us-core-patient"]},"extension":[{"extension":[{"url":"ombCategory","valueCoding":{"system":"urn:oid:2.16.840.1.113883.6.238","code":"1002-5","display":"American Indian or Alaska Native"}},{"url":"text","valueString":"American Indian or Alaska Native"}],"url":"http://hl7.org/fhir/us/core/StructureDefinition/us-core-race"},{"extension":[{"url":"ombCategory","valueCoding":{"system":"urn:oid:2.16.840.1.113883.6.238","code":"2186-5","display":"Not Hispanic or Latino"}},{"url":"text","valueString":"Not Hispanic or Latino"}],"url":"http://hl7.org/fhir/us/core/StructureDefinition/us-core-ethnicity"}],"identifier":[{"type":{"coding":[{"system":"http://terminology.hl7.org/CodeSystem/v2-0203","code":"MR"}]},"system":"urn:fhirgen:mrn","value":"432-54-8803"},{"system":"http://hl7.org/fhir/sid/us-ssn","value":"365-27-2323"}],"name":[{"use":"official","family":"Horton","given":["Marcus"]},{"use":"maiden","family":"Jones"}],"telecom":[{"system":"phone","value":"740.371.1381x05271","use":"work"},{"system":"email","value":"jennifer46@hotmail.com","use":"home"}],"gender":"male","birthDate":"1969-12-30","address":[{"use":"home","line":["85903 Chad Radial Suite 336"],"city":"Lake Melissaview","state":"WA","postalCode":"11335"},{"use":"old","line":["57523 Flores Shore"],"city":"North Erinborough","state":"NE","postalCode":"47416"}],"maritalStatus":{"coding":[{"system":"http://terminology.hl7.org/CodeSystem/v3-MaritalStatus","code":"W","display":"Widowed"}]}}},{"fullUrl":"Observation/9afc3b43-1c4d-4d6b-9f18-cdaedf75bea7","resource":{"resourceType":"Observation","id":"9afc3b43-1c4d-4d6b-9f18-cdaedf75bea7","meta":{"profile":["http://hl7.org/fhir/us/core/StructureDefinition/us-core-observation-lab"]},"status":"final","category":[{"coding":[{"system":"http://terminology.hl7.org/CodeSystem/observation-category","code":"laboratory","display":"Laboratory"}]}],"code":{"coding":[{"system":"http://loinc.org","code":"31147-2"}]},"subject":{"reference":"Patient/d80d384b-d169-40a0-843d-0b0a5354cab5"},"effectiveDateTime":"2022-10-11T00:00:00+00:00","valueRatio":{"numerator":{"value":1},"denominator":{"value":64}}}},{"fullUrl":"Observation/cc5c9a48-e7c9-4649-9d9a-322e05f6e414","resource":{"resourceType":"Observation","id":"cc5c9a48-e7c9-4649-9d9a-322e05f6e414","meta":{"profile":["http://hl7.org/fhir/us/core/StructureDefinition/us-core-observation-lab"]},"status":"final","category":[{"coding":[{"system":"http://terminology.hl7.org/CodeSystem/observation-category","code":"laboratory","display":"Laboratory"}]}],"code":{"coding":[{"system":"http://loinc.org","code":"5394-2"}]},"subject":{"reference":"Patient/d80d384b-d169-40a0-843d-0b0a5354cab5"},"effectiveDateTime":"2022-03-01T00:00:00+00:00","valueRatio":{"numerator":{"value":1},"denominator":{"value":64}}}},{"fullUrl":"Observation/afd3ed99-1563-4fce-a1df-caaf25996e4f","resource":{"resourceType":"Observation","id":"afd3ed99-1563-4fce-a1df-caaf25996e4f","meta":{"profile":["http://hl7.org/fhir/us/core/StructureDefinition/us-core-observation-lab"]},"status":"final","category":[{"coding":[{"system":"http://terminology.hl7.org/CodeSystem/observation-category","code":"laboratory","display":"Laboratory"}]}],"code":{"coding":[{"system":"http://loinc.org","code":"34382-2"}]},"subject":{"reference":"Patient/d80d384b-d169-40a0-843d-0b0a5354cab5"},"effectiveDateTime":"2022-01-11T00:00:00+00:00","valueRatio":{"numerator":{"value":1},"denominator":{"value":4}}}},{"fullUrl":"Condition/222df0f2-d097-474d-842d-279064f0cf62","resource":{"resourceType":"Condition","id":"222df0f2-d097-474d-842d-279064f0cf62","meta":{"profile":["http://hl7.org/fhir/us/core/StructureDefinition/us-core-condition"]},"clinicalStatus":{"coding":[{"system":"http://terminology.hl7.org/CodeSystem/condition-clinical","code":"active","display":"Active"}]},"category":[{"coding":[{"system":"http://terminology.hl7.org/CodeSystem/condition-category","code":"problem-list-item"}]}],"code":{"coding":[{"system":"http://snomed.info/sct","code":"44882003"}]},"subject":{"reference":"Patient/d80d384b-d169-40a0-843d-0b0a5354cab5"},"onsetDateTime":"2022-10-05T00:00:00+00:00"}},{"fullUrl":"Condition/a07034a2-a326-4380-b472-4a862c2d5acd","resource":{"resourceType":"Condition","id":"a07034a2-a326-4380-b472-4a862c2d5acd","meta":{"profile":["http://hl7.org/fhir/us/core/StructureDefinition/us-core-condition"]},"clinicalStatus":{"coding":[{"system":"http://terminology.hl7.org/CodeSystem/condition-clinical","code":"active","display":"Active"}]},"category":[{"coding":[{"system":"http://terminology.hl7.org/CodeSystem/condition-category","code":"problem-list-item"}]}],"code":{"coding":[{"system":"http://snomed.info/sct","code":"44882003"}]},"subject":{"reference":"Patient/d80d384b-d169-40a0-843d-0b0a5354cab5"},"onsetDateTime":"2022-03-25T00:00:00+00:00"}},{"fullUrl":"Condition/512cf0f8-9ed9-4f3f-84ec-8ee0353f3c1b","resource":{"resourceType":"Condition","id":"512cf0f8-9ed9-4f3f-84ec-8ee0353f3c1b","meta":{"profile":["http://hl7.org/fhir/us/core/StructureDefinition/us-core-condition"]},"clinicalStatus":{"coding":[{"system":"http://terminology.hl7.org/CodeSystem/condition-clinical","code":"active","display":"Active"}]},"category":[{"coding":[{"system":"http://terminology.hl7.org/CodeSystem/condition-category","code":"problem-list-item"}]}],"code":{"coding":[{"system":"http://snomed.info/sct","code":"91554004"}]},"subject":{"reference":"Patient/d80d384b-d169-40a0-843d-0b0a5354cab5"},"onsetDateTime":"2022-07-18T00:00:00+00:00"}},{"fullUrl":"Condition/20a0334f-4a83-4eac-ac1e-4494db87d9f8","resource":{"resourceType":"Condition","id":"20a0334f-4a83-4eac-ac1e-4494db87d9f8","meta":{"profile":["http://hl7.org/fhir/us/core/StructureDefinition/us-core-condition"]},"clinicalStatus":{"coding":[{"system":"http://terminology.hl7.org/CodeSystem/condition-clinical","code":"active","display":"Active"}]},"category":[{"coding":[{"system":"http://terminology.hl7.org/CodeSystem/condition-category","code":"problem-list-item"}]}],"code":{"coding":[{"system":"http://snomed.info/sct","code":"418290006"}]},"subject":{"reference":"Patient/d80d384b-d169-40a0-843d-0b0a5354cab5"},"onsetDateTime":"2022-08-08T00:00:00+00:00"}},{"fullUrl":"Condition/94e24cdc-62e5-4aa2-b98a-25315022a7d7","resource":{"resourceType":"Condition","id":"94e24cdc-62e5-4aa2-b98a-25315022a7d7","meta":{"profile":["http://hl7.org/fhir/us/core/StructureDefinition/us-core-condition"]},"clinicalStatus":{"coding":[{"system":"http://terminology.hl7.org/CodeSystem/condition-clinical","code":"active","display":"Active"}]},"category":[{"coding":[{"system":"http://terminology.hl7.org/CodeSystem/condition-category","code":"problem-list-item"}]}],"code":{"coding":[{"system":"http://snomed.info/sct","code":"709977002"}]},"subject":{"reference":"Patient/d80d384b-d169-40a0-843d-0b0a5354cab5"},"onsetDateTime":"2022-10-02T00:00:00+00:00"}},{"fullUrl":"Condition/04597167-e9ca-4e6b-9a76-ba917c0c053e","resource":{"resourceType":"Condition","id":"04597167-e9ca-4e6b-9a76-ba917c0c053e","meta":{"profile":["http://hl7.org/fhir/us/core/StructureDefinition/us-core-condition"]},"clinicalStatus":{"coding":[{"system":"http://terminology.hl7.org/CodeSystem/condition-clinical","code":"active","display":"Active"}]},"category":[{"coding":[{"system":"http://terminology.hl7.org/CodeSystem/condition-category","code":"problem-list-item"}]}],"code":{"coding":[{"system":"http://snomed.info/sct","code":"418290006"}]},"subject":{"reference":"Patient/d80d384b-d169-40a0-843d-0b0a5354cab5"},"onsetDateTime":"2022-10-08T00:00:00+00:00"}},{"fullUrl":"Observation/65b7d74c-0fe2-4d57-b909-536259f53ce8","resource":{"resourceType":"Observation","id":"65b7d74c-0fe2-4d57-b909-536259f53ce8","meta":{"profile":["http://hl7.org/fhir/us/core/StructureDefinition/us-core-observation-lab"]},"status":"final","category":[{"coding":[{"system":"http://terminology.hl7.org/CodeSystem/observation-category","code":"laboratory","display":"Laboratory"}]}],"code":{"coding":[{"system":"http://loinc.org","code":"804-5"}]},"subject":{"reference":"Patient/d80d384b-d169-40a0-843d-0b0a5354cab5"},"effectiveDateTime":"2022-08-20T00:00:00+00:00","valueQuantity":{"value":9.2}}},{"fullUrl":"Observation/28da8738-da3b-441e-b851-7ae6554cef98","resource":{"resourceType":"Observation","id":"28da8738-da3b-441e-b851-7ae6554cef98","meta":{"profile":["http://hl7.org/fhir/us/core/StructureDefinition/us-core-observation-lab"]},"status":"final","category":[{"coding":[{"system":"http://terminology.hl7.org/CodeSystem/observation-category","code":"laboratory","display":"Laboratory"}]}],"code":{"coding":[{"system":"http://loinc.org","code":"804-5"}]},"subject":{"reference":"Patient/d80d384b-d169-40a0-843d-0b0a5354cab5"},"effectiveDateTime":"2022-10-15T00:00:00+00:00","valueQuantity":{"value":8.2}}},{"fullUrl":"Observation/b5f69244-8536-4f7d-b8aa-0828d9215719","resource":{"resourceType":"Observation","id":"b5f69244-8536-4f7d-b8aa-0828d9215719","meta":{"profile":["http://hl7.org/fhir/us/core/StructureDefinition/us-core-observation-lab"]},"status":"final","category":[{"coding":[{"system":"http://terminology.hl7.org/CodeSystem/observation-category","code":"laboratory","display":"Laboratory"}]}],"code":{"coding":[{"system":"http://loinc.org","code":"26464-8"}]},"subject":{"reference":"Patient/d80d384b-d169-40a0-843d-0b0a5354cab5"},"effectiveDateTime":"2022-08-07T00:00:00+00:00","valueQuantity":{"value":10.5}}},{"fullUrl":"Observation/8a7834e8-3c5c-4ac2-a58d-ff0b77189480","resource":{"resourceType":"Observation","id":"8a7834e8-3c5c-4ac2-a58d-ff0b77189480","meta":{"profile":["http://hl7.org/fhir/us/core/StructureDefinition/us-core-bmi"]},"status":"final","category":[{"coding":[{"system":"http://terminology.hl7.org/CodeSystem/observation-category","code":"vital-signs","display":"Vital Signs"}]}],"code":{"coding":[{"system":"http://loinc.org","code":"39156-5"}]},"subject":{"reference":"Patient/d80d384b-d169-40a0-843d-0b0a5354cab5"},"effectiveDateTime":"2022-02-25T00:00:00+00:00","valueQuantity":{"value":26.18,"unit":"kg/m2","system":"http://unitsofmeasure.org","code":"kg/m2"}}},{"fullUrl":"Observation/19373680-1409-43d7-ab6d-20783c3877ea","resource":{"resourceType":"Observation","id":"19373680-1409-43d7-ab6d-20783c3877ea","meta":{"profile":["http://hl7.org/fhir/us/core/StructureDefinition/us-core-bmi"]},"status":"final","category":[{"coding":[{"system":"http://terminology.hl7.org/CodeSystem/observation-category","code":"vital-signs","display":"Vital Signs"}]}],"code":{"coding":[{"system":"http://loinc.org","code":"39156-5"}]},"subject":{"reference":"Patient/d80d384b-d169-40a0-843d-0b0a5354cab5"},"effectiveDateTime":"2022-02-13T00:00:00+00:00","valueQuantity":{"value":23.37,"unit":"kg/m2","system":"http://unitsofmeasure.org","code":"kg/m2"}}},{"fullUrl":"Observation/7826f944-e1a4-41c9-a233-f471c51718bd","resource":{"resourceType":"Observation","id":"7826f944-e1a4-41c9-a233-f471c51718bd","meta":{"profile":["http://hl7.org/fhir/us/core/StructureDefinition/us-core-head-circumference"]},"status":"final","category":[{"coding":[{"system":"http://terminology.hl7.org/CodeSystem/observation-category","code":"vital-signs","display":"Vital Signs"}]}],"code":{"coding":[{"system":"http://loinc.org","code":"9843-4"}]},"subject":{"reference":"Patient/d80d384b-d169-40a0-843d-0b0a5354cab5"},"effectiveDateTime":"2022-12-09T00:00:00+00:00","valueQuantity":{"value":2.6,"unit":"Inch","system":"http://unitsofmeasure.org","code":"[in_i]"}}},{"fullUrl":"Observation/3ec2cce7-658e-4418-b0d4-21fb6aec3ef0","resource":{"resourceType":"Observation","id":"3ec2cce7-658e-4418-b0d4-21fb6aec3ef0","meta":{"profile":["http://hl7.org/fhir/us/core/StructureDefinition/us-core-body-height"]},"status":"final","category":[{"coding":[{"system":"http://terminology.hl7.org/CodeSystem/observation-category","code":"vital-signs","display":"Vital Signs"}]}],"code":{"coding":[{"system":"http://loinc.org","code":"8302-2"}]},"subject":{"reference":"Patient/d80d384b-d169-40a0-843d-0b0a5354cab5"},"effectiveDateTime":"2022-12-27T00:00:00+00:00","valueQuantity":{"value":70.4,"unit":"Inch","system":"http://unitsofmeasure.org","code":"[in_i]"}}},{"fullUrl":"Observation/bcde5b1a-d6a0-446a-a17a-cd860ee926b8","resource":{"resourceType":"Observation","id":"bcde5b1a-d6a0-446a-a17a-cd860ee926b8","meta":{"profile":["http://hl7.org/fhir/us/core/StructureDefinition/us-core-body-height"]},"status":"final","category":[{"coding":[{"system":"http://terminology.hl7.org/CodeSystem/observation-category","code":"vital-signs","display":"Vital Signs"}]}],"code":{"coding":[{"system":"http://loinc.org","code":"8302-2"}]},"subject":{"reference":"Patient/d80d384b-d169-40a0-843d-0b0a5354cab5"},"effectiveDateTime":"2022-04-19T00:00:00+00:00","valueQuantity":{"value":71.9,"unit":"Inch","system":"http://unitsofmeasure.org","code":"[in_i]"}}},{"fullUrl":"Observation/4b099677-bcb4-4a3f-9a17-faa9653d88f8","resource":{"resourceType":"Observation","id":"4b099677-bcb4-4a3f-9a17-faa9653d88f8","meta":{"profile":["http://hl7.org/fhir/us/core/StructureDefinition/us-core-body-weight"]},"status":"final","category":[{"coding":[{"system":"http://terminology.hl7.org/CodeSystem/observation-category","code":"vital-signs","display":"Vital Signs"}]}],"code":{"coding":[{"system":"http://loinc.org","code":"29463-7"}]},"subject":{"reference":"Patient/d80d384b-d169-40a0-843d-0b0a5354cab5"},"effectiveDateTime":"2022-04-12T00:00:00+00:00","valueQuantity":{"value":145.14,"unit":"kilogram","system":"http://unitsofmeasure.org","code":"kg"}}},{"fullUrl":"Observation/e0586d4a-89a4-408f-a506-feb31cfddf00","resource":{"resourceType":"Observation","id":"e0586d4a-89a4-408f-a506-feb31cfddf00","meta":{"profile":["http://hl7.org/fhir/us/core/StructureDefinition/us-core-body-weight"]},"status":"final","category":[{"coding":[{"system":"http://terminology.hl7.org/CodeSystem/observation-category","code":"vital-signs","display":"Vital Signs"}]}],"code":{"coding":[{"system":"http://loinc.org","code":"29463-7"}]},"subject":{"reference":"Patient/d80d384b-d169-40a0-843d-0b0a5354cab5"},"effectiveDateTime":"2022-10-13T00:00:00+00:00","valueQuantity":{"value":149.21,"unit":"kilogram","system":"http://unitsofmeasure.org","code":"kg"}}},{"fullUrl":"Observation/a7e05d87-1b19-405a-9f16-a728bff16b9c","resource":{"resourceType":"Observation","id":"a7e05d87-1b19-405a-9f16-a728bff16b9c","meta":{"profile":["http://hl7.org/fhir/us/core/StructureDefinition/us-core-body-temperature"]},"status":"final","category":[{"coding":[{"system":"http://terminology.hl7.org/CodeSystem/observation-category","code":"vital-signs","display":"Vital Signs"}]}],"code":{"coding":[{"system":"http://loinc.org","code":"8310-5"}]},"subject":{"reference":"Patient/d80d384b-d169-40a0-843d-0b0a5354cab5"},"effectiveDateTime":"2022-05-23T00:00:00+00:00","valueQuantity":{"value":80.68,"unit":"Degrees Fahrenheit","system":"http://unitsofmeasure.org","code":"[degF]"}}},{"fullUrl":"Observation/31f4e6af-df24-48c7-b569-033fd92cbb46","resource":{"resourceType":"Observation","id":"31f4e6af-df24-48c7-b569-033fd92cbb46","meta":{"profile":["http://hl7.org/fhir/us/core/StructureDefinition/us-core-heart-rate"]},"status":"final","category":[{"coding":[{"system":"http://terminology.hl7.org/CodeSystem/observation-category","code":"vital-signs","display":"Vital Signs"}]}],"code":{"coding":[{"system":"http://loinc.org","code":"8867-4"}]},"subject":{"reference":"Patient/d80d384b-d169-40a0-843d-0b0a5354cab5"},"effectiveDateTime":"2022-02-20T00:00:00+00:00","valueQuantity":{"value":99.8,"unit":"Per Minute","system":"http://unitsofmeasure.org","code":"/min"}}},{"fullUrl":"Patient/c2e06620-fda5-448f-902d-0a1fb5764816","resource":{"resourceType":"Patient","id":"c2e06620-fda5-448f-902d-0a1fb5764816","meta":{"profile":["http://hl7.org/fhir/us/core/StructureDefinition/us-core-patient"]},"extension":[{"extension":[{"url":"ombCategory","valueCoding":{"system":"http://terminology.hl7.org/CodeSystem/v3-NullFlavor","code":"ASKU","display":"asked but unknown"}},{"url":"text","valueString":"asked but unknown"}],"url":"http://hl7.org/fhir/us/core/StructureDefinition/us-core-race"},{"extension":[{"url":"ombCategory","valueCoding":{"system":"urn:oid:2.16.840.1.113883.6.238","code":"2135-2","display":"Hispanic or Latino"}},{"url":"text","valueString":"Hispanic or Latino"}],"url":"http://hl7.org/fhir/us/core/StructureDefinition/us-core-ethnicity"}],"identifier":[{"type":{"coding":[{"system":"http://terminology.hl7.org/CodeSystem/v2-0203","code":"MR"}]},"system":"urn:fhirgen:mrn","value":"749-19-4904"},{"system":"http://hl7.org/fhir/sid/us-ssn","value":"097-91-6689"}],"name":[{"use":"official","family":"Wilson","given":["Tina"]},{"use":"maiden","family":"Watson"}],"telecom":[{"system":"phone","value":"(764)794-9560x685","use":"work"},{"system":"email","value":"florespamela@gmail.com","use":"work"}],"gender":"female","birthDate":"1946-08-26","address":[{"use":"home","line":["8933 Hayes Cape Apt. 832"],"city":"Shannonton","state":"TN","postalCode":"27658"},{"use":"old","line":["3367 Rose Lights"],"city":"West Michelleside","state":"KS","postalCode":"72449"}],"maritalStatus":{"coding":[{"system":"http://terminology.hl7.org/CodeSystem/v3-MaritalStatus","code":"S","display":"Never Married"}]}}},{"fullUrl":"Observation/279a1aeb-d9ca-49fa-a01e-e0719a491d60","resource":{"resourceType":"Observation","id":"279a1aeb-d9ca-49fa-a01e-e0719a491d60","meta":{"profile":["http://hl7.org/fhir/us/core/StructureDefinition/us-core-observation-lab"]},"status":"final","category":[{"coding":[{"system":"http://terminology.hl7.org/CodeSystem/observation-category","code":"laboratory","display":"Laboratory"}]}],"code":{"coding":[{"system":"http://loinc.org","code":"51475-2"}]},"subject":{"reference":"Patient/c2e06620-fda5-448f-902d-0a1fb5764816"},"effectiveDateTime":"2022-07-11T00:00:00+00:00","valueRatio":{"numerator":{"value":1},"denominator":{"value":32}}}},{"fullUrl":"Observation/b6cda7d6-80d5-483b-9f65-d7b04ac5a709","resource":{"resourceType":"Observation","id":"b6cda7d6-80d5-483b-9f65-d7b04ac5a709","meta":{"profile":["http://hl7.org/fhir/us/core/StructureDefinition/us-core-observation-lab"]},"status":"final","category":[{"coding":[{"system":"http://terminology.hl7.org/CodeSystem/observation-category","code":"laboratory","display":"Laboratory"}]}],"code":{"coding":[{"system":"http://loinc.org","code":"34382-2"}]},"subject":{"reference":"Patient/c2e06620-fda5-448f-902d-0a1fb5764816"},"effectiveDateTime":"2022-04-30T00:00:00+00:00","valueRatio":{"numerator":{"value":1},"denominator":{"value":32}}}},{"fullUrl":"Observation/961e4847-ce0b-4a4a-b25d-890e3a5b1a61","resource":{"resourceType":"Observation","id":"961e4847-ce0b-4a4a-b25d-890e3a5b1a61","meta":{"profile":["http://hl7.org/fhir/us/core/StructureDefinition/us-core-observation-lab"]},"status":"final","category":[{"coding":[{"system":"http://terminology.hl7.org/CodeSystem/observation-category","code":"laboratory","display":"Laboratory"}]}],"code":{"coding":[{"system":"http://loinc.org","code":"5394-2"}]},"subject":{"reference":"Patient/c2e06620-fda5-448f-902d-0a1fb5764816"},"effectiveDateTime":"2022-02-21T00:00:00+00:00","valueRatio":{"numerator":{"value":1},"denominator":{"value":4}}}},{"fullUrl":"Condition/300a1761-15de-491e-aecf-a93afd2b1c6d","resource":{"resourceType":"Condition","id":"300a1761-15de-491e-aecf-a93afd2b1c6d","meta":{"profile":["http://hl7.org/fhir/us/core/StructureDefinition/us-core-condition"]},"clinicalStatus":{"coding":[{"system":"http://terminology.hl7.org/CodeSystem/condition-clinical","code":"active","display":"Active"}]},"category":[{"coding":[{"system":"http://terminology.hl7.org/CodeSystem/condition-category","code":"problem-list-item"}]}],"code":{"coding":[{"system":"http://snomed.info/sct","code":"418290006"}]},"subject":{"reference":"Patient/c2e06620-fda5-448f-902d-0a1fb5764816"},"onsetDateTime":"2022-12-03T00:00:00+00:00"}},{"fullUrl":"Condition/6cfaedfc-c6eb-42e8-b49d-303576f3fe98","resource":{"resourceType":"Condition","id":"6cfaedfc-c6eb-42e8-b49d-303576f3fe98","meta":{"profile":["http://hl7.org/fhir/us/core/StructureDefinition/us-core-condition"]},"clinicalStatus":{"coding":[{"system":"http://terminology.hl7.org/CodeSystem/condition-clinical","code":"active","display":"Active"}]},"category":[{"coding":[{"system":"http://terminology.hl7.org/CodeSystem/condition-category","code":"problem-list-item"}]}],"code":{"coding":[{"system":"http://snomed.info/sct","code":"91554004"}]},"subject":{"reference":"Patient/c2e06620-fda5-448f-902d-0a1fb5764816"},"onsetDateTime":"2022-04-16T00:00:00+00:00"}},{"fullUrl":"Condition/7a838eef-d757-43bf-ab2e-b00c37539508","resource":{"resourceType":"Condition","id":"7a838eef-d757-43bf-ab2e-b00c37539508","meta":{"profile":["http://hl7.org/fhir/us/core/StructureDefinition/us-core-condition"]},"clinicalStatus":{"coding":[{"system":"http://terminology.hl7.org/CodeSystem/condition-clinical","code":"active","display":"Active"}]},"category":[{"coding":[{"system":"http://terminology.hl7.org/CodeSystem/condition-category","code":"problem-list-item"}]}],"code":{"coding":[{"system":"http://snomed.info/sct","code":"736686006"}]},"subject":{"reference":"Patient/c2e06620-fda5-448f-902d-0a1fb5764816"},"onsetDateTime":"2022-10-08T00:00:00+00:00"}},{"fullUrl":"Condition/5007d0bf-db00-4b9b-a7ce-38338d2b0d75","resource":{"resourceType":"Condition","id":"5007d0bf-db00-4b9b-a7ce-38338d2b0d75","meta":{"profile":["http://hl7.org/fhir/us/core/StructureDefinition/us-core-condition"]},"clinicalStatus":{"coding":[{"system":"http://terminology.hl7.org/CodeSystem/condition-clinical","code":"active","display":"Active"}]},"category":[{"coding":[{"system":"http://terminology.hl7.org/CodeSystem/condition-category","code":"problem-list-item"}]}],"code":{"coding":[{"system":"http://snomed.info/sct","code":"709977002"}]},"subject":{"reference":"Patient/c2e06620-fda5-448f-902d-0a1fb5764816"},"onsetDateTime":"2022-07-02T00:00:00+00:00"}},{"fullUrl":"Observation/4c56f0e3-03a5-421d-8f4e-57c60936986c","resource":{"resourceType":"Observation","id":"4c56f0e3-03a5-421d-8f4e-57c60936986c","meta":{"profile":["http://hl7.org/fhir/us/core/StructureDefinition/us-core-observation-lab"]},"status":"final","category":[{"coding":[{"system":"http://terminology.hl7.org/CodeSystem/observation-category","code":"laboratory","display":"Laboratory"}]}],"code":{"coding":[{"system":"http://loinc.org","code":"49498-9"}]},"subject":{"reference":"Patient/c2e06620-fda5-448f-902d-0a1fb5764816"},"effectiveDateTime":"2022-03-01T00:00:00+00:00","valueQuantity":{"value":8}}},{"fullUrl":"Observation/5b1becaf-1792-44ab-b7c5-c56a4dc99506","resource":{"resourceType":"Observation","id":"5b1becaf-1792-44ab-b7c5-c56a4dc99506","meta":{"profile":["http://hl7.org/fhir/us/core/StructureDefinition/us-core-observation-lab"]},"status":"final","category":[{"coding":[{"system":"http://terminology.hl7.org/CodeSystem/observation-category","code":"laboratory","display":"Laboratory"}]}],"code":{"coding":[{"system":"http://loinc.org","code":"804-5"}]},"subject":{"reference":"Patient/c2e06620-fda5-448f-902d-0a1fb5764816"},"effectiveDateTime":"2022-10-27T00:00:00+00:00","valueQuantity":{"value":5.1}}},{"fullUrl":"Observation/4d993690-3ce1-4b45-99eb-b79fe8f4adad","resource":{"resourceType":"Observation","id":"4d993690-3ce1-4b45-99eb-b79fe8f4adad","meta":{"profile":["http://hl7.org/fhir/us/core/StructureDefinition/us-core-observation-lab"]},"status":"final","category":[{"coding":[{"system":"http://terminology.hl7.org/CodeSystem/observation-category","code":"laboratory","display":"Laboratory"}]}],"code":{"coding":[{"system":"http://loinc.org","code":"6690-2"}]},"subject":{"reference":"Patient/c2e06620-fda5-448f-902d-0a1fb5764816"},"effectiveDateTime":"2022-01-28T00:00:00+00:00","valueQuantity":{"value":6.8}}},{"fullUrl":"Observation/0cb8ef7f-59fe-4f4b-ac32-6952b9eefee8","resource":{"resourceType":"Observation","id":"0cb8ef7f-59fe-4f4b-ac32-6952b9eefee8","meta":{"profile":["http://hl7.org/fhir/us/core/StructureDefinition/us-core-bmi"]},"status":"final","category":[{"coding":[{"system":"http://terminology.hl7.org/CodeSystem/observation-category","code":"vital-signs","display":"Vital Signs"}]}],"code":{"coding":[{"system":"http://loinc.org","code":"39156-5"}]},"subject":{"reference":"Patient/c2e06620-fda5-448f-902d-0a1fb5764816"},"effectiveDateTime":"2022-09-25T00:00:00+00:00","valueQuantity":{"value":13.87,"unit":"kg/m2","system":"http://unitsofmeasure.org","code":"kg/m2"}}},{"fullUrl":"Observation/083d7a79-043c-4447-85a2-56e50ef7ae10","resource":{"resourceType":"Observation","id":"083d7a79-043c-4447-85a2-56e50ef7ae10","meta":{"profile":["http://hl7.org/fhir/us/core/StructureDefinition/us-core-head-circumference"]},"status":"final","category":[{"coding":[{"system":"http://terminology.hl7.org/CodeSystem/observation-category","code":"vital-signs","display":"Vital Signs"}]}],"code":{"coding":[{"system":"http://loinc.org","code":"9843-4"}]},"subject":{"reference":"Patient/c2e06620-fda5-448f-902d-0a1fb5764816"},"effectiveDateTime":"2022-06-25T00:00:00+00:00","valueQuantity":{"value":9.6,"unit":"Inch","system":"http://unitsofmeasure.org","code":"[in_i]"}}},{"fullUrl":"Observation/46a90714-bdd4-4fc3-a13f-f317d0600922","resource":{"resourceType":"Observation","id":"46a90714-bdd4-4fc3-a13f-f317d0600922","meta":{"profile":["http://hl7.org/fhir/us/core/StructureDefinition/us-core-head-circumference"]},"status":"final","category":[{"coding":[{"system":"http://terminology.hl7.org/CodeSystem/observation-category","code":"vital-signs","display":"Vital Signs"}]}],"code":{"coding":[{"system":"http://loinc.org","code":"9843-4"}]},"subject":{"reference":"Patient/c2e06620-fda5-448f-902d-0a1fb5764816"},"effectiveDateTime":"2022-11-30T00:00:00+00:00","valueQuantity":{"value":6.3,"unit":"Inch","system":"http://unitsofmeasure.org","code":"[in_i]"}}},{"fullUrl":"Observation/afe5d333-5243-4e2c-bf97-351cc08fd4d2","resource":{"resourceType":"Observation","id":"afe5d333-5243-4e2c-bf97-351cc08fd4d2","meta":{"profile":["http://hl7.org/fhir/us/core/StructureDefinition/us-core-body-height"]},"status":"final","category":[{"coding":[{"system":"http://terminology.hl7.org/CodeSystem/observation-category","code":"vital-signs","display":"Vital Signs"}]}],"code":{"coding":[{"system":"http://loinc.org","code":"8302-2"}]},"subject":{"reference":"Patient/c2e06620-fda5-448f-902d-0a1fb5764816"},"effectiveDateTime":"2022-02-14T00:00:00+00:00","valueQuantity":{"value":74.2,"unit":"Inch","system":"http://unitsofmeasure.org","code":"[in_i]"}}},{"fullUrl":"Observation/0c11a44e-7439-4666-88f4-2589a7748b8f","resource":{"resourceType":"Observation","id":"0c11a44e-7439-4666-88f4-2589a7748b8f","meta":{"profile":["http://hl7.org/fhir/us/core/StructureDefinition/us-core-body-height"]},"status":"final","category":[{"coding":[{"system":"http://terminology.hl7.org/CodeSystem/observation-category","code":"vital-signs","display":"Vital Signs"}]}],"code":{"coding":[{"system":"http://loinc.org","code":"8302-2"}]},"subject":{"reference":"Patient/c2e06620-fda5-448f-902d-0a1fb5764816"},"effectiveDateTime":"2022-11-11T00:00:00+00:00","valueQuantity":{"value":74.4,"unit":"Inch","system":"http://unitsofmeasure.org","code":"[in_i]"}}},{"fullUrl":"Observation/4a8d54f9-d9da-45cf-a323-4f0a19bcfb67","resource":{"resourceType":"Observation","id":"4a8d54f9-d9da-45cf-a323-4f0a19bcfb67","meta":{"profile":["http://hl7.org/fhir/us/core/StructureDefinition/us-core-body-weight"]},"status":"final","category":[{"coding":[{"system":"http://terminology.hl7.org/CodeSystem/observation-category","code":"vital-signs","display":"Vital Signs"}]}],"code":{"coding":[{"system":"http://loinc.org","code":"29463-7"}]},"subject":{"reference":"Patient/c2e06620-fda5-448f-902d-0a1fb5764816"},"effectiveDateTime":"2022-12-23T00:00:00+00:00","valueQuantity":{"value":48.4,"unit":"kilogram","system":"http://unitsofmeasure.org","code":"kg"}}},{"fullUrl":"Observation/14f93436-d7e7-4d4d-9959-b9443d92220e","resource":{"resourceType":"Observation","id":"14f93436-d7e7-4d4d-9959-b9443d92220e","meta":{"profile":["http://hl7.org/fhir/us/core/StructureDefinition/us-core-body-temperature"]},"status":"final","category":[{"coding":[{"system":"http://terminology.hl7.org/CodeSystem/observation-category","code":"vital-signs","display":"Vital Signs"}]}],"code":{"coding":[{"system":"http://loinc.org","code":"8310-5"}]},"subject":{"reference":"Patient/c2e06620-fda5-448f-902d-0a1fb5764816"},"effectiveDateTime":"2022-01-07T00:00:00+00:00","valueQuantity":{"value":75.37,"unit":"Degrees Fahrenheit","system":"http://unitsofmeasure.org","code":"[degF]"}}},{"fullUrl":"Observation/836a25a8-c77c-4e87-ac63-4117b1abaedc","resource":{"resourceType":"Observation","id":"836a25a8-c77c-4e87-ac63-4117b1abaedc","meta":{"profile":["http://hl7.org/fhir/us/core/StructureDefinition/us-core-heart-rate"]},"status":"final","category":[{"coding":[{"system":"http://terminology.hl7.org/CodeSystem/observation-category","code":"vital-signs","display":"Vital Signs"}]}],"code":{"coding":[{"system":"http://loinc.org","code":"8867-4"}]},"subject":{"reference":"Patient/c2e06620-fda5-448f-902d-0a1fb5764816"},"effectiveDateTime":"2022-02-12T00:00:00+00:00","valueQuantity":{"value":97.7,"unit":"Per Minute","system":"http://unitsofmeasure.org","code":"/min"}}},{"fullUrl":"Patient/22b680e3-a6fa-4a1d-9df0-21601a09cce9","resource":{"resourceType":"Patient","id":"22b680e3-a6fa-4a1d-9df0-21601a09cce9","meta":{"profile":["http://hl7.org/fhir/us/core/StructureDefinition/us-core-patient"]},"extension":[{"extension":[{"url":"ombCategory","valueCoding":{"system":"urn:oid:2.16.840.1.113883.6.238","code":"2054-5","display":"Black or African American"}},{"url":"text","valueString":"Black or African American"}],"url":"http://hl7.org/fhir/us/core/StructureDefinition/us-core-race"},{"extension":[{"url":"ombCategory","valueCoding":{"system":"urn:oid:2.16.840.1.113883.6.238","code":"2186-5","display":"Not Hispanic or Latino"}},{"url":"text","valueString":"Not Hispanic or Latino"}],"url":"http://hl7.org/fhir/us/core/StructureDefinition/us-core-ethnicity"}],"identifier":[{"type":{"coding":[{"system":"http://terminology.hl7.org/CodeSystem/v2-0203","code":"MR"}]},"system":"urn:fhirgen:mrn","value":"203-06-7756"},{"system":"http://hl7.org/fhir/sid/us-ssn","value":"265-39-9565"}],"name":[{"use":"official","family":"Simon","given":["Erica"]},{"use":"maiden","family":"Dickson"}],"telecom":[{"system":"phone","value":"070.171.7415x173","use":"home"},{"system":"email","value":"bryan62@gmail.com","use":"home"}],"gender":"female","birthDate":"1985-09-09","address":[{"use":"home","line":["502 Travis Inlet"],"city":"Port Jefferyhaven","state":"FL","postalCode":"83263"},{"use":"old","line":["57637 Bethany Valleys Suite 586"],"city":"Christopherchester","state":"MI","postalCode":"49379"}],"maritalStatus":{"coding":[{"system":"http://terminology.hl7.org/CodeSystem/v3-MaritalStatus","code":"L","display":"Legally Separated"}]}}},{"fullUrl":"Observation/c401e669-afdc-457d-96c9-667fa1bba5b0","resource":{"resourceType":"Observation","id":"c401e669-afdc-457d-96c9-667fa1bba5b0","meta":{"profile":["http://hl7.org/fhir/us/core/StructureDefinition/us-core-observation-lab"]},"status":"final","category":[{"coding":[{"system":"http://terminology.hl7.org/CodeSystem/observation-category","code":"laboratory","display":"Laboratory"}]}],"code":{"coding":[{"system":"http://loinc.org","code":"87925-4"}]},"subject":{"reference":"Patient/22b680e3-a6fa-4a1d-9df0-21601a09cce9"},"effectiveDateTime":"2022-05-10T00:00:00+00:00","valueRatio":{"numerator":{"value":1},"denominator":{"value":32}}}},{"fullUrl":"Observation/6a122f99-c3aa-488d-af19-31575448d40f","resource":{"resourceType":"Observation","id":"6a122f99-c3aa-488d-af19-31575448d40f","meta":{"profile":["http://hl7.org/fhir/us/core/StructureDefinition/us-core-observation-lab"]},"status":"final","category":[{"coding":[{"system":"http://terminology.hl7.org/CodeSystem/observation-category","code":"laboratory","display":"Laboratory"}]}],"code":{"coding":[{"system":"http://loinc.org","code":"50690-7"}]},"subject":{"reference":"Patient/22b680e3-a6fa-4a1d-9df0-21601a09cce9"},"effectiveDateTime":"2022-01-28T00:00:00+00:00","valueRatio":{"numerator":{"value":1},"denominator":{"value":64}}}},{"fullUrl":"Condition/d59b0bab-c800-4a7f-9c3a-a741c1ca7417","resource":{"resourceType":"Condition","id":"d59b0bab-c800-4a7f-9c3a-a741c1ca7417","meta":{"profile":["http://hl7.org/fhir/us/core/StructureDefinition/us-core-condition"]},"clinicalStatus":{"coding":[{"system":"http://terminology.hl7.org/CodeSystem/condition-clinical","code":"active","display":"Active"}]},"category":[{"coding":[{"system":"http://terminology.hl7.org/CodeSystem/condition-category","code":"problem-list-item"}]}],"code":{"coding":[{"system":"http://snomed.info/sct","code":"91554004"}]},"subject":{"reference":"Patient/22b680e3-a6fa-4a1d-9df0-21601a09cce9"},"onsetDateTime":"2022-04-06T00:00:00+00:00"}},{"fullUrl":"Condition/a0dfc074-6d4b-48f4-9215-60158c932c86","resource":{"resourceType":"Condition","id":"a0dfc074-6d4b-48f4-9215-60158c932c86","meta":{"profile":["http://hl7.org/fhir/us/core/StructureDefinition/us-core-condition"]},"clinicalStatus":{"coding":[{"system":"http://terminology.hl7.org/CodeSystem/condition-clinical","code":"active","display":"Active"}]},"category":[{"coding":[{"system":"http://terminology.hl7.org/CodeSystem/condition-category","code":"problem-list-item"}]}],"code":{"coding":[{"system":"http://snomed.info/sct","code":"736686006"}]},"subject":{"reference":"Patient/22b680e3-a6fa-4a1d-9df0-21601a09cce9"},"onsetDateTime":"2022-08-10T00:00:00+00:00"}},{"fullUrl":"Condition/e3d3e3cd-dd89-43d1-9f3e-2abac1612720","resource":{"resourceType":"Condition","id":"e3d3e3cd-dd89-43d1-9f3e-2abac1612720","meta":{"profile":["http://hl7.org/fhir/us/core/StructureDefinition/us-core-condition"]},"clinicalStatus":{"coding":[{"system":"http://terminology.hl7.org/CodeSystem/condition-clinical","code":"active","display":"Active"}]},"category":[{"coding":[{"system":"http://terminology.hl7.org/CodeSystem/condition-category","code":"problem-list-item"}]}],"code":{"coding":[{"system":"http://snomed.info/sct","code":"736686006"}]},"subject":{"reference":"Patient/22b680e3-a6fa-4a1d-9df0-21601a09cce9"},"onsetDateTime":"2022-04-21T00:00:00+00:00"}},{"fullUrl":"Observation/83ad633b-8c68-4477-90b3-13bd2a5d1276","resource":{"resourceType":"Observation","id":"83ad633b-8c68-4477-90b3-13bd2a5d1276","meta":{"profile":["http://hl7.org/fhir/us/core/StructureDefinition/us-core-observation-lab"]},"status":"final","category":[{"coding":[{"system":"http://terminology.hl7.org/CodeSystem/observation-category","code":"laboratory","display":"Laboratory"}]}],"code":{"coding":[{"system":"http://loinc.org","code":"26464-8"}]},"subject":{"reference":"Patient/22b680e3-a6fa-4a1d-9df0-21601a09cce9"},"effectiveDateTime":"2022-01-14T00:00:00+00:00","valueQuantity":{"value":6.3}}},{"fullUrl":"Observation/21128ad6-abd4-4ff3-9423-1835a9e64aa1","resource":{"resourceType":"Observation","id":"21128ad6-abd4-4ff3-9423-1835a9e64aa1","meta":{"profile":["http://hl7.org/fhir/us/core/StructureDefinition/us-core-observation-lab"]},"status":"final","category":[{"coding":[{"system":"http://terminology.hl7.org/CodeSystem/observation-category","code":"laboratory","display":"Laboratory"}]}],"code":{"coding":[{"system":"http://loinc.org","code":"26464-8"}]},"subject":{"reference":"Patient/22b680e3-a6fa-4a1d-9df0-21601a09cce9"},"effectiveDateTime":"2022-08-07T00:00:00+00:00","valueQuantity":{"value":8.4}}},{"fullUrl":"Observation/14892173-5e3a-4879-91a2-10685dcab67d","resource":{"resourceType":"Observation","id":"14892173-5e3a-4879-91a2-10685dcab67d","meta":{"profile":["http://hl7.org/fhir/us/core/StructureDefinition/us-core-bmi"]},"status":"final","category":[{"coding":[{"system":"http://terminology.hl7.org/CodeSystem/observation-category","code":"vital-signs","display":"Vital Signs"}]}],"code":{"coding":[{"system":"http://loinc.org","code":"39156-5"}]},"subject":{"reference":"Patient/22b680e3-a6fa-4a1d-9df0-21601a09cce9"},"effectiveDateTime":"2022-02-03T00:00:00+00:00","valueQuantity":{"value":17,"unit":"kg/m2","system":"http://unitsofmeasure.org","code":"kg/m2"}}},{"fullUrl":"Observation/aec2b940-d7e0-439e-9f8e-eccf15df6fc6","resource":{"resourceType":"Observation","id":"aec2b940-d7e0-439e-9f8e-eccf15df6fc6","meta":{"profile":["http://hl7.org/fhir/us/core/StructureDefinition/us-core-head-circumference"]},"status":"final","category":[{"coding":[{"system":"http://terminology.hl7.org/CodeSystem/observation-category","code":"vital-signs","display":"Vital Signs"}]}],"code":{"coding":[{"system":"http://loinc.org","code":"9843-4"}]},"subject":{"reference":"Patient/22b680e3-a6fa-4a1d-9df0-21601a09cce9"},"effectiveDateTime":"2022-07-06T00:00:00+00:00","valueQuantity":{"value":7.9,"unit":"Inch","system":"http://unitsofmeasure.org","code":"[in_i]"}}},{"fullUrl":"Observation/7905dcc6-4cdc-45ec-a1a9-8ba6efb0e30d","resource":{"resourceType":"Observation","id":"7905dcc6-4cdc-45ec-a1a9-8ba6efb0e30d","meta":{"profile":["http://hl7.org/fhir/us/core/StructureDefinition/us-core-head-circumference"]},"status":"final","category":[{"coding":[{"system":"http://terminology.hl7.org/CodeSystem/observation-category","code":"vital-signs","display":"Vital Signs"}]}],"code":{"coding":[{"system":"http://loinc.org","code":"9843-4"}]},"subject":{"reference":"Patient/22b680e3-a6fa-4a1d-9df0-21601a09cce9"},"effectiveDateTime":"2022-04-08T00:00:00+00:00","valueQuantity":{"value":9.5,"unit":"Inch","system":"http://unitsofmeasure.org","code":"[in_i]"}}},{"fullUrl":"Observation/13fdf2d1-6d48-4cc7-99c9-8c9f05153ffe","resource":{"resourceType":"Observation","id":"13fdf2d1-6d48-4cc7-99c9-8c9f05153ffe","meta":{"profile":["http://hl7.org/fhir/us/core/StructureDefinition/us-core-body-height"]},"status":"final","category":[{"coding":[{"system":"http://terminology.hl7.org/CodeSystem/observation-category","code":"vital-signs","display":"Vital Signs"}]}],"code":{"coding":[{"system":"http://loinc.org","code":"8302-2"}]},"subject":{"reference":"Patient/22b680e3-a6fa-4a1d-9df0-21601a09cce9"},"effectiveDateTime":"2022-12-09T00:00:00+00:00","valueQuantity":{"value":68.2,"unit":"Inch","system":"http://unitsofmeasure.org","code":"[in_i]"}}},{"fullUrl":"Observation/d633a389-2f1e-4118-bfab-ed16178d0cc9","resource":{"resourceType":"Observation","id":"d633a389-2f1e-4118-bfab-ed16178d0cc9","meta":{"profile":["http://hl7.org/fhir/us/core/StructureDefinition/us-core-body-weight"]},"status":"final","category":[{"coding":[{"system":"http://terminology.hl7.org/CodeSystem/observation-category","code":"vital-signs","display":"Vital Signs"}]}],"code":{"coding":[{"system":"http://loinc.org","code":"29463-7"}]},"subject":{"reference":"Patient/22b680e3-a6fa-4a1d-9df0-21601a09cce9"},"effectiveDateTime":"2022-11-29T00:00:00+00:00","valueQuantity":{"value":123.2,"unit":"kilogram","system":"http://unitsofmeasure.org","code":"kg"}}},{"fullUrl":"Observation/bc0e6325-6723-4573-a639-c29c6edcb3f9","resource":{"resourceType":"Observation","id":"bc0e6325-6723-4573-a639-c29c6edcb3f9","meta":{"profile":["http://hl7.org/fhir/us/core/StructureDefinition/us-core-body-weight"]},"status":"final","category":[{"coding":[{"system":"http://terminology.hl7.org/CodeSystem/observation-category","code":"vital-signs","display":"Vital Signs"}]}],"code":{"coding":[{"system":"http://loinc.org","code":"29463-7"}]},"subject":{"reference":"Patient/22b680e3-a6fa-4a1d-9df0-21601a09cce9"},"effectiveDateTime":"2022-06-02T00:00:00+00:00","valueQuantity":{"value":23.67,"unit":"kilogram","system":"http://unitsofmeasure.org","code":"kg"}}},{"fullUrl":"Observation/20167df5-e3ce-4dcd-b84f-ed0582c5147f","resource":{"resourceType":"Observation","id":"20167df5-e3ce-4dcd-b84f-ed0582c5147f","meta":{"profile":["http://hl7.org/fhir/us/core/StructureDefinition/us-core-body-temperature"]},"status":"final","category":[{"coding":[{"system":"http://terminology.hl7.org/CodeSystem/observation-category","code":"vital-signs","display":"Vital Signs"}]}],"code":{"coding":[{"system":"http://loinc.org","code":"8310-5"}]},"subject":{"reference":"Patient/22b680e3-a6fa-4a1d-9df0-21601a09cce9"},"effectiveDateTime":"2022-07-27T00:00:00+00:00","valueQuantity":{"value":25.68,"unit":"Degrees Fahrenheit","system":"http://unitsofmeasure.org","code":"[degF]"}}},{"fullUrl":"Observation/2a6d8165-8f39-4007-8e48-ba5bb1ccf783","resource":{"resourceType":"Observation","id":"2a6d8165-8f39-4007-8e48-ba5bb1ccf783","meta":{"profile":["http://hl7.org/fhir/us/core/StructureDefinition/us-core-heart-rate"]},"status":"final","category":[{"coding":[{"system":"http://terminology.hl7.org/CodeSystem/observation-category","code":"vital-signs","display":"Vital Signs"}]}],"code":{"coding":[{"system":"http://loinc.org","code":"8867-4"}]},"subject":{"reference":"Patient/22b680e3-a6fa-4a1d-9df0-21601a09cce9"},"effectiveDateTime":"2022-01-04T00:00:00+00:00","valueQuantity":{"value":96.7,"unit":"Per Minute","system":"http://unitsofmeasure.org","code":"/min"}}},{"fullUrl":"Patient/334e6f4e-39ac-47bc-ab03-f612e2fa8807","resource":{"resourceType":"Patient","id":"334e6f4e-39ac-47bc-ab03-f612e2fa8807","meta":{"profile":["http://hl7.org/fhir/us/core/StructureDefinition/us-core-patient"]},"extension":[{"extension":[{"url":"ombCategory","valueCoding":{"system":"urn:oid:2.16.840.1.113883.6.238","code":"1002-5","display":"American Indian or Alaska Native"}},{"url":"text","valueString":"American Indian or Alaska Native"}],"url":"http://hl7.org/fhir/us/core/StructureDefinition/us-core-race"},{"extension":[{"url":"ombCategory","valueCoding":{"system":"urn:oid:2.16.840.1.113883.6.238","code":"2186-5","display":"Not Hispanic or Latino"}},{"url":"text","valueString":"Not Hispanic or Latino"}],"url":"http://hl7.org/fhir/us/core/StructureDefinition/us-core-ethnicity"}],"identifier":[{"type":{"coding":[{"system":"http://terminology.hl7.org/CodeSystem/v2-0203","code":"MR"}]},"system":"urn:fhirgen:mrn","value":"191-72-4112"},{"system":"http://hl7.org/fhir/sid/us-ssn","value":"837-04-2447"}],"name":[{"use":"official","family":"Benson","given":["Edward"]},{"use":"maiden","family":"Andrews"}],"telecom":[{"system":"phone","value":"001-974-368-0309x7127","use":"mobile"},{"system":"email","value":"sparkssheryl@yahoo.com","use":"home"}],"gender":"other","birthDate":"1973-12-12","address":[{"use":"home","line":["37831 Byrd Overpass"],"city":"North Karenborough","state":"SC","postalCode":"52790"},{"use":"old","line":["856 William Estates"],"city":"Ruizfurt","state":"MA","postalCode":"77947"}],"maritalStatus":{"coding":[{"system":"http://terminology.hl7.org/CodeSystem/v3-MaritalStatus","code":"T","display":"Domestic partner"}]}}},{"fullUrl":"Observation/d56717b0-540a-484f-9e97-b307ba5642bc","resource":{"resourceType":"Observation","id":"d56717b0-540a-484f-9e97-b307ba5642bc","meta":{"profile":["http://hl7.org/fhir/us/core/StructureDefinition/us-core-observation-lab"]},"status":"final","category":[{"coding":[{"system":"http://terminology.hl7.org/CodeSystem/observation-category","code":"laboratory","display":"Laboratory"}]}],"code":{"coding":[{"system":"http://loinc.org","code":"31146-4"}]},"subject":{"reference":"Patient/334e6f4e-39ac-47bc-ab03-f612e2fa8807"},"effectiveDateTime":"2022-04-12T00:00:00+00:00","valueRatio":{"numerator":{"value":1},"denominator":{"value":64}}}},{"fullUrl":"Observation/8363eb27-7056-485d-a27a-079ec3e420df","resource":{"resourceType":"Observation","id":"8363eb27-7056-485d-a27a-079ec3e420df","meta":{"profile":["http://hl7.org/fhir/us/core/StructureDefinition/us-core-observation-lab"]},"status":"final","category":[{"coding":[{"system":"http://terminology.hl7.org/CodeSystem/observation-category","code":"laboratory","display":"Laboratory"}]}],"code":{"coding":[{"system":"http://loinc.org","code":"26009-1"}]},"subject":{"reference":"Patient/334e6f4e-39ac-47bc-ab03-f612e2fa8807"},"effectiveDateTime":"2022-12-12T00:00:00+00:00","valueRatio":{"numerator":{"value":1},"denominator":{"value":32}}}},{"fullUrl":"Observation/ffcd64e0-bdc3-4e60-bb01-a26228d9ec8d","resource":{"resourceType":"Observation","id":"ffcd64e0-bdc3-4e60-bb01-a26228d9ec8d","meta":{"profile":["http://hl7.org/fhir/us/core/StructureDefinition/us-core-observation-lab"]},"status":"final","category":[{"coding":[{"system":"http://terminology.hl7.org/CodeSystem/observation-category","code":"laboratory","display":"Laboratory"}]}],"code":{"coding":[{"system":"http://loinc.org","code":"71793-4"}]},"subject":{"reference":"Patient/334e6f4e-39ac-47bc-ab03-f612e2fa8807"},"effectiveDateTime":"2022-05-13T00:00:00+00:00","valueRatio":{"numerator":{"value":1},"denominator":{"value":32}}}},{"fullUrl":"Condition/39815b6c-a76b-4d24-9b27-14882f6b50b8","resource":{"resourceType":"Condition","id":"39815b6c-a76b-4d24-9b27-14882f6b50b8","meta":{"profile":["http://hl7.org/fhir/us/core/StructureDefinition/us-core-condition"]},"clinicalStatus":{"coding":[{"system":"http://terminology.hl7.org/CodeSystem/condition-clinical","code":"active","display":"Active"}]},"category":[{"coding":[{"system":"http://terminology.hl7.org/CodeSystem/condition-category","code":"problem-list-item"}]}],"code":{"coding":[{"system":"http://snomed.info/sct","code":"709977002"}]},"subject":{"reference":"Patient/334e6f4e-39ac-47bc-ab03-f612e2fa8807"},"onsetDateTime":"2022-12-15T00:00:00+00:00"}},{"fullUrl":"Condition/1e597b87-ffff-40b0-8522-385aba14e8d0","resource":{"resourceType":"Condition","id":"1e597b87-ffff-40b0-8522-385aba14e8d0","meta":{"profile":["http://hl7.org/fhir/us/core/StructureDefinition/us-core-condition"]},"clinicalStatus":{"coding":[{"system":"http://terminology.hl7.org/CodeSystem/condition-clinical","code":"active","display":"Active"}]},"category":[{"coding":[{"system":"http://terminology.hl7.org/CodeSystem/condition-category","code":"problem-list-item"}]}],"code":{"coding":[{"system":"http://snomed.info/sct","code":"44882003"}]},"subject":{"reference":"Patient/334e6f4e-39ac-47bc-ab03-f612e2fa8807"},"onsetDateTime":"2022-01-04T00:00:00+00:00"}},{"fullUrl":"Condition/f45872f1-3e48-48cd-8102-ddd267a609b9","resource":{"resourceType":"Condition","id":"f45872f1-3e48-48cd-8102-ddd267a609b9","meta":{"profile":["http://hl7.org/fhir/us/core/StructureDefinition/us-core-condition"]},"clinicalStatus":{"coding":[{"system":"http://terminology.hl7.org/CodeSystem/condition-clinical","code":"active","display":"Active"}]},"category":[{"coding":[{"system":"http://terminology.hl7.org/CodeSystem/condition-category","code":"problem-list-item"}]}],"code":{"coding":[{"system":"http://snomed.info/sct","code":"418290006"}]},"subject":{"reference":"Patient/334e6f4e-39ac-47bc-ab03-f612e2fa8807"},"onsetDateTime":"2022-05-30T00:00:00+00:00"}},{"fullUrl":"Condition/d2094aa6-10c1-4809-a74b-53983443152a","resource":{"resourceType":"Condition","id":"d2094aa6-10c1-4809-a74b-53983443152a","meta":{"profile":["http://hl7.org/fhir/us/core/StructureDefinition/us-core-condition"]},"clinicalStatus":{"coding":[{"system":"http://terminology.hl7.org/CodeSystem/condition-clinical","code":"active","display":"Active"}]},"category":[{"coding":[{"system":"http://terminology.hl7.org/CodeSystem/condition-category","code":"problem-list-item"}]}],"code":{"coding":[{"system":"http://snomed.info/sct","code":"418290006"}]},"subject":{"reference":"Patient/334e6f4e-39ac-47bc-ab03-f612e2fa8807"},"onsetDateTime":"2022-04-10T00:00:00+00:00"}},{"fullUrl":"Condition/7fe42112-8352-4c3a-b53b-d34df175d97f","resource":{"resourceType":"Condition","id":"7fe42112-8352-4c3a-b53b-d34df175d97f","meta":{"profile":["http://hl7.org/fhir/us/core/StructureDefinition/us-core-condition"]},"clinicalStatus":{"coding":[{"system":"http://terminology.hl7.org/CodeSystem/condition-clinical","code":"active","display":"Active"}]},"category":[{"coding":[{"system":"http://terminology.hl7.org/CodeSystem/condition-category","code":"problem-list-item"}]}],"code":{"coding":[{"system":"http://snomed.info/sct","code":"91554004"}]},"subject":{"reference":"Patient/334e6f4e-39ac-47bc-ab03-f612e2fa8807"},"onsetDateTime":"2022-01-19T00:00:00+00:00"}},{"fullUrl":"Observation/9ce57e39-8198-425b-9e34-fcb3db3fd2d1","resource":{"resourceType":"Observation","id":"9ce57e39-8198-425b-9e34-fcb3db3fd2d1","meta":{"profile":["http://hl7.org/fhir/us/core/StructureDefinition/us-core-observation-lab"]},"status":"final","category":[{"coding":[{"system":"http://terminology.hl7.org/CodeSystem/observation-category","code":"laboratory","display":"Laboratory"}]}],"code":{"coding":[{"system":"http://loinc.org","code":"26464-8"}]},"subject":{"reference":"Patient/334e6f4e-39ac-47bc-ab03-f612e2fa8807"},"effectiveDateTime":"2022-07-05T00:00:00+00:00","valueQuantity":{"value":4.1}}},{"fullUrl":"Observation/7e987701-d13d-4a0d-adaf-eab221cd1e6c","resource":{"resourceType":"Observation","id":"7e987701-d13d-4a0d-adaf-eab221cd1e6c","meta":{"profile":["http://hl7.org/fhir/us/core/StructureDefinition/us-core-observation-lab"]},"status":"final","category":[{"coding":[{"system":"http://terminology.hl7.org/CodeSystem/observation-category","code":"laboratory","display":"Laboratory"}]}],"code":{"coding":[{"system":"http://loinc.org","code":"49498-9"}]},"subject":{"reference":"Patient/334e6f4e-39ac-47bc-ab03-f612e2fa8807"},"effectiveDateTime":"2022-08-01T00:00:00+00:00","valueQuantity":{"value":6.7}}},{"fullUrl":"Observation/0d7c67fd-0f79-4258-9a30-d213ac27be0a","resource":{"resourceType":"Observation","id":"0d7c67fd-0f79-4258-9a30-d213ac27be0a","meta":{"profile":["http://hl7.org/fhir/us/core/StructureDefinition/us-core-observation-lab"]},"status":"final","category":[{"coding":[{"system":"http://terminology.hl7.org/CodeSystem/observation-category","code":"laboratory","display":"Laboratory"}]}],"code":{"coding":[{"system":"http://loinc.org","code":"6690-2"}]},"subject":{"reference":"Patient/334e6f4e-39ac-47bc-ab03-f612e2fa8807"},"effectiveDateTime":"2022-11-04T00:00:00+00:00","valueQuantity":{"value":5.8}}},{"fullUrl":"Observation/d06f28fc-b218-4d1e-8726-25252ad5a3c6","resource":{"resourceType":"Observation","id":"d06f28fc-b218-4d1e-8726-25252ad5a3c6","meta":{"profile":["http://hl7.org/fhir/us/core/StructureDefinition/us-core-bmi"]},"status":"final","category":[{"coding":[{"system":"http://terminology.hl7.org/CodeSystem/observation-category","code":"vital-signs","display":"Vital Signs"}]}],"code":{"coding":[{"system":"http://loinc.org","code":"39156-5"}]},"subject":{"reference":"Patient/334e6f4e-39ac-47bc-ab03-f612e2fa8807"},"effectiveDateTime":"2022-12-11T00:00:00+00:00","valueQuantity":{"value":23.53,"unit":"kg/m2","system":"http://unitsofmeasure.org","code":"kg/m2"}}},{"fullUrl":"Observation/3ddce961-9dac-4ccb-a18a-3084e839d079","resource":{"resourceType":"Observation","id":"3ddce961-9dac-4ccb-a18a-3084e839d079","meta":{"profile":["http://hl7.org/fhir/us/core/StructureDefinition/us-core-bmi"]},"status":"final","category":[{"coding":[{"system":"http://terminology.hl7.org/CodeSystem/observation-category","code":"vital-signs","display":"Vital Signs"}]}],"code":{"coding":[{"system":"http://loinc.org","code":"39156-5"}]},"subject":{"reference":"Patient/334e6f4e-39ac-47bc-ab03-f612e2fa8807"},"effectiveDateTime":"2022-11-06T00:00:00+00:00","valueQuantity":{"value":15.64,"unit":"kg/m2","system":"http://unitsofmeasure.org","code":"kg/m2"}}},{"fullUrl":"Observation/25cd5797-a863-467b-b531-f6cc7a479b4b","resource":{"resourceType":"Observation","id":"25cd5797-a863-467b-b531-f6cc7a479b4b","meta":{"profile":["http://hl7.org/fhir/us/core/StructureDefinition/us-core-head-circumference"]},"status":"final","category":[{"coding":[{"system":"http://terminology.hl7.org/CodeSystem/observation-category","code":"vital-signs","display":"Vital Signs"}]}],"code":{"coding":[{"system":"http://loinc.org","code":"9843-4"}]},"subject":{"reference":"Patient/334e6f4e-39ac-47bc-ab03-f612e2fa8807"},"effectiveDateTime":"2022-06-12T00:00:00+00:00","valueQuantity":{"value":8.5,"unit":"Inch","system":"http://unitsofmeasure.org","code":"[in_i]"}}},{"fullUrl":"Observation/e53ada85-5910-4a18-b685-62f78765067a","resource":{"resourceType":"Observation","id":"e53ada85-5910-4a18-b685-62f78765067a","meta":{"profile":["http://hl7.org/fhir/us/core/StructureDefinition/us-core-head-circumference"]},"status":"final","category":[{"coding":[{"system":"http://terminology.hl7.org/CodeSystem/observation-category","code":"vital-signs","display":"Vital Signs"}]}],"code":{"coding":[{"system":"http://loinc.org","code":"9843-4"}]},"subject":{"reference":"Patient/334e6f4e-39ac-47bc-ab03-f612e2fa8807"},"effectiveDateTime":"2022-10-01T00:00:00+00:00","valueQuantity":{"value":6.3,"unit":"Inch","system":"http://unitsofmeasure.org","code":"[in_i]"}}},{"fullUrl":"Observation/1975b083-a4a7-424c-8808-ef81ee2a05a8","resource":{"resourceType":"Observation","id":"1975b083-a4a7-424c-8808-ef81ee2a05a8","meta":{"profile":["http://hl7.org/fhir/us/core/StructureDefinition/us-core-body-height"]},"status":"final","category":[{"coding":[{"system":"http://terminology.hl7.org/CodeSystem/observation-category","code":"vital-signs","display":"Vital Signs"}]}],"code":{"coding":[{"system":"http://loinc.org","code":"8302-2"}]},"subject":{"reference":"Patient/334e6f4e-39ac-47bc-ab03-f612e2fa8807"},"effectiveDateTime":"2022-09-16T00:00:00+00:00","valueQuantity":{"value":79.6,"unit":"Inch","system":"http://unitsofmeasure.org","code":"[in_i]"}}},{"fullUrl":"Observation/88d249d4-15e8-4dfb-b935-23ad41a8b2b4","resource":{"resourceType":"Observation","id":"88d249d4-15e8-4dfb-b935-23ad41a8b2b4","meta":{"profile":["http://hl7.org/fhir/us/core/StructureDefinition/us-core-body-height"]},"status":"final","category":[{"coding":[{"system":"http://terminology.hl7.org/CodeSystem/observation-category","code":"vital-signs","display":"Vital Signs"}]}],"code":{"coding":[{"system":"http://loinc.org","code":"8302-2"}]},"subject":{"reference":"Patient/334e6f4e-39ac-47bc-ab03-f612e2fa8807"},"effectiveDateTime":"2022-10-13T00:00:00+00:00","valueQuantity":{"value":77.9,"unit":"Inch","system":"http://unitsofmeasure.org","code":"[in_i]"}}},{"fullUrl":"Observation/4cd3c814-cc3e-4369-b916-1ab9db463070","resource":{"resourceType":"Observation","id":"4cd3c814-cc3e-4369-b916-1ab9db463070","meta":{"profile":["http://hl7.org/fhir/us/core/StructureDefinition/us-core-body-weight"]},"status":"final","category":[{"coding":[{"system":"http://terminology.hl7.org/CodeSystem/observation-category","code":"vital-signs","display":"Vital Signs"}]}],"code":{"coding":[{"system":"http://loinc.org","code":"29463-7"}]},"subject":{"reference":"Patient/334e6f4e-39ac-47bc-ab03-f612e2fa8807"},"effectiveDateTime":"2022-02-22T00:00:00+00:00","valueQuantity":{"value":82.04,"unit":"kilogram","system":"http://unitsofmeasure.org","code":"kg"}}},{"fullUrl":"Observation/4daea8c1-3393-4692-8744-f08e3913cea0","resource":{"resourceType":"Observation","id":"4daea8c1-3393-4692-8744-f08e3913cea0","meta":{"profile":["http://hl7.org/fhir/us/core/StructureDefinition/us-core-body-temperature"]},"status":"final","category":[{"coding":[{"system":"http://terminology.hl7.org/CodeSystem/observation-category","code":"vital-signs","display":"Vital Signs"}]}],"code":{"coding":[{"system":"http://loinc.org","code":"8310-5"}]},"subject":{"reference":"Patient/334e6f4e-39ac-47bc-ab03-f612e2fa8807"},"effectiveDateTime":"2022-01-07T00:00:00+00:00","valueQuantity":{"value":52.95,"unit":"Degrees Fahrenheit","system":"http://unitsofmeasure.org","code":"[degF]"}}},{"fullUrl":"Observation/d60650e4-b2cd-4f03-baf3-690191184b25","resource":{"resourceType":"Observation","id":"d60650e4-b2cd-4f03-baf3-690191184b25","meta":{"profile":["http://hl7.org/fhir/us/core/StructureDefinition/us-core-heart-rate"]},"status":"final","category":[{"coding":[{"system":"http://terminology.hl7.org/CodeSystem/observation-category","code":"vital-signs","display":"Vital Signs"}]}],"code":{"coding":[{"system":"http://loinc.org","code":"8867-4"}]},"subject":{"reference":"Patient/334e6f4e-39ac-47bc-ab03-f612e2fa8807"},"effectiveDateTime":"2022-08-14T00:00:00+00:00","valueQuantity":{"value":99.8,"unit":"Per Minute","system":"http://unitsofmeasure.org","code":"/min"}}},{"fullUrl":"Observation/c06f5e90-da38-49a3-947b-dd541e06ecc3","resource":{"resourceType":"Observation","id":"c06f5e90-da38-49a3-947b-dd541e06ecc3","meta":{"profile":["http://hl7.org/fhir/us/core/StructureDefinition/us-core-heart-rate"]},"status":"final","category":[{"coding":[{"system":"http://terminology.hl7.org/CodeSystem/observation-category","code":"vital-signs","display":"Vital Signs"}]}],"code":{"coding":[{"system":"http://loinc.org","code":"8867-4"}]},"subject":{"reference":"Patient/334e6f4e-39ac-47bc-ab03-f612e2fa8807"},"effectiveDateTime":"2022-09-08T00:00:00+00:00","valueQuantity":{"value":99.1,"unit":"Per Minute","system":"http://unitsofmeasure.org","code":"/min"}}}]}