{"resourceType":"Bundle","id":"92b74061-2241-40eb-bb0f-ffc8b0f5ee27","type":"transaction","entry":[{"fullUrl":"Patient/d645acc0-e5a4-4908-88a0-f89613bd6013","resource":{"resourceType":"Patient","id":"d645acc0-e5a4-4908-88a0-f89613bd6013","meta":{"profile":["http://hl7.org/fhir/us/core/StructureDefinition/us-core-patient"]},"extension":[{"extension":[{"url":"ombCategory","valueCoding":{"system":"urn:oid:2.16.840.1.113883.6.238","code":"2054-5","display":"Black or African American"}},{"url":"text","valueString":"Black or African American"}],"url":"http://hl7.org/fhir/us/core/StructureDefinition/us-core-race"},{"extension":[{"url":"ombCategory","valueCoding":{"system":"urn:oid:2.16.840.1.113883.6.238","code":"2135-2","display":"Hispanic or Latino"}},{"url":"text","valueString":"Hispanic or Latino"}],"url":"http://hl7.org/fhir/us/core/StructureDefinition/us-core-ethnicity"}],"identifier":[{"type":{"coding":[{"system":"http://terminology.hl7.org/CodeSystem/v2-0203","code":"MR"}]},"system":"urn:fhirgen:mrn","value":"154-86-7526"},{"system":"http://hl7.org/fhir/sid/us-ssn","value":"276-66-2511"}],"name":[{"use":"official","family":"Norton","given":["Jared"]},{"use":"maiden","family":"Nolan"}],"telecom":[{"system":"phone","value":"(877)719-3834","use":"home"},{"system":"email","value":"michael22@yahoo.com","use":"mobile"}],"gender":"male","birthDate":"1990-12-13","address":[{"use":"home","line":["9252 Claire Corners"],"city":"North Danny","state":"FL","postalCode":"95191"},{"use":"old","line":["215 Estrada Summit Suite 575"],"city":"New Holly","state":"FL","postalCode":"34747"}],"maritalStatus":{"coding":[{"system":"http://terminology.hl7.org/CodeSystem/v3-MaritalStatus","code":"T","display":"Domestic partner"}]}},"request":{"method":"POST","url":"Patient"}},{"fullUrl":"Observation/2bfd34f8-5792-4375-9f7c-9dbbefb3ed1e","resource":{"resourceType":"Observation","id":"2bfd34f8-5792-4375-9f7c-9dbbefb3ed1e","meta":{"profile":["http://hl7.org/fhir/us/core/StructureDefinition/us-core-observation-lab"]},"status":"final","category":[{"coding":[{"system":"http://terminology.hl7.org/CodeSystem/observation-category","code":"laboratory","display":"Laboratory"}]}],"code":{"coding":[{"system":"http://loinc.org","code":"47476-7"}]},"subject":{"reference":"Patient/d645acc0-e5a4-4908-88a0-f89613bd6013"},"effectiveDateTime":"2022-08-29T00:00:00+00:00","valueRatio":{"numerator":{"value":1},"denominator":{"value":64}}},"request":{"method":"POST","url":"Observation"}},{"fullUrl":"Observation/94b29a94-892e-40c4-bff3-f8b9e8342519","resource":{"resourceType":"Observation","id":"94b29a94-892e-40c4-bff3-f8b9e8342519","meta":{"profile":["http://hl7.org/fhir/us/core/StructureDefinition/us-core-observation-lab"]},"status":"final","category":[{"coding":[{"system":"http://terminology.hl7.org/CodeSystem/observation-category","code":"laboratory","display":"Laboratory"}]}],"code":{"coding":[{"system":"http://loinc.org","code":"11084-1"}]},"subject":{"reference":"Patient/d645acc0-e5a4-4908-88a0-f89613bd6013"},"effectiveDateTime":"2022-11-04T00:00:00+00:00","valueRatio":{"numerator":{"value":1},"denominator":{"value":4}}},"request":{"method":"POST","url":"Observation"}},{"fullUrl":"Observation/28dd6e06-22a4-4eeb-afaa-9cfd80ab4142","resource":{"resourceType":"Observation","id":"28dd6e06-22a4-4eeb-afaa-9cfd80ab4142","meta":{"profile":["http://hl7.org/fhir/us/core/StructureDefinition/us-core-observation-lab"]},"status":"final","category":[{"coding":[{"system":"http://terminology.hl7.org/CodeSystem/observation-category","code":"laboratory","display":"Laboratory"}]}],"code":{"coding":[{"system":"http://loinc.org","code":"50695-6"}]},"subject":{"reference":"Patient/d645acc0-e5a4-4908-88a0-f89613bd6013"},"effectiveDateTime":"2022-07-05T00:00:00+00:00","valueRatio":{"numerator":{"value":1},"denominator":{"value":32}}},"request":{"method":"POST","url":"Observation"}},{"fullUrl":"Condition/92571f23-37ed-44b4-bad9-a2013961b643","resource":{"resourceType":"Condition","id":"92571f23-37ed-44b4-bad9-a2013961b643","meta":{"profile":["http://hl7.org/fhir/us/core/StructureDefinition/us-core-condition"]},"clinicalStatus":{"coding":[{"system":"http://terminology.hl7.org/CodeSystem/condition-clinical","code":"active","display":"Active"}]},"category":[{"coding":[{"system":"http://terminology.hl7.org/CodeSystem/condition-category","code":"problem-list-item"}]}],"code":{"coding":[{"system":"http://snomed.info/sct","code":"709977002"}]},"subject":{"reference":"Patient/d645acc0-e5a4-4908-88a0-f89613bd6013"},"onsetDateTime":"2022-05-21T00:00:00+00:00"},"request":{"method":"POST","url":"Condition"}},{"fullUrl":"Condition/73d8dbe0-9fcc-4756-b75b-18a5163b4df0","resource":{"resourceType":"Condition","id":"73d8dbe0-9fcc-4756-b75b-18a5163b4df0","meta":{"profile":["http://hl7.org/fhir/us/core/StructureDefinition/us-core-condition"]},"clinicalStatus":{"coding":[{"system":"http://terminology.hl7.org/CodeSystem/condition-clinical","code":"active","display":"Active"}]},"category":[{"coding":[{"system":"http://terminology.hl7.org/CodeSystem/condition-category","code":"problem-list-item"}]}],"code":{"coding":[{"system":"http://snomed.info/sct","code":"91554004"}]},"subject":{"reference":"Patient/d645acc0-e5a4-4908-88a0-f89613bd6013"},"onsetDateTime":"2022-08-21T00:00:00+00:00"},"request":{"method":"POST","url":"Condition"}},{"fullUrl":"Condition/8df647b5-629f-4543-a651-9649b45e3ca6","resource":{"resourceType":"Condition","id":"8df647b5-629f-4543-a651-9649b45e3ca6","meta":{"profile":["http://hl7.org/fhir/us/core/StructureDefinition/us-core-condition"]},"clinicalStatus":{"coding":[{"system":"http://terminology.hl7.org/CodeSystem/condition-clinical","code":"active","display":"Active"}]},"category":[{"coding":[{"system":"http://terminology.hl7.org/CodeSystem/condition-category","code":"problem-list-item"}]}],"code":{"coding":[{"system":"http://snomed.info/sct","code":"736686006"}]},"subject":{"reference":"Patient/d645acc0-e5a4-4908-88a0-f89613bd6013"},"onsetDateTime":"2022-02-02T00:00:00+00:00"},"request":{"method":"POST","url":"Condition"}},{"fullUrl":"Condition/c54d2c43-c350-4159-a571-9dbcb5dd695c","resource":{"resourceType":"Condition","id":"c54d2c43-c350-4159-a571-9dbcb5dd695c","meta":{"profile":["http://hl7.org/fhir/us/core/StructureDefinition/us-core-condition"]},"clinicalStatus":{"coding":[{"system":"http://terminology.hl7.org/CodeSystem/condition-clinical","code":"active","display":"Active"}]},"category":[{"coding":[{"system":"http://terminology.hl7.org/CodeSystem/condition-category","code":"problem-list-item"}]}],"code":{"coding":[{"system":"http://snomed.info/sct","code":"736686006"}]},"subject":{"reference":"Patient/d645acc0-e5a4-4908-88a0-f89613bd6013"},"onsetDateTime":"2022-07-05T00:00:00+00:00"},"request":{"method":"POST","url":"Condition"}},{"fullUrl":"Condition/9bb456cc-f7ad-4220-b627-8801fc42b7dc","resource":{"resourceType":"Condition","id":"9bb456cc-f7ad-4220-b627-8801fc42b7dc","meta":{"profile":["http://hl7.org/fhir/us/core/StructureDefinition/us-core-condition"]},"clinicalStatus":{"coding":[{"system":"http://terminology.hl7.org/CodeSystem/condition-clinical","code":"active","display":"Active"}]},"category":[{"coding":[{"system":"http://terminology.hl7.org/CodeSystem/condition-category","code":"problem-list-item"}]}],"code":{"coding":[{"system":"http://snomed.info/sct","code":"736686006"}]},"subject":{"reference":"Patient/d645acc0-e5a4-4908-88a0-f89613bd6013"},"onsetDateTime":"2022-10-09T00:00:00+00:00"},"request":{"method":"POST","url":"Condition"}},{"fullUrl":"Condition/41abddb4-dbbb-458d-8454-6ee1b39a165b","resource":{"resourceType":"Condition","id":"41abddb4-dbbb-458d-8454-6ee1b39a165b","meta":{"profile":["http://hl7.org/fhir/us/core/StructureDefinition/us-core-condition"]},"clinicalStatus":{"coding":[{"system":"http://terminology.hl7.org/CodeSystem/condition-clinical","code":"active","display":"Active"}]},"category":[{"coding":[{"system":"http://terminology.hl7.org/CodeSystem/condition-category","code":"problem-list-item"}]}],"code":{"coding":[{"system":"http://snomed.info/sct","code":"736686006"}]},"subject":{"reference":"Patient/d645acc0-e5a4-4908-88a0-f89613bd6013"},"onsetDateTime":"2022-03-04T00:00:00+00:00"},"request":{"method":"POST","url":"Condition"}},{"fullUrl":"Condition/1e1e9633-4497-4221-8b29-47d7929af572","resource":{"resourceType":"Condition","id":"1e1e9633-4497-4221-8b29-47d7929af572","meta":{"profile":["http://hl7.org/fhir/us/core/StructureDefinition/us-core-condition"]},"clinicalStatus":{"coding":[{"system":"http://terminology.hl7.org/CodeSystem/condition-clinical","code":"active","display":"Active"}]},"category":[{"coding":[{"system":"http://terminology.hl7.org/CodeSystem/condition-category","code":"problem-list-item"}]}],"code":{"coding":[{"system":"http://snomed.info/sct","code":"44882003"}]},"subject":{"reference":"Patient/d645acc0-e5a4-4908-88a0-f89613bd6013"},"onsetDateTime":"2022-03-12T00:00:00+00:00"},"request":{"method":"POST","url":"Condition"}},{"fullUrl":"Observation/18cf97ad-2c9f-4c6c-a724-4e1e350e8f29","resource":{"resourceType":"Observation","id":"18cf97ad-2c9f-4c6c-a724-4e1e350e8f29","meta":{"profile":["http://hl7.org/fhir/us/core/StructureDefinition/us-core-observation-lab"]},"status":"final","category":[{"coding":[{"system":"http://terminology.hl7.org/CodeSystem/observation-category","code":"laboratory","display":"Laboratory"}]}],"code":{"coding":[{"system":"http://loinc.org","code":"6690-2"}]},"subject":{"reference":"Patient/d645acc0-e5a4-4908-88a0-f89613bd6013"},"effectiveDateTime":"2022-11-10T00:00:00+00:00","valueQuantity":{"value":8.7}},"request":{"method":"POST","url":"Observation"}},{"fullUrl":"Observation/26fd8846-a9fa-40d4-93d1-001bac0334af","resource":{"resourceType":"Observation","id":"26fd8846-a9fa-40d4-93d1-001bac0334af","meta":{"profile":["http://hl7.org/fhir/us/core/StructureDefinition/us-core-observation-lab"]},"status":"final","category":[{"coding":[{"system":"http://terminology.hl7.org/CodeSystem/observation-category","code":"laboratory","display":"Laboratory"}]}],"code":{"coding":[{"system":"http://loinc.org","code":"6690-2"}]},"subject":{"reference":"Patient/d645acc0-e5a4-4908-88a0-f89613bd6013"},"effectiveDateTime":"2022-10-15T00:00:00+00:00","valueQuantity":{"value":10.5}},"request":{"method":"POST","url":"Observation"}},{"fullUrl":"Observation/8a6a014d-541b-4799-8240-cc917ad4b816","resource":{"resourceType":"Observation","id":"8a6a014d-541b-4799-8240-cc917ad4b816","meta":{"profile":["http://hl7.org/fhir/us/core/StructureDefinition/us-core-observation-lab"]},"status":"final","category":[{"coding":[{"system":"http://terminology.hl7.org/CodeSystem/observation-category","code":"laboratory","display":"Laboratory"}]}],"code":{"coding":[{"system":"http://loinc.org","code":"804-5"}]},"subject":{"reference":"Patient/d645acc0-e5a4-4908-88a0-f89613bd6013"},"effectiveDateTime":"2022-12-15T00:00:00+00:00","valueQuantity":{"value":8.7}},"request":{"method":"POST","url":"Observation"}},{"fullUrl":"Observation/35ebad9f-fa70-4bff-8185-b28e31103bc3","resource":{"resourceType":"Observation","id":"35ebad9f-fa70-4bff-8185-b28e31103bc3","meta":{"profile":["http://hl7.org/fhir/us/core/StructureDefinition/us-core-bmi"]},"status":"final","category":[{"coding":[{"system":"http://terminology.hl7.org/CodeSystem/observation-category","code":"vital-signs","display":"Vital Signs"}]}],"code":{"coding":[{"system":"http://loinc.org","code":"39156-5"}]},"subject":{"reference":"Patient/d645acc0-e5a4-4908-88a0-f89613bd6013"},"effectiveDateTime":"2022-08-14T00:00:00+00:00","valueQuantity":{"value":25.67,"unit":"kg/m2","system":"http://unitsofmeasure.org","code":"kg/m2"}},"request":{"method":"POST","url":"Observation"}},{"fullUrl":"Observation/d3150026-a0ae-41fa-92bd-0296bac9fa76","resource":{"resourceType":"Observation","id":"d3150026-a0ae-41fa-92bd-0296bac9fa76","meta":{"profile":["http://hl7.org/fhir/us/core/StructureDefinition/us-core-head-circumference"]},"status":"final","category":[{"coding":[{"system":"http://terminology.hl7.org/CodeSystem/observation-category","code":"vital-signs","display":"Vital Signs"}]}],"code":{"coding":[{"system":"http://loinc.org","code":"9843-4"}]},"subject":{"reference":"Patient/d645acc0-e5a4-4908-88a0-f89613bd6013"},"effectiveDateTime":"2022-04-16T00:00:00+00:00","valueQuantity":{"value":8.5,"unit":"Inch","system":"http://unitsofmeasure.org","code":"[in_i]"}},"request":{"method":"POST","url":"Observation"}},{"fullUrl":"Observation/457c4a34-64bd-47d6-a62b-44008048832f","resource":{"resourceType":"Observation","id":"457c4a34-64bd-47d6-a62b-44008048832f","meta":{"profile":["http://hl7.org/fhir/us/core/StructureDefinition/us-core-body-height"]},"status":"final","category":[{"coding":[{"system":"http://terminology.hl7.org/CodeSystem/observation-category","code":"vital-signs","display":"Vital Signs"}]}],"code":{"coding":[{"system":"http://loinc.org","code":"8302-2"}]},"subject":{"reference":"Patient/d645acc0-e5a4-4908-88a0-f89613bd6013"},"effectiveDateTime":"2022-07-01T00:00:00+00:00","valueQuantity":{"value":61.9,"unit":"Inch","system":"http://unitsofmeasure.org","code":"[in_i]"}},"request":{"method":"POST","url":"Observation"}},{"fullUrl":"Observation/8ede55ce-d921-4d89-bc10-d4cd4eb9fefa","resource":{"resourceType":"Observation","id":"8ede55ce-d921-4d89-bc10-d4cd4eb9fefa","meta":{"profile":["http://hl7.org/fhir/us/core/StructureDefinition/us-core-body-weight"]},"status":"final","category":[{"coding":[{"system":"http://terminology.hl7.org/CodeSystem/observation-category","code":"vital-signs","display":"Vital Signs"}]}],"code":{"coding":[{"system":"http://loinc.org","code":"29463-7"}]},"subject":{"reference":"Patient/d645acc0-e5a4-4908-88a0-f89613bd6013"},"effectiveDateTime":"2022-08-27T00:00:00+00:00","valueQuantity":{"value":52.58,"unit":"kilogram","system":"http://unitsofmeasure.org","code":"kg"}},"request":{"method":"POST","url":"Observation"}},{"fullUrl":"Observation/c826fb28-2d3e-489c-9be2-5af555b66c79","resource":{"resourceType":"Observation","id":"c826fb28-2d3e-489c-9be2-5af555b66c79","meta":{"profile":["http://hl7.org/fhir/us/core/StructureDefinition/us-core-body-weight"]},"status":"final","category":[{"coding":[{"system":"http://terminology.hl7.org/CodeSystem/observation-category","code":"vital-signs","display":"Vital Signs"}]}],"code":{"coding":[{"system":"http://loinc.org","code":"29463-7"}]},"subject":{"reference":"Patient/d645acc0-e5a4-4908-88a0-f89613bd6013"},"effectiveDateTime":"2022-10-06T00:00:00+00:00","valueQuantity":{"value":140.29,"unit":"kilogram","system":"http://unitsofmeasure.org","code":"kg"}},"request":{"method":"POST","url":"Observation"}},{"fullUrl":"Observation/2ec6f389-c375-411c-8f64-3ba67de82aa4","resource":{"resourceType":"Observation","id":"2ec6f389-c375-411c-8f64-3ba67de82aa4","meta":{"profile":["http://hl7.org/fhir/us/core/StructureDefinition/us-core-body-temperature"]},"status":"final","category":[{"coding":[{"system":"http://terminology.hl7.org/CodeSystem/observation-category","code":"vital-signs","display":"Vital Signs"}]}],"code":{"coding":[{"system":"http://loinc.org","code":"8310-5"}]},"subject":{"reference":"Patient/d645acc0-e5a4-4908-88a0-f89613bd6013"},"effectiveDateTime":"2022-02-14T00:00:00+00:00","valueQuantity":{"value":118.82,"unit":"Degrees Fahrenheit","system":"http://unitsofmeasure.org","code":"[degF]"}},"request":{"method":"POST","url":"Observation"}},{"fullUrl":"Observation/7144dfc2-28c4-4b38-af53-cfc0d5cc4d02","resource":{"resourceType":"Observation","id":"7144dfc2-28c4-4b38-af53-cfc0d5cc4d02","meta":{"profile":["http://hl7.org/fhir/us/core/StructureDefinition/us-core-heart-rate"]},"status":"final","category":[{"coding":[{"system":"http://terminology.hl7.org/CodeSystem/observation-category","code":"vital-signs","display":"Vital Signs"}]}],"code":{"coding":[{"system":"http://loinc.org","code":"8867-4"}]},"subject":{"reference":"Patient/d645acc0-e5a4-4908-88a0-f89613bd6013"},"effectiveDateTime":"2022-03-20T00:00:00+00:00","valueQuantity":{"value":101.2,"unit":"Per Minute","system":"http://unitsofmeasure.org","code":"/min"}},"request":{"method":"POST","url":"Observation"}},{"fullUrl":"Patient/fcc69465-a750-497d-8043-5a38d3336a7c","resource":{"resourceType":"Patient","id":"fcc69465-a750-497d-8043-5a38d3336a7c","meta":{"profile":["http://hl7.org/fhir/us/core/StructureDefinition/us-core-patient"]},"extension":[{"extension":[{"url":"ombCategory","valueCoding":{"system":"http://terminology.hl7.org/CodeSystem/v3-NullFlavor","code":"ASKU","display":"asked but unknown"}},{"url":"text","valueString":"asked but unknown"}],"url":"http://hl7.org/fhir/us/core/StructureDefinition/us-core-race"},{"extension":[{"url":"ombCategory","valueCoding":{"system":"urn:oid:2.16.840.1.113883.6.238","code":"2135-2","display":"Hispanic or Latino"}},{"url":"text","valueString":"Hispanic or Latino"}],"url":"http://hl7.org/fhir/us/core/StructureDefinition/us-core-ethnicity"}],"identifier":[{"type":{"coding":[{"system":"http://terminology.hl7.org/CodeSystem/v2-0203","code":"MR"}]},"system":"urn:fhirgen:mrn","value":"305-61-3585"},{"system":"http://hl7.org/fhir/sid/us-ssn","value":"690-86-2256"}],"name":[{"use":"official","family":"Hunter","given":["Joseph"]},{"use":"maiden","family":"Hill"}],"telecom":[{"system":"phone","value":"+1-282-922-8163x128","use":"home"},{"system":"email","value":"ericaestes@gmail.com","use":"home"}],"gender":"male","birthDate":"1976-10-06","address":[{"use":"home","line":["173 Chandler Mall"],"city":"Huangmouth","state":"KY","postalCode":"86247"},{"use":"old","line":["08961 Fletcher Pass"],"city":"Georgeborough","state":"MN","postalCode":"63187"}],"maritalStatus":{"coding":[{"system":"http://terminology.hl7.org/CodeSystem/v3-MaritalStatus","code":"W","display":"Widowed"}]}},"request":{"method":"POST","url":"Patient"}},{"fullUrl":"Observation/0c6731df-355e-4beb-880b-71d6c409a02d","resource":{"resourceType":"Observation","id":"0c6731df-355e-4beb-880b-71d6c409a02d","meta":{"profile":["http://hl7.org/fhir/us/core/StructureDefinition/us-core-observation-lab"]},"status":"final","category":[{"coding":[{"system":"http://terminology.hl7.org/CodeSystem/observation-category","code":"laboratory","display":"Laboratory"}]}],"code":{"coding":[{"system":"http://loinc.org","code":"50690-7"}]},"subject":{"reference":"Patient/fcc69465-a750-497d-8043-5a38d3336a7c"},"effectiveDateTime":"2022-08-15T00:00:00+00:00","valueRatio":{"numerator":{"value":1},"denominator":{"value":4}}},"request":{"method":"POST","url":"Observation"}},{"fullUrl":"Observation/cc399dae-cf50-4dc2-8f24-546ffde83f31","resource":{"resourceType":"Observation","id":"cc399dae-cf50-4dc2-8f24-546ffde83f31","meta":{"profile":["http://hl7.org/fhir/us/core/StructureDefinition/us-core-observation-lab"]},"status":"final","category":[{"coding":[{"system":"http://terminology.hl7.org/CodeSystem/observation-category","code":"laboratory","display":"Laboratory"}]}],"code":{"coding":[{"system":"http://loinc.org","code":"47476-7"}]},"subject":{"reference":"Patient/fcc69465-a750-497d-8043-5a38d3336a7c"},"effectiveDateTime":"2022-08-30T00:00:00+00:00","valueRatio":{"numerator":{"value":1},"denominator":{"value":32}}},"request":{"method":"POST","url":"Observation"}},{"fullUrl":"Observation/4dbb3777-de4b-4b64-8dc8-f2e91a0019af","resource":{"resourceType":"Observation","id":"4dbb3777-de4b-4b64-8dc8-f2e91a0019af","meta":{"profile":["http://hl7.org/fhir/us/core/StructureDefinition/us-core-observation-lab"]},"status":"final","category":[{"coding":[{"system":"http://terminology.hl7.org/CodeSystem/observation-category","code":"laboratory","display":"Laboratory"}]}],"code":{"coding":[{"system":"http://loinc.org","code":"11084-1"}]},"subject":{"reference":"Patient/fcc69465-a750-497d-8043-5a38d3336a7c"},"effectiveDateTime":"2022-04-06T00:00:00+00:00","valueRatio":{"numerator":{"value":1},"denominator":{"value":4}}},"request":{"method":"POST","url":"Observation"}},{"fullUrl":"Condition/44e6137b-bdd9-4fb6-856d-edbb65885320","resource":{"resourceType":"Condition","id":"44e6137b-bdd9-4fb6-856d-edbb65885320","meta":{"profile":["http://hl7.org/fhir/us/core/StructureDefinition/us-core-condition"]},"clinicalStatus":{"coding":[{"system":"http://terminology.hl7.org/CodeSystem/condition-clinical","code":"active","display":"Active"}]},"category":[{"coding":[{"system":"http://terminology.hl7.org/CodeSystem/condition-category","code":"problem-list-item"}]}],"code":{"coding":[{"system":"http://snomed.info/sct","code":"418290006"}]},"subject":{"reference":"Patient/fcc69465-a750-497d-8043-5a38d3336a7c"},"onsetDateTime":"2022-01-04T00:00:00+00:00"},"request":{"method":"POST","url":"Condition"}},{"fullUrl":"Condition/91a182d0-80b8-4aa9-9d1e-b40f273d7b10","resource":{"resourceType":"Condition","id":"91a182d0-80b8-4aa9-9d1e-b40f273d7b10","meta":{"profile":["http://hl7.org/fhir/us/core/StructureDefinition/us-core-condition"]},"clinicalStatus":{"coding":[{"system":"http://terminology.hl7.org/CodeSystem/condition-clinical","code":"active","display":"Active"}]},"category":[{"coding":[{"system":"http://terminology.hl7.org/CodeSystem/condition-category","code":"problem-list-item"}]}],"code":{"coding":[{"system":"http://snomed.info/sct","code":"709977002"}]},"subject":{"reference":"Patient/fcc69465-a750-497d-8043-5a38d3336a7c"},"onsetDateTime":"2022-01-14T00:00:00+00:00"},"request":{"method":"POST","url":"Condition"}},{"fullUrl":"Condition/28613237-209b-4e91-adb2-5c996cd07948","resource":{"resourceType":"Condition","id":"28613237-209b-4e91-adb2-5c996cd07948","meta":{"profile":["http://hl7.org/fhir/us/core/StructureDefinition/us-core-condition"]},"clinicalStatus":{"coding":[{"system":"http://terminology.hl7.org/CodeSystem/condition-clinical","code":"active","display":"Active"}]},"category":[{"coding":[{"system":"http://terminology.hl7.org/CodeSystem/condition-category","code":"problem-list-item"}]}],"code":{"coding":[{"system":"http://snomed.info/sct","code":"44882003"}]},"subject":{"reference":"Patient/fcc69465-a750-497d-8043-5a38d3336a7c"},"onsetDateTime":"2022-07-01T00:00:00+00:00"},"request":{"method":"POST","url":"Condition"}},{"fullUrl":"Condition/5782ebbf-0139-4b8b-add1-593ee2778978","resource":{"resourceType":"Condition","id":"5782ebbf-0139-4b8b-add1-593ee2778978","meta":{"profile":["http://hl7.org/fhir/us/core/StructureDefinition/us-core-condition"]},"clinicalStatus":{"coding":[{"system":"http://terminology.hl7.org/CodeSystem/condition-clinical","code":"active","display":"Active"}]},"category":[{"coding":[{"system":"http://terminology.hl7.org/CodeSystem/condition-category","code":"problem-list-item"}]}],"code":{"coding":[{"system":"http://snomed.info/sct","code":"44882003"}]},"subject":{"reference":"Patient/fcc69465-a750-497d-8043-5a38d3336a7c"},"onsetDateTime":"2022-04-12T00:00:00+00:00"},"request":{"method":"POST","url":"Condition"}},{"fullUrl":"Observation/9f821889-cbb2-4513-b2c5-5b598e00b555","resource":{"resourceType":"Observation","id":"9f821889-cbb2-4513-b2c5-5b598e00b555","meta":{"profile":["http://hl7.org/fhir/us/core/StructureDefinition/us-core-observation-lab"]},"status":"final","category":[{"coding":[{"system":"http://terminology.hl7.org/CodeSystem/observation-category","code":"laboratory","display":"Laboratory"}]}],"code":{"coding":[{"system":"http://loinc.org","code":"26464-8"}]},"subject":{"reference":"Patient/fcc69465-a750-497d-8043-5a38d3336a7c"},"effectiveDateTime":"2022-01-07T00:00:00+00:00","valueQuantity":{"value":7.6}},"request":{"method":"POST","url":"Observation"}},{"fullUrl":"Observation/594b10dd-ca02-47af-a9bf-f05581e20259","resource":{"resourceType":"Observation","id":"594b10dd-ca02-47af-a9bf-f05581e20259","meta":{"profile":["http://hl7.org/fhir/us/core/StructureDefinition/us-core-observation-lab"]},"status":"final","category":[{"coding":[{"system":"http://terminology.hl7.org/CodeSystem/observation-category","code":"laboratory","display":"Laboratory"}]}],"code":{"coding":[{"system":"http://loinc.org","code":"26464-8"}]},"subject":{"reference":"Patient/fcc69465-a750-497d-8043-5a38d3336a7c"},"effectiveDateTime":"2022-06-07T00:00:00+00:00","valueQuantity":{"value":7.5}},"request":{"method":"POST","url":"Observation"}},{"fullUrl":"Observation/2cf20187-89b8-4ef3-820f-06d07eeda59b","resource":{"resourceType":"Observation","id":"2cf20187-89b8-4ef3-820f-06d07eeda59b","meta":{"profile":["http://hl7.org/fhir/us/core/StructureDefinition/us-core-observation-lab"]},"status":"final","category":[{"coding":[{"system":"http://terminology.hl7.org/CodeSystem/observation-category","code":"laboratory","display":"Laboratory"}]}],"code":{"coding":[{"system":"http://loinc.org","code":"6690-2"}]},"subject":{"reference":"Patient/fcc69465-a750-497d-8043-5a38d3336a7c"},"effectiveDateTime":"2022-08-02T00:00:00+00:00","valueQuantity":{"value":5.5}},"request":{"method":"POST","url":"Observation"}},{"fullUrl":"Observation/c37bcfab-fbd9-433a-b5ca-db4448704e1e","resource":{"resourceType":"Observation","id":"c37bcfab-fbd9-433a-b5ca-db4448704e1e","meta":{"profile":["http://hl7.org/fhir/us/core/StructureDefinition/us-core-bmi"]},"status":"final","category":[{"coding":[{"system":"http://terminology.hl7.org/CodeSystem/observation-category","code":"vital-signs","display":"Vital Signs"}]}],"code":{"coding":[{"system":"http://loinc.org","code":"39156-5"}]},"subject":{"reference":"Patient/fcc69465-a750-497d-8043-5a38d3336a7c"},"effectiveDateTime":"2022-01-20T00:00:00+00:00","valueQuantity":{"value":16.8,"unit":"kg/m2","system":"http://unitsofmeasure.org","code":"kg/m2"}},"request":{"method":"POST","url":"Observation"}},{"fullUrl":"Observation/7f22b8ff-1c98-4ad9-b349-cc254c32d8fd","resource":{"resourceType":"Observation","id":"7f22b8ff-1c98-4ad9-b349-cc254c32d8fd","meta":{"profile":["http://hl7.org/fhir/us/core/StructureDefinition/us-core-bmi"]},"status":"final","category":[{"coding":[{"system":"http://terminology.hl7.org/CodeSystem/observation-category","code":"vital-signs","display":"Vital Signs"}]}],"code":{"coding":[{"system":"http://loinc.org","code":"39156-5"}]},"subject":{"reference":"Patient/fcc69465-a750-497d-8043-5a38d3336a7c"},"effectiveDateTime":"2022-09-03T00:00:00+00:00","valueQuantity":{"value":24.06,"unit":"kg/m2","system":"http://unitsofmeasure.org","code":"kg/m2"}},"request":{"method":"POST","url":"Observation"}},{"fullUrl":"Observation/eb279ef4-0048-402f-8276-c421841ae35b","resource":{"resourceType":"Observation","id":"eb279ef4-0048-402f-8276-c421841ae35b","meta":{"profile":["http://hl7.org/fhir/us/core/StructureDefinition/us-core-head-circumference"]},"status":"final","category":[{"coding":[{"system":"http://terminology.hl7.org/CodeSystem/observation-category","code":"vital-signs","display":"Vital Signs"}]}],"code":{"coding":[{"system":"http://loinc.org","code":"9843-4"}]},"subject":{"reference":"Patient/fcc69465-a750-497d-8043-5a38d3336a7c"},"effectiveDateTime":"2022-01-17T00:00:00+00:00","valueQuantity":{"value":9.1,"unit":"Inch","system":"http://unitsofmeasure.org","code":"[in_i]"}},"request":{"method":"POST","url":"Observation"}},{"fullUrl":"Observation/9ab31263-ce7d-4df9-8d74-79860b6946d4","resource":{"resourceType":"Observation","id":"9ab31263-ce7d-4df9-8d74-79860b6946d4","meta":{"profile":["http://hl7.org/fhir/us/core/StructureDefinition/us-core-body-height"]},"status":"final","category":[{"coding":[{"system":"http://terminology.hl7.org/CodeSystem/observation-category","code":"vital-signs","display":"Vital Signs"}]}],"code":{"coding":[{"system":"http://loinc.org","code":"8302-2"}]},"subject":{"reference":"Patient/fcc69465-a750-497d-8043-5a38d3336a7c"},"effectiveDateTime":"2022-11-23T00:00:00+00:00","valueQuantity":{"value":61.3,"unit":"Inch","system":"http://unitsofmeasure.org","code":"[in_i]"}},"request":{"method":"POST","url":"Observation"}},{"fullUrl":"Observation/ff840105-db35-4244-afc7-cac9f96b4b62","resource":{"resourceType":"Observation","id":"ff840105-db35-4244-afc7-cac9f96b4b62","meta":{"profile":["http://hl7.org/fhir/us/core/StructureDefinition/us-core-body-height"]},"status":"final","category":[{"coding":[{"system":"http://terminology.hl7.org/CodeSystem/observation-category","code":"vital-signs","display":"Vital Signs"}]}],"code":{"coding":[{"system":"http://loinc.org","code":"8302-2"}]},"subject":{"reference":"Patient/fcc69465-a750-497d-8043-5a38d3336a7c"},"effectiveDateTime":"2022-04-10T00:00:00+00:00","valueQuantity":{"value":64.6,"unit":"Inch","system":"http://unitsofmeasure.org","code":"[in_i]"}},"request":{"method":"POST","url":"Observation"}},{"fullUrl":"Observation/34080dff-483d-4144-aa97-685e206d7b40","resource":{"resourceType":"Observation","id":"34080dff-483d-4144-aa97-685e206d7b40","meta":{"profile":["http://hl7.org/fhir/us/core/StructureDefinition/us-core-body-weight"]},"status":"final","category":[{"coding":[{"system":"http://terminology.hl7.org/CodeSystem/observation-category","code":"vital-signs","display":"Vital Signs"}]}],"code":{"coding":[{"system":"http://loinc.org","code":"29463-7"}]},"subject":{"reference":"Patient/fcc69465-a750-497d-8043-5a38d3336a7c"},"effectiveDateTime":"2022-03-07T00:00:00+00:00","valueQuantity":{"value":59.45,"unit":"kilogram","system":"http://unitsofmeasure.org","code":"kg"}},"request":{"method":"POST","url":"Observation"}},{"fullUrl":"Observation/bee97b08-c95b-453b-b91a-49a223e137eb","resource":{"resourceType":"Observation","id":"bee97b08-c95b-453b-b91a-49a223e137eb","meta":{"profile":["http://hl7.org/fhir/us/core/StructureDefinition/us-core-body-weight"]},"status":"final","category":[{"coding":[{"system":"http://terminology.hl7.org/CodeSystem/observation-category","code":"vital-signs","display":"Vital Signs"}]}],"code":{"coding":[{"system":"http://loinc.org","code":"29463-7"}]},"subject":{"reference":"Patient/fcc69465-a750-497d-8043-5a38d3336a7c"},"effectiveDateTime":"2022-09-01T00:00:00+00:00","valueQuantity":{"value":31.84,"unit":"kilogram","system":"http://unitsofmeasure.org","code":"kg"}},"request":{"method":"POST","url":"Observation"}},{"fullUrl":"Observation/ccf8055f-2f17-4d06-bb28-40bf28ec0bfb","resource":{"resourceType":"Observation","id":"ccf8055f-2f17-4d06-bb28-40bf28ec0bfb","meta":{"profile":["http://hl7.org/fhir/us/core/StructureDefinition/us-core-body-temperature"]},"status":"final","category":[{"coding":[{"system":"http://terminology.hl7.org/CodeSystem/observation-category","code":"vital-signs","display":"Vital Signs"}]}],"code":{"coding":[{"system":"http://loinc.org","code":"8310-5"}]},"subject":{"reference":"Patient/fcc69465-a750-497d-8043-5a38d3336a7c"},"effectiveDateTime":"2022-05-31T00:00:00+00:00","valueQuantity":{"value":65,"unit":"Degrees Fahrenheit","system":"http://unitsofmeasure.org","code":"[degF]"}},"request":{"method":"POST","url":"Observation"}},{"fullUrl":"Observation/3a90a795-b1d6-4eed-ad2f-263b3b6e1c8e","resource":{"resourceType":"Observation","id":"3a90a795-b1d6-4eed-ad2f-263b3b6e1c8e","meta":{"profile":["http://hl7.org/fhir/us/core/StructureDefinition/us-core-body-temperature"]},"status":"final","category":[{"coding":[{"system":"http://terminology.hl7.org/CodeSystem/observation-category","code":"vital-signs","display":"Vital Signs"}]}],"code":{"coding":[{"system":"http://loinc.org","code":"8310-5"}]},"subject":{"reference":"Patient/fcc69465-a750-497d-8043-5a38d3336a7c"},"effectiveDateTime":"2022-07-04T00:00:00+00:00","valueQuantity":{"value":45.3,"unit":"Degrees Fahrenheit","system":"http://unitsofmeasure.org","code":"[degF]"}},"request":{"method":"POST","url":"Observation"}},{"fullUrl":"Observation/58dfa2e7-3740-46e1-91c7-bb849a841758","resource":{"resourceType":"Observation","id":"58dfa2e7-3740-46e1-91c7-bb849a841758","meta":{"profile":["http://hl7.org/fhir/us/core/StructureDefinition/us-core-heart-rate"]},"status":"final","category":[{"coding":[{"system":"http://terminology.hl7.org/CodeSystem/observation-category","code":"vital-signs","display":"Vital Signs"}]}],"code":{"coding":[{"system":"http://loinc.org","code":"8867-4"}]},"subject":{"reference":"Patient/fcc69465-a750-497d-8043-5a38d3336a7c"},"effectiveDateTime":"2022-07-04T00:00:00+00:00","valueQuantity":{"value":95.6,"unit":"Per Minute","system":"http://unitsofmeasure.org","code":"/min"}},"request":{"method":"POST","url":"Observation"}},{"fullUrl":"Patient/f6d048f7-0c6e-45aa-95e6-1f2dda6a5422","resource":{"resourceType":"Patient","id":"f6d048f7-0c6e-45aa-95e6-1f2dda6a5422","meta":{"profile":["http://hl7.org/fhir/us/core/StructureDefinition/us-core-patient"]},"extension":[{"extension":[{"url":"ombCategory","valueCoding":{"system":"urn:oid:2.16.840.1.113883.6.238","code":"2054-5","display":"Black or African American"}},{"url":"text","valueString":"Black or African American"}],"url":"http://hl7.org/fhir/us/core/StructureDefinition/us-core-race"},{"extension":[{"url":"ombCategory","valueCoding":{"system":"urn:oid:2.16.840.1.113883.6.238","code":"2186-5","display":"Not Hispanic or Latino"}},{"url":"text","valueString":"Not Hispanic or Latino"}],"url":"http://hl7.org/fhir/us/core/StructureDefinition/us-core-ethnicity"}],"identifier":[{"type":{"coding":[{"system":"http://terminology.hl7.org/CodeSystem/v2-0203","code":"MR"}]},"system":"urn:fhirgen:mrn","value":"017-32-6869"},{"system":"http://hl7.org/fhir/sid/us-ssn","value":"279-71-6719"}],"name":[{"use":"official","family":"Farrell","given":["Meghan"]},{"use":"maiden","family":"Guerra"}],"telecom":[{"system":"phone","value":"001-956-934-1996x990","use":"home"},{"system":"email","value":"gramirez@gmail.com","use":"mobile"}],"gender":"female","birthDate":"1989-05-25","address":[{"use":"home","line":["2883 Kathryn Island"],"city":"New Christinaborough","state":"MI","postalCode":"17651"},{"use":"old","line":["4731 Anne Turnpike"],"city":"Lake Amanda","state":"AL","postalCode":"86791"}],"maritalStatus":{"coding":[{"system":"http://terminology.hl7.org/CodeSystem/v3-MaritalStatus","code":"L","display":"Legally Separated"}]}},"request":{"method":"POST","url":"Patient"}},{"fullUrl":"Observation/11250b0e-cc48-49af-abd6-6688322b4f6e","resource":{"resourceType":"Observation","id":"11250b0e-cc48-49af-abd6-6688322b4f6e","meta":{"profile":["http://hl7.org/fhir/us/core/StructureDefinition/us-core-observation-lab"]},"status":"final","category":[{"coding":[{"system":"http://terminology.hl7.org/CodeSystem/observation-category","code":"laboratory","display":"Laboratory"}]}],"code":{"coding":[{"system":"http://loinc.org","code":"34382-2"}]},"subject":{"reference":"Patient/f6d048f7-0c6e-45aa-95e6-1f2dda6a5422"},"effectiveDateTime":"2022-07-08T00:00:00+00:00","valueRatio":{"numerator":{"value":1},"denominator":{"value":4}}},"request":{"method":"POST","url":"Observation"}},{"fullUrl":"Observation/d132f96e-9a42-426e-b8ba-2a20f7731acd","resource":{"resourceType":"Observation","id":"d132f96e-9a42-426e-b8ba-2a20f7731acd","meta":{"profile":["http://hl7.org/fhir/us/core/StructureDefinition/us-core-observation-lab"]},"status":"final","category":[{"coding":[{"system":"http://terminology.hl7.org/CodeSystem/observation-category","code":"laboratory","display":"Laboratory"}]}],"code":{"coding":[{"system":"http://loinc.org","code":"50695-6"}]},"subject":{"reference":"Patient/f6d048f7-0c6e-45aa-95e6-1f2dda6a5422"},"effectiveDateTime":"2022-02-08T00:00:00+00:00","valueRatio":{"numerator":{"value":1},"denominator":{"value":4}}},"request":{"method":"POST","url":"Observation"}},{"fullUrl":"Condition/7f92ea08-f4cf-489b-b7dc-ad9df3c2490a","resource":{"resourceType":"Condition","id":"7f92ea08-f4cf-489b-b7dc-ad9df3c2490a","meta":{"profile":["http://hl7.org/fhir/us/core/StructureDefinition/us-core-condition"]},"clinicalStatus":{"coding":[{"system":"http://terminology.hl7.org/CodeSystem/condition-clinical","code":"active","display":"Active"}]},"category":[{"coding":[{"system":"http://terminology.hl7.org/CodeSystem/condition-category","code":"problem-list-item"}]}],"code":{"coding":[{"system":"http://snomed.info/sct","code":"44882003"}]},"subject":{"reference":"Patient/f6d048f7-0c6e-45aa-95e6-1f2dda6a5422"},"onsetDateTime":"2022-03-12T00:00:00+00:00"},"request":{"method":"POST","url":"Condition"}},{"fullUrl":"Condition/70183105-0fc6-42e5-971c-aa28450e9d4d","resource":{"resourceType":"Condition","id":"70183105-0fc6-42e5-971c-aa28450e9d4d","meta":{"profile":["http://hl7.org/fhir/us/core/StructureDefinition/us-core-condition"]},"clinicalStatus":{"coding":[{"system":"http://terminology.hl7.org/CodeSystem/condition-clinical","code":"active","display":"Active"}]},"category":[{"coding":[{"system":"http://terminology.hl7.org/CodeSystem/condition-category","code":"problem-list-item"}]}],"code":{"coding":[{"system":"http://snomed.info/sct","code":"44882003"}]},"subject":{"reference":"Patient/f6d048f7-0c6e-45aa-95e6-1f2dda6a5422"},"onsetDateTime":"2022-06-19T00:00:00+00:00"},"request":{"method":"POST","url":"Condition"}},{"fullUrl":"Condition/96977440-c2bc-4047-8c4b-79f647fe8794","resource":{"resourceType":"Condition","id":"96977440-c2bc-4047-8c4b-79f647fe8794","meta":{"profile":["http://hl7.org/fhir/us/core/StructureDefinition/us-core-condition"]},"clinicalStatus":{"coding":[{"system":"http://terminology.hl7.org/CodeSystem/condition-clinical","code":"active","display":"Active"}]},"category":[{"coding":[{"system":"http://terminology.hl7.org/CodeSystem/condition-category","code":"problem-list-item"}]}],"code":{"coding":[{"system":"http://snomed.info/sct","code":"709977002"}]},"subject":{"reference":"Patient/f6d048f7-0c6e-45aa-95e6-1f2dda6a5422"},"onsetDateTime":"2022-01-29T00:00:00+00:00"},"request":{"method":"POST","url":"Condition"}},{"fullUrl":"Condition/9807a0f4-2035-4ef9-a161-a6d352184213","resource":{"resourceType":"Condition","id":"9807a0f4-2035-4ef9-a161-a6d352184213","meta":{"profile":["http://hl7.org/fhir/us/core/StructureDefinition/us-core-condition"]},"clinicalStatus":{"coding":[{"system":"http://terminology.hl7.org/CodeSystem/condition-clinical","code":"active","display":"Active"}]},"category":[{"coding":[{"system":"http://terminology.hl7.org/CodeSystem/condition-category","code":"problem-list-item"}]}],"code":{"coding":[{"system":"http://snomed.info/sct","code":"709977002"}]},"subject":{"reference":"Patient/f6d048f7-0c6e-45aa-95e6-1f2dda6a5422"},"onsetDateTime":"2022-08-08T00:00:00+00:00"},"request":{"method":"POST","url":"Condition"}},{"fullUrl":"Condition/8e5fb909-b8c6-4633-8a22-103238fb50bf","resource":{"resourceType":"Condition","id":"8e5fb909-b8c6-4633-8a22-103238fb50bf","meta":{"profile":["http://hl7.org/fhir/us/core/StructureDefinition/us-core-condition"]},"clinicalStatus":{"coding":[{"system":"http://terminology.hl7.org/CodeSystem/condition-clinical","code":"active","display":"Active"}]},"category":[{"coding":[{"system":"http://terminology.hl7.org/CodeSystem/condition-category","code":"problem-list-item"}]}],"code":{"coding":[{"system":"http://snomed.info/sct","code":"44882003"}]},"subject":{"reference":"Patient/f6d048f7-0c6e-45aa-95e6-1f2dda6a5422"},"onsetDateTime":"2022-10-07T00:00:00+00:00"},"request":{"method":"POST","url":"Condition"}},{"fullUrl":"Observation/bb6c936c-57c0-4ba7-a20f-6eba0ce86eb6","resource":{"resourceType":"Observation","id":"bb6c936c-57c0-4ba7-a20f-6eba0ce86eb6","meta":{"profile":["http://hl7.org/fhir/us/core/StructureDefinition/us-core-observation-lab"]},"status":"final","category":[{"coding":[{"system":"http://terminology.hl7.org/CodeSystem/observation-category","code":"laboratory","display":"Laboratory"}]}],"code":{"coding":[{"system":"http://loinc.org","code":"49498-9"}]},"subject":{"reference":"Patient/f6d048f7-0c6e-45aa-95e6-1f2dda6a5422"},"effectiveDateTime":"2022-05-13T00:00:00+00:00","valueQuantity":{"value":5.5}},"request":{"method":"POST","url":"Observation"}},{"fullUrl":"Observation/5daae65e-b396-4f60-90b2-67fceb70e8c3","resource":{"resourceType":"Observation","id":"5daae65e-b396-4f60-90b2-67fceb70e8c3","meta":{"profile":["http://hl7.org/fhir/us/core/StructureDefinition/us-core-observation-lab"]},"status":"final","category":[{"coding":[{"system":"http://terminology.hl7.org/CodeSystem/observation-category","code":"laboratory","display":"Laboratory"}]}],"code":{"coding":[{"system":"http://loinc.org","code":"49498-9"}]},"subject":{"reference":"Patient/f6d048f7-0c6e-45aa-95e6-1f2dda6a5422"},"effectiveDateTime":"2022-12-05T00:00:00+00:00","valueQuantity":{"value":8.2}},"request":{"method":"POST","url":"Observation"}},{"fullUrl":"Observation/db4a5984-3234-4445-96e6-23c4de5af7b6","resource":{"resourceType":"Observation","id":"db4a5984-3234-4445-96e6-23c4de5af7b6","meta":{"profile":["http://hl7.org/fhir/us/core/StructureDefinition/us-core-observation-lab"]},"status":"final","category":[{"coding":[{"system":"http://terminology.hl7.org/CodeSystem/observation-category","code":"laboratory","display":"Laboratory"}]}],"code":{"coding":[{"system":"http://loinc.org","code":"6690-2"}]},"subject":{"reference":"Patient/f6d048f7-0c6e-45aa-95e6-1f2dda6a5422"},"effectiveDateTime":"2022-08-12T00:00:00+00:00","valueQuantity":{"value":4.4}},"request":{"method":"POST","url":"Observation"}},{"fullUrl":"Observation/5bc15d82-a4eb-45c3-8751-e97f4f25fa6b","resource":{"resourceType":"Observation","id":"5bc15d82-a4eb-45c3-8751-e97f4f25fa6b","meta":{"profile":["http://hl7.org/fhir/us/core/StructureDefinition/us-core-bmi"]},"status":"final","category":[{"coding":[{"system":"http://terminology.hl7.org/CodeSystem/observation-category","code":"vital-signs","display":"Vital Signs"}]}],"code":{"coding":[{"system":"http://loinc.org","code":"39156-5"}]},"subject":{"reference":"Patient/f6d048f7-0c6e-45aa-95e6-1f2dda6a5422"},"effectiveDateTime":"2022-11-09T00:00:00+00:00","valueQuantity":{"value":16.41,"unit":"kg/m2","system":"http://unitsofmeasure.org","code":"kg/m2"}},"request":{"method":"POST","url":"Observation"}},{"fullUrl":"Observation/c1cab9a9-2583-4add-90d4-fbcadaff83aa","resource":{"resourceType":"Observation","id":"c1cab9a9-2583-4add-90d4-fbcadaff83aa","meta":{"profile":["http://hl7.org/fhir/us/core/StructureDefinition/us-core-bmi"]},"status":"final","category":[{"coding":[{"system":"http://terminology.hl7.org/CodeSystem/observation-category","code":"vital-signs","display":"Vital Signs"}]}],"code":{"coding":[{"system":"http://loinc.org","code":"39156-5"}]},"subject":{"reference":"Patient/f6d048f7-0c6e-45aa-95e6-1f2dda6a5422"},"effectiveDateTime":"2022-05-01T00:00:00+00:00","valueQuantity":{"value":19.26,"unit":"kg/m2","system":"http://unitsofmeasure.org","code":"kg/m2"}},"request":{"method":"POST","url":"Observation"}},{"fullUrl":"Observation/dd901add-649c-4161-b9ec-6ca277310198","resource":{"resourceType":"Observation","id":"dd901add-649c-4161-b9ec-6ca277310198","meta":{"profile":["http://hl7.org/fhir/us/core/StructureDefinition/us-core-head-circumference"]},"status":"final","category":[{"coding":[{"system":"http://terminology.hl7.org/CodeSystem/observation-category","code":"vital-signs","display":"Vital Signs"}]}],"code":{"coding":[{"system":"http://loinc.org","code":"9843-4"}]},"subject":{"reference":"Patient/f6d048f7-0c6e-45aa-95e6-1f2dda6a5422"},"effectiveDateTime":"2022-04-24T00:00:00+00:00","valueQuantity":{"value":6,"unit":"Inch","system":"http://unitsofmeasure.org","code":"[in_i]"}},"request":{"method":"POST","url":"Observation"}},{"fullUrl":"Observation/32d16072-158c-43de-878f-a774e6a6dd16","resource":{"resourceType":"Observation","id":"32d16072-158c-43de-878f-a774e6a6dd16","meta":{"profile":["http://hl7.org/fhir/us/core/StructureDefinition/us-core-head-circumference"]},"status":"final","category":[{"coding":[{"system":"http://terminology.hl7.org/CodeSystem/observation-category","code":"vital-signs","display":"Vital Signs"}]}],"code":{"coding":[{"system":"http://loinc.org","code":"9843-4"}]},"subject":{"reference":"Patient/f6d048f7-0c6e-45aa-95e6-1f2dda6a5422"},"effectiveDateTime":"2022-03-21T00:00:00+00:00","valueQuantity":{"value":4,"unit":"Inch","system":"http://unitsofmeasure.org","code":"[in_i]"}},"request":{"method":"POST","url":"Observation"}},{"fullUrl":"Observation/5fb8ef3e-1966-4723-b25b-a2405ac707d3","resource":{"resourceType":"Observation","id":"5fb8ef3e-1966-4723-b25b-a2405ac707d3","meta":{"profile":["http://hl7.org/fhir/us/core/StructureDefinition/us-core-body-height"]},"status":"final","category":[{"coding":[{"system":"http://terminology.hl7.org/CodeSystem/observation-category","code":"vital-signs","display":"Vital Signs"}]}],"code":{"coding":[{"system":"http://loinc.org","code":"8302-2"}]},"subject":{"reference":"Patient/f6d048f7-0c6e-45aa-95e6-1f2dda6a5422"},"effectiveDateTime":"2022-02-05T00:00:00+00:00","valueQuantity":{"value":80.3,"unit":"Inch","system":"http://unitsofmeasure.org","code":"[in_i]"}},"request":{"method":"POST","url":"Observation"}},{"fullUrl":"Observation/d08c586b-1042-4a97-9b7c-29d5b6d558ff","resource":{"resourceType":"Observation","id":"d08c586b-1042-4a97-9b7c-29d5b6d558ff","meta":{"profile":["http://hl7.org/fhir/us/core/StructureDefinition/us-core-body-height"]},"status":"final","category":[{"coding":[{"system":"http://terminology.hl7.org/CodeSystem/observation-category","code":"vital-signs","display":"Vital Signs"}]}],"code":{"coding":[{"system":"http://loinc.org","code":"8302-2"}]},"subject":{"reference":"Patient/f6d048f7-0c6e-45aa-95e6-1f2dda6a5422"},"effectiveDateTime":"2022-02-01T00:00:00+00:00","valueQuantity":{"value":78.5,"unit":"Inch","system":"http://unitsofmeasure.org","code":"[in_i]"}},"request":{"method":"POST","url":"Observation"}},{"fullUrl":"Observation/3f6d4370-9429-49b4-9121-3991e6385e7b","resource":{"resourceType":"Observation","id":"3f6d4370-9429-49b4-9121-3991e6385e7b","meta":{"profile":["http://hl7.org/fhir/us/core/StructureDefinition/us-core-body-weight"]},"status":"final","category":[{"coding":[{"system":"http://terminology.hl7.org/CodeSystem/observation-category","code":"vital-signs","display":"Vital Signs"}]}],"code":{"coding":[{"system":"http://loinc.org","code":"29463-7"}]},"subject":{"reference":"Patient/f6d048f7-0c6e-45aa-95e6-1f2dda6a5422"},"effectiveDateTime":"2022-10-06T00:00:00+00:00","valueQuantity":{"value":132.87,"unit":"kilogram","system":"http://unitsofmeasure.org","code":"kg"}},"request":{"method":"POST","url":"Observation"}},{"fullUrl":"Observation/c0363faf-6609-4cfc-9ab8-33760ba770f4","resource":{"resourceType":"Observation","id":"c0363faf-6609-4cfc-9ab8-33760ba770f4","meta":{"profile":["http://hl7.org/fhir/us/core/StructureDefinition/us-core-body-temperature"]},"status":"final","category":[{"coding":[{"system":"http://terminology.hl7.org/CodeSystem/observation-category","code":"vital-signs","display":"Vital Signs"}]}],"code":{"coding":[{"system":"http://loinc.org","code":"8310-5"}]},"subject":{"reference":"Patient/f6d048f7-0c6e-45aa-95e6-1f2dda6a5422"},"effectiveDateTime":"2022-08-28T00:00:00+00:00","valueQuantity":{"value":57.65,"unit":"Degrees Fahrenheit","system":"http://unitsofmeasure.org","code":"[degF]"}},"request":{"method":"POST","url":"Observation"}},{"fullUrl":"Observation/5a259a3a-b27e-4c55-a829-836836da7872","resource":{"resourceType":"Observation","id":"5a259a3a-b27e-4c55-a829-836836da7872","meta":{"profile":["http://hl7.org/fhir/us/core/StructureDefinition/us-core-body-temperature"]},"status":"final","category":[{"coding":[{"system":"http://terminology.hl7.org/CodeSystem/observation-category","code":"vital-signs","display":"Vital Signs"}]}],"code":{"coding":[{"system":"http://loinc.org","code":"8310-5"}]},"subject":{"reference":"Patient/f6d048f7-0c6e-45aa-95e6-1f2dda6a5422"},"effectiveDateTime":"2022-04-28T00:00:00+00:00","valueQuantity":{"value":26.23,"unit":"Degrees Fahrenheit","system":"http://unitsofmeasure.org","code":"[degF]"}},"request":{"method":"POST","url":"Observation"}},{"fullUrl":"Observation/b3fdfe73-c5f5-4555-83ba-86a4973cf3f1","resource":{"resourceType":"Observation","id":"b3fdfe73-c5f5-4555-83ba-86a4973cf3f1","meta":{"profile":["http://hl7.org/fhir/us/core/StructureDefinition/us-core-heart-rate"]},"status":"final","category":[{"coding":[{"system":"http://terminology.hl7.org/CodeSystem/observation-category","code":"vital-signs","display":"Vital Signs"}]}],"code":{"coding":[{"system":"http://loinc.org","code":"8867-4"}]},"subject":{"reference":"Patient/f6d048f7-0c6e-45aa-95e6-1f2dda6a5422"},"effectiveDateTime":"2022-12-10T00:00:00+00:00","valueQuantity":{"value":95.7,"unit":"Per Minute","system":"http://unitsofmeasure.org","code":"/min"}},"request":{"method":"POST","url":"Observation"}},{"fullUrl":"Patient/9e263dc9-0d0e-4d81-b498-e846231249b0","resource":{"resourceType":"Patient","id":"9e263dc9-0d0e-4d81-b498-e846231249b0","meta":{"profile":["http://hl7.org/fhir/us/core/StructureDefinition/us-core-patient"]},"extension":[{"extension":[{"url":"ombCategory","valueCoding":{"system":"urn:oid:2.16.840.1.113883.6.238","code":"2076-8","display":"Native Hawaiian or Other Pacific Islander"}},{"url":"text","valueString":"Native Hawaiian or Other Pacific Islander"}],"url":"http://hl7.org/fhir/us/core/StructureDefinition/us-core-race"},{"extension":[{"url":"ombCategory","valueCoding":{"system":"urn:oid:2.16.840.1.113883.6.238","code":"2186-5","display":"Not Hispanic or Latino"}},{"url":"text","valueString":"Not Hispanic or Latino"}],"url":"http://hl7.org/fhir/us/core/StructureDefinition/us-core-ethnicity"}],"identifier":[{"type":{"coding":[{"system":"http://terminology.hl7.org/CodeSystem/v2-0203","code":"MR"}]},"system":"urn:fhirgen:mrn","value":"183-19-3763"},{"system":"http://hl7.org/fhir/sid/us-ssn","value":"248-40-9217"}],"name":[{"use":"official","family":"Webster","given":["Megan"]},{"use":"maiden","family":"Leach"}],"telecom":[{"system":"phone","value":"+1-086-948-8383x5727","use":"home"},{"system":"email","value":"glenn20@yahoo.com","use":"work"}],"gender":"female","birthDate":"1949-11-04","address":[{"use":"home","line":["4885 Brown Fall Suite 199"],"city":"Grahamside","state":"MI","postalCode":"44910"},{"use":"old","line":["496 Nelson Land"],"city":"Ellisonstad","state":"CA","postalCode":"47497"}],"maritalStatus":{"coding":[{"system":"http://terminology.hl7.org/CodeSystem/v3-MaritalStatus","code":"W","display":"Widowed"}]}},"request":{"method":"POST","url":"Patient"}},{"fullUrl":"Observation/3c4ff01b-9761-4bd3-b6d2-f4bd4221e617","resource":{"resourceType":"Observation","id":"3c4ff01b-9761-4bd3-b6d2-f4bd4221e617","meta":{"profile":["http://hl7.org/fhir/us/core/StructureDefinition/us-core-observation-lab"]},"status":"final","category":[{"coding":[{"system":"http://terminology.hl7.org/CodeSystem/observation-category","code":"laboratory","display":"Laboratory"}]}],"code":{"coding":[{"system":"http://loinc.org","code":"34382-2"}]},"subject":{"reference":"Patient/9e263dc9-0d0e-4d81-b498-e846231249b0"},"effectiveDateTime":"2022-12-05T00:00:00+00:00","valueRatio":{"numerator":{"value":1},"denominator":{"value":32}}},"request":{"method":"POST","url":"Observation"}},{"fullUrl":"Observation/49ab62d8-0724-44e6-9dcc-46b8193f737b","resource":{"resourceType":"Observation","id":"49ab62d8-0724-44e6-9dcc-46b8193f737b","meta":{"profile":["http://hl7.org/fhir/us/core/StructureDefinition/us-core-observation-lab"]},"status":"final","category":[{"coding":[{"system":"http://terminology.hl7.org/CodeSystem/observation-category","code":"laboratory","display":"Laboratory"}]}],"code":{"coding":[{"system":"http://loinc.org","code":"87925-4"}]},"subject":{"reference":"Patient/9e263dc9-0d0e-4d81-b498-e846231249b0"},"effectiveDateTime":"2022-12-05T00:00:00+00:00","valueRatio":{"numerator":{"value":1},"denominator":{"value":64}}},"request":{"method":"POST","url":"Observation"}},{"fullUrl":"Condition/21696fc2-a665-4184-867d-3ff601a791ab","resource":{"resourceType":"Condition","id":"21696fc2-a665-4184-867d-3ff601a791ab","meta":{"profile":["http://hl7.org/fhir/us/core/StructureDefinition/us-core-condition"]},"clinicalStatus":{"coding":[{"system":"http://terminology.hl7.org/CodeSystem/condition-clinical","code":"active","display":"Active"}]},"category":[{"coding":[{"system":"http://terminology.hl7.org/CodeSystem/condition-category","code":"problem-list-item"}]}],"code":{"coding":[{"system":"http://snomed.info/sct","code":"709977002"}]},"subject":{"reference":"Patient/9e263dc9-0d0e-4d81-b498-e846231249b0"},"onsetDateTime":"2022-06-19T00:00:00+00:00"},"request":{"method":"POST","url":"Condition"}},{"fullUrl":"Condition/19cffd0a-bf5e-4671-a9f5-ee11a4d00691","resource":{"resourceType":"Condition","id":"19cffd0a-bf5e-4671-a9f5-ee11a4d00691","meta":{"profile":["http://hl7.org/fhir/us/core/StructureDefinition/us-core-condition"]},"clinicalStatus":{"coding":[{"system":"http://terminology.hl7.org/CodeSystem/condition-clinical","code":"active","display":"Active"}]},"category":[{"coding":[{"system":"http://terminology.hl7.org/CodeSystem/condition-category","code":"problem-list-item"}]}],"code":{"coding":[{"system":"http://snomed.info/sct","code":"44882003"}]},"subject":{"reference":"Patient/9e263dc9-0d0e-4d81-b498-e846231249b0"},"onsetDateTime":"2022-07-04T00:00:00+00:00"},"request":{"method":"POST","url":"Condition"}},{"fullUrl":"Condition/d0d8475a-6227-4a64-9753-e856e4d31158","resource":{"resourceType":"Condition","id":"d0d8475a-6227-4a64-9753-e856e4d31158","meta":{"profile":["http://hl7.org/fhir/us/core/StructureDefinition/us-core-condition"]},"clinicalStatus":{"coding":[{"system":"http://terminology.hl7.org/CodeSystem/condition-clinical","code":"active","display":"Active"}]},"category":[{"coding":[{"system":"http://terminology.hl7.org/CodeSystem/condition-category","code":"problem-list-item"}]}],"code":{"coding":[{"system":"http://snomed.info/sct","code":"709977002"}]},"subject":{"reference":"Patient/9e263dc9-0d0e-4d81-b498-e846231249b0"},"onsetDateTime":"2022-08-31T00:00:00+00:00"},"request":{"method":"POST","url":"Condition"}},{"fullUrl":"Condition/03d0d9ca-acae-4e6a-b7d5-eb9f91f62d8d","resource":{"resourceType":"Condition","id":"03d0d9ca-acae-4e6a-b7d5-eb9f91f62d8d","meta":{"profile":["http://hl7.org/fhir/us/core/StructureDefinition/us-core-condition"]},"clinicalStatus":{"coding":[{"system":"http://terminology.hl7.org/CodeSystem/condition-clinical","code":"active","display":"Active"}]},"category":[{"coding":[{"system":"http://terminology.hl7.org/CodeSystem/condition-category","code":"problem-list-item"}]}],"code":{"coding":[{"system":"http://snomed.info/sct","code":"418290006"}]},"subject":{"reference":"Patient/9e263dc9-0d0e-4d81-b498-e846231249b0"},"onsetDateTime":"2022-12-21T00:00:00+00:00"},"request":{"method":"POST","url":"Condition"}},{"fullUrl":"Condition/5531268a-a8da-4315-a74f-cc1a5f97a1e6","resource":{"resourceType":"Condition","id":"5531268a-a8da-4315-a74f-cc1a5f97a1e6","meta":{"profile":["http://hl7.org/fhir/us/core/StructureDefinition/us-core-condition"]},"clinicalStatus":{"coding":[{"system":"http://terminology.hl7.org/CodeSystem/condition-clinical","code":"active","display":"Active"}]},"category":[{"coding":[{"system":"http://terminology.hl7.org/CodeSystem/condition-category","code":"problem-list-item"}]}],"code":{"coding":[{"system":"http://snomed.info/sct","code":"709977002"}]},"subject":{"reference":"Patient/9e263dc9-0d0e-4d81-b498-e846231249b0"},"onsetDateTime":"2022-12-03T00:00:00+00:00"},"request":{"method":"POST","url":"Condition"}},{"fullUrl":"Condition/686bfb2c-4b22-4828-99e4-03e1494285e1","resource":{"resourceType":"Condition","id":"686bfb2c-4b22-4828-99e4-03e1494285e1","meta":{"profile":["http://hl7.org/fhir/us/core/StructureDefinition/us-core-condition"]},"clinicalStatus":{"coding":[{"system":"http://terminology.hl7.org/CodeSystem/condition-clinical","code":"active","display":"Active"}]},"category":[{"coding":[{"system":"http://terminology.hl7.org/CodeSystem/condition-category","code":"problem-list-item"}]}],"code":{"coding":[{"system":"http://snomed.info/sct","code":"736686006"}]},"subject":{"reference":"Patient/9e263dc9-0d0e-4d81-b498-e846231249b0"},"onsetDateTime":"2022-10-29T00:00:00+00:00"},"request":{"method":"POST","url":"Condition"}},{"fullUrl":"Condition/1c73c50c-1d8b-44b5-a9cc-125504a200e0","resource":{"resourceType":"Condition","id":"1c73c50c-1d8b-44b5-a9cc-125504a200e0","meta":{"profile":["http://hl7.org/fhir/us/core/StructureDefinition/us-core-condition"]},"clinicalStatus":{"coding":[{"system":"http://terminology.hl7.org/CodeSystem/condition-clinical","code":"active","display":"Active"}]},"category":[{"coding":[{"system":"http://terminology.hl7.org/CodeSystem/condition-category","code":"problem-list-item"}]}],"code":{"coding":[{"system":"http://snomed.info/sct","code":"418290006"}]},"subject":{"reference":"Patient/9e263dc9-0d0e-4d81-b498-e846231249b0"},"onsetDateTime":"2022-02-17T00:00:00+00:00"},"request":{"method":"POST","url":"Condition"}},{"fullUrl":"Condition/d0cf45e3-a157-465f-8314-9dec1bf19df3","resource":{"resourceType":"Condition","id":"d0cf45e3-a157-465f-8314-9dec1bf19df3","meta":{"profile":["http://hl7.org/fhir/us/core/StructureDefinition/us-core-condition"]},"clinicalStatus":{"coding":[{"system":"http://terminology.hl7.org/CodeSystem/condition-clinical","code":"active","display":"Active"}]},"category":[{"coding":[{"system":"http://terminology.hl7.org/CodeSystem/condition-category","code":"problem-list-item"}]}],"code":{"coding":[{"system":"http://snomed.info/sct","code":"736686006"}]},"subject":{"reference":"Patient/9e263dc9-0d0e-4d81-b498-e846231249b0"},"onsetDateTime":"2022-02-04T00:00:00+00:00"},"request":{"method":"POST","url":"Condition"}},{"fullUrl":"Observation/dad9312a-fb92-4303-bce1-0f9f181821a3","resource":{"resourceType":"Observation","id":"dad9312a-fb92-4303-bce1-0f9f181821a3","meta":{"profile":["http://hl7.org/fhir/us/core/StructureDefinition/us-core-observation-lab"]},"status":"final","category":[{"coding":[{"system":"http://terminology.hl7.org/CodeSystem/observation-category","code":"laboratory","display":"Laboratory"}]}],"code":{"coding":[{"system":"http://loinc.org","code":"804-5"}]},"subject":{"reference":"Patient/9e263dc9-0d0e-4d81-b498-e846231249b0"},"effectiveDateTime":"2022-05-12T00:00:00+00:00","valueQuantity":{"value":5.8}},"request":{"method":"POST","url":"Observation"}},{"fullUrl":"Observation/81f84f67-cb53-4dd7-b0fa-1becef4ffbb0","resource":{"resourceType":"Observation","id":"81f84f67-cb53-4dd7-b0fa-1becef4ffbb0","meta":{"profile":["http://hl7.org/fhir/us/core/StructureDefinition/us-core-observation-lab"]},"status":"final","category":[{"coding":[{"system":"http://terminology.hl7.org/CodeSystem/observation-category","code":"laboratory","display":"Laboratory"}]}],"code":{"coding":[{"system":"http://loinc.org","code":"804-5"}]},"subject":{"reference":"Patient/9e263dc9-0d0e-4d81-b498-e846231249b0"},"effectiveDateTime":"2022-12-19T00:00:00+00:00","valueQuantity":{"value":8.9}},"request":{"method":"POST","url":"Observation"}},{"fullUrl":"Observation/649606d1-bb1e-4153-9228-6f47c6cb2e02","resource":{"resourceType":"Observation","id":"649606d1-bb1e-4153-9228-6f47c6cb2e02","meta":{"profile":["http://hl7.org/fhir/us/core/StructureDefinition/us-core-bmi"]},"status":"final","category":[{"coding":[{"system":"http://terminology.hl7.org/CodeSystem/observation-category","code":"vital-signs","display":"Vital Signs"}]}],"code":{"coding":[{"system":"http://loinc.org","code":"39156-5"}]},"subject":{"reference":"Patient/9e263dc9-0d0e-4d81-b498-e846231249b0"},"effectiveDateTime":"2022-06-05T00:00:00+00:00","valueQuantity":{"value":17.81,"unit":"kg/m2","system":"http://unitsofmeasure.org","code":"kg/m2"}},"request":{"method":"POST","url":"Observation"}},{"fullUrl":"Observation/391f33f7-f1a6-42b1-a831-ac87609ee576","resource":{"resourceType":"Observation","id":"391f33f7-f1a6-42b1-a831-ac87609ee576","meta":{"profile":["http://hl7.org/fhir/us/core/StructureDefinition/us-core-head-circumference"]},"status":"final","category":[{"coding":[{"system":"http://terminology.hl7.org/CodeSystem/observation-category","code":"vital-signs","display":"Vital Signs"}]}],"code":{"coding":[{"system":"http://loinc.org","code":"9843-4"}]},"subject":{"reference":"Patient/9e263dc9-0d0e-4d81-b498-e846231249b0"},"effectiveDateTime":"2022-02-13T00:00:00+00:00","valueQuantity":{"value":7.8,"unit":"Inch","system":"http://unitsofmeasure.org","code":"[in_i]"}},"request":{"method":"POST","url":"Observation"}},{"fullUrl":"Observation/fb69de5e-9516-49c4-90f4-f0622281d263","resource":{"resourceType":"Observation","id":"fb69de5e-9516-49c4-90f4-f0622281d263","meta":{"profile":["http://hl7.org/fhir/us/core/StructureDefinition/us-core-body-height"]},"status":"final","category":[{"coding":[{"system":"http://terminology.hl7.org/CodeSystem/observation-category","code":"vital-signs","display":"Vital Signs"}]}],"code":{"coding":[{"system":"http://loinc.org","code":"8302-2"}]},"subject":{"reference":"Patient/9e263dc9-0d0e-4d81-b498-e846231249b0"},"effectiveDateTime":"2022-01-04T00:00:00+00:00","valueQuantity":{"value":73.3,"unit":"Inch","system":"http://unitsofmeasure.org","code":"[in_i]"}},"request":{"method":"POST","url":"Observation"}},{"fullUrl":"Observation/11cc1727-3848-4f93-a281-0f9f2545e8d1","resource":{"resourceType":"Observation","id":"11cc1727-3848-4f93-a281-0f9f2545e8d1","meta":{"profile":["http://hl7.org/fhir/us/core/StructureDefinition/us-core-body-height"]},"status":"final","category":[{"coding":[{"system":"http://terminology.hl7.org/CodeSystem/observation-category","code":"vital-signs","display":"Vital Signs"}]}],"code":{"coding":[{"system":"http://loinc.org","code":"8302-2"}]},"subject":{"reference":"Patient/9e263dc9-0d0e-4d81-b498-e846231249b0"},"effectiveDateTime":"2022-12-07T00:00:00+00:00","valueQuantity":{"value":69.2,"unit":"Inch","system":"http://unitsofmeasure.org","code":"[in_i]"}},"request":{"method":"POST","url":"Observation"}},{"fullUrl":"Observation/8d0a7bd2-2994-4cf1-b6a5-eaab5d643b07","resource":{"resourceType":"Observation","id":"8d0a7bd2-2994-4cf1-b6a5-eaab5d643b07","meta":{"profile":["http://hl7.org/fhir/us/core/StructureDefinition/us-core-body-weight"]},"status":"final","category":[{"coding":[{"system":"http://terminology.hl7.org/CodeSystem/observation-category","code":"vital-signs","display":"Vital Signs"}]}],"code":{"coding":[{"system":"http://loinc.org","code":"29463-7"}]},"subject":{"reference":"Patient/9e263dc9-0d0e-4d81-b498-e846231249b0"},"effectiveDateTime":"2022-07-23T00:00:00+00:00","valueQuantity":{"value":44.7,"unit":"kilogram","system":"http://unitsofmeasure.org","code":"kg"}},"request":{"method":"POST","url":"Observation"}},{"fullUrl":"Observation/54f22c13-d0b7-4de0-8c5c-30bd035a7c00","resource":{"resourceType":"Observation","id":"54f22c13-d0b7-4de0-8c5c-30bd035a7c00","meta":{"profile":["http://hl7.org/fhir/us/core/StructureDefinition/us-core-body-weight"]},"status":"final","category":[{"coding":[{"system":"http://terminology.hl7.org/CodeSystem/observation-category","code":"vital-signs","display":"Vital Signs"}]}],"code":{"coding":[{"system":"http://loinc.org","code":"29463-7"}]},"subject":{"reference":"Patient/9e263dc9-0d0e-4d81-b498-e846231249b0"},"effectiveDateTime":"2022-11-20T00:00:00+00:00","valueQuantity":{"value":54.27,"unit":"kilogram","system":"http://unitsofmeasure.org","code":"kg"}},"request":{"method":"POST","url":"Observation"}},{"fullUrl":"Observation/b24447aa-a741-4321-a70b-6c457d2f3aba","resource":{"resourceType":"Observation","id":"b24447aa-a741-4321-a70b-6c457d2f3aba","meta":{"profile":["http://hl7.org/fhir/us/core/StructureDefinition/us-core-body-temperature"]},"status":"final","category":[{"coding":[{"system":"http://terminology.hl7.org/CodeSystem/observation-category","code":"vital-signs","display":"Vital Signs"}]}],"code":{"coding":[{"system":"http://loinc.org","code":"8310-5"}]},"subject":{"reference":"Patient/9e263dc9-0d0e-4d81-b498-e846231249b0"},"effectiveDateTime":"2022-09-01T00:00:00+00:00","valueQuantity":{"value":118.57,"unit":"Degrees Fahrenheit","system":"http://unitsofmeasure.org","code":"[degF]"}},"request":{"method":"POST","url":"Observation"}},{"fullUrl":"Observation/0f86e55f-1b77-441a-98b5-20fb730fea39","resource":{"resourceType":"Observation","id":"0f86e55f-1b77-441a-98b5-20fb730fea39","meta":{"profile":["http://hl7.org/fhir/us/core/StructureDefinition/us-core-body-temperature"]},"status":"final","category":[{"coding":[{"system":"http://terminology.hl7.org/CodeSystem/observation-category","code":"vital-signs","display":"Vital Signs"}]}],"code":{"coding":[{"system":"http://loinc.org","code":"8310-5"}]},"subject":{"reference":"Patient/9e263dc9-0d0e-4d81-b498-e846231249b0"},"effectiveDateTime":"2022-07-27T00:00:00+00:00","valueQuantity":{"value":44.73,"unit":"Degrees Fahrenheit","system":"http://unitsofmeasure.org","code":"[degF]"}},"request":{"method":"POST","url":"Observation"}},{"fullUrl":"Observation/99460ff5-7768-4908-9dee-3e6ad552c8ce","resource":{"resourceType":"Observation","id":"99460ff5-7768-4908-9dee-3e6ad552c8ce","meta":{"profile":["http://hl7.org/fhir/us/core/StructureDefinition/us-core-heart-rate"]},"status":"final","category":[{"coding":[{"system":"http://terminology.hl7.org/CodeSystem/observation-category","code":"vital-signs","display":"Vital Signs"}]}],"code":{"coding":[{"system":"http://loinc.org","code":"8867-4"}]},"subject":{"reference":"Patient/9e263dc9-0d0e-4d81-b498-e846231249b0"},"effectiveDateTime":"2022-10-30T00:00:00+00:00","valueQuantity":{"value":96.6,"unit":"Per Minute","system":"http://unitsofmeasure.org","code":"/min"}},"request":{"method":"POST","url":"Observation"}},{"fullUrl":"Observation/17899275-7cfd-4d18-871f-e4e718d8df3c","resource":{"resourceType":"Observation","id":"17899275-7cfd-4d18-871f-e4e718d8df3c","meta":{"profile":["http://hl7.org/fhir/us/core/StructureDefinition/us-core-heart-rate"]},"status":"final","category":[{"coding":[{"system":"http://terminology.hl7.org/CodeSystem/observation-category","code":"vital-signs","display":"Vital Signs"}]}],"code":{"coding":[{"system":"http://loinc.org","code":"8867-4"}]},"subject":{"reference":"Patient/9e263dc9-0d0e-4d81-b498-e846231249b0"},"effectiveDateTime":"2022-02-16T00:00:00+00:00","valueQuantity":{"value":98.1,"unit":"Per Minute","system":"http://unitsofmeasure.org","code":"/min"}},"request":{"method":"POST","url":"Observation"}},{"fullUrl":"Patient/a391b024-1395-47f5-b20c-3e98506fdec5","resource":{"resourceType":"Patient","id":"a391b024-1395-47f5-b20c-3e98506fdec5","meta":{"profile":["http://hl7.org/fhir/us/core/StructureDefinition/us-core-patient"]},"extension":[{"extension":[{"url":"ombCategory","valueCoding":{"system":"urn:oid:2.16.840.1.113883.6.238","code":"1002-5","display":"American Indian or Alaska Native"}},{"url":"text","valueString":"American Indian or Alaska Native"}],"url":"http://hl7.org/fhir/us/core/StructureDefinition/us-core-race"},{"extension":[{"url":"ombCategory","valueCoding":{"system":"urn:oid:2.16.840.1.113883.6.238","code":"2186-5","display":"Not Hispanic or Latino"}},{"url":"text","valueString":"Not Hispanic or Latino"}],"url":"http://hl7.org/fhir/us/core/StructureDefinition/us-core-ethnicity"}],"identifier":[{"type":{"coding":[{"system":"http://terminology.hl7.org/CodeSystem/v2-0203","code":"MR"}]},"system":"urn:fhirgen:mrn","value":"268-57-7988"},{"system":"http://hl7.org/fhir/sid/us-ssn","value":"896-14-9216"}],"name":[{"use":"official","family":"Craig","given":["Thomas"]},{"use":"maiden","family":"Lopez"}],"telecom":[{"system":"phone","value":"742.838.9640","use":"mobile"},{"system":"email","value":"amy94@hotmail.com","use":"work"}],"gender":"other","birthDate":"1994-03-25","address":[{"use":"home","line":["257 Jason Harbors Suite 318"],"city":"West Kayla","state":"GA","postalCode":"01620"},{"use":"old","line":["37053 Daniels Cape Suite 374"],"city":"Smithmouth","state":"OH","postalCode":"35620"}],"maritalStatus":{"coding":[{"system":"http://terminology.hl7.org/CodeSystem/v3-MaritalStatus","code":"W","display":"Widowed"}]}},"request":{"method":"POST","url":"Patient"}},{"fullUrl":"Observation/8aa1dc42-deea-4970-8340-a09c3050b0b4","resource":{"resourceType":"Observation","id":"8aa1dc42-deea-4970-8340-a09c3050b0b4","meta":{"profile":["http://hl7.org/fhir/us/core/StructureDefinition/us-core-observation-lab"]},"status":"final","category":[{"coding":[{"system":"http://terminology.hl7.org/CodeSystem/observation-category","code":"laboratory","display":"Laboratory"}]}],"code":{"coding":[{"system":"http://loinc.org","code":"47476-7"}]},"subject":{"reference":"Patient/a391b024-1395-47f5-b20c-3e98506fdec5"},"effectiveDateTime":"2022-04-13T00:00:00+00:00","valueRatio":{"numerator":{"value":1},"denominator":{"value":32}}},"request":{"method":"POST","url":"Observation"}},{"fullUrl":"Observation/24913071-d893-4e04-a9fc-31d88c2a188c","resource":{"resourceType":"Observation","id":"24913071-d893-4e04-a9fc-31d88c2a188c","meta":{"profile":["http://hl7.org/fhir/us/core/StructureDefinition/us-core-observation-lab"]},"status":"final","category":[{"coding":[{"system":"http://terminology.hl7.org/CodeSystem/observation-category","code":"laboratory","display":"Laboratory"}]}],"code":{"coding":[{"system":"http://loinc.org","code":"47476-7"}]},"subject":{"reference":"Patient/a391b024-1395-47f5-b20c-3e98506fdec5"},"effectiveDateTime":"2022-09-03T00:00:00+00:00","valueRatio":{"numerator":{"value":1},"denominator":{"value":4}}},"request":{"method":"POST","url":"Observation"}},{"fullUrl":"Observation/b0bdca2f-8db3-456e-bd14-feb08acea366","resource":{"resourceType":"Observation","id":"b0bdca2f-8db3-456e-bd14-feb08acea366","meta":{"profile":["http://hl7.org/fhir/us/core/StructureDefinition/us-core-observation-lab"]},"status":"final","category":[{"coding":[{"system":"http://terminology.hl7.org/CodeSystem/observation-category","code":"laboratory","display":"Laboratory"}]}],"code":{"coding":[{"system":"http://loinc.org","code":"11084-1"}]},"subject":{"reference":"Patient/a391b024-1395-47f5-b20c-3e98506fdec5"},"effectiveDateTime":"2022-05-25T00:00:00+00:00","valueRatio":{"numerator":{"value":1},"denominator":{"value":32}}},"request":{"method":"POST","url":"Observation"}},{"fullUrl":"Condition/e2b2d77a-ab79-497e-b00a-41c0df751306","resource":{"resourceType":"Condition","id":"e2b2d77a-ab79-497e-b00a-41c0df751306","meta":{"profile":["http://hl7.org/fhir/us/core/StructureDefinition/us-core-condition"]},"clinicalStatus":{"coding":[{"system":"http://terminology.hl7.org/CodeSystem/condition-clinical","code":"active","display":"Active"}]},"category":[{"coding":[{"system":"http://terminology.hl7.org/CodeSystem/condition-category","code":"problem-list-item"}]}],"code":{"coding":[{"system":"http://snomed.info/sct","code":"709977002"}]},"subject":{"reference":"Patient/a391b024-1395-47f5-b20c-3e98506fdec5"},"onsetDateTime":"2022-05-10T00:00:00+00:00"},"request":{"method":"POST","url":"Condition"}},{"fullUrl":"Condition/3b9cc0d7-4ec6-4759-a401-5115f75b882a","resource":{"resourceType":"Condition","id":"3b9cc0d7-4ec6-4759-a401-5115f75b882a","meta":{"profile":["http://hl7.org/fhir/us/core/StructureDefinition/us-core-condition"]},"clinicalStatus":{"coding":[{"system":"http://terminology.hl7.org/CodeSystem/condition-clinical","code":"active","display":"Active"}]},"category":[{"coding":[{"system":"http://terminology.hl7.org/CodeSystem/condition-category","code":"problem-list-item"}]}],"code":{"coding":[{"system":"http://snomed.info/sct","code":"91554004"}]},"subject":{"reference":"Patient/a391b024-1395-47f5-b20c-3e98506fdec5"},"onsetDateTime":"2022-02-11T00:00:00+00:00"},"request":{"method":"POST","url":"Condition"}},{"fullUrl":"Condition/54667cab-d0ab-4ff6-9254-05d1cc0ad8fe","resource":{"resourceType":"Condition","id":"54667cab-d0ab-4ff6-9254-05d1cc0ad8fe","meta":{"profile":["http://hl7.org/fhir/us/core/StructureDefinition/us-core-condition"]},"clinicalStatus":{"coding":[{"system":"http://terminology.hl7.org/CodeSystem/condition-clinical","code":"active","display":"Active"}]},"category":[{"coding":[{"system":"http://terminology.hl7.org/CodeSystem/condition-category","code":"problem-list-item"}]}],"code":{"coding":[{"system":"http://snomed.info/sct","code":"418290006"}]},"subject":{"reference":"Patient/a391b024-1395-47f5-b20c-3e98506fdec5"},"onsetDateTime":"2022-09-14T00:00:00+00:00"},"request":{"method":"POST","url":"Condition"}},{"fullUrl":"Observation/421ed661-c2e5-4c08-a5d3-291ef3a11640","resource":{"resourceType":"Observation","id":"421ed661-c2e5-4c08-a5d3-291ef3a11640","meta":{"profile":["http://hl7.org/fhir/us/core/StructureDefinition/us-core-observation-lab"]},"status":"final","category":[{"coding":[{"system":"http://terminology.hl7.org/CodeSystem/observation-category","code":"laboratory","display":"Laboratory"}]}],"code":{"coding":[{"system":"http://loinc.org","code":"6690-2"}]},"subject":{"reference":"Patient/a391b024-1395-47f5-b20c-3e98506fdec5"},"effectiveDateTime":"2022-01-08T00:00:00+00:00","valueQuantity":{"value":7.1}},"request":{"method":"POST","url":"Observation"}},{"fullUrl":"Observation/9e9fa774-b33f-4d77-86ce-aee9617155f9","resource":{"resourceType":"Observation","id":"9e9fa774-b33f-4d77-86ce-aee9617155f9","meta":{"profile":["http://hl7.org/fhir/us/core/StructureDefinition/us-core-observation-lab"]},"status":"final","category":[{"coding":[{"system":"http://terminology.hl7.org/CodeSystem/observation-category","code":"laboratory","display":"Laboratory"}]}],"code":{"coding":[{"system":"http://loinc.org","code":"49498-9"}]},"subject":{"reference":"Patient/a391b024-1395-47f5-b20c-3e98506fdec5"},"effectiveDateTime":"2022-02-19T00:00:00+00:00","valueQuantity":{"value":10.4}},"request":{"method":"POST","url":"Observation"}},{"fullUrl":"Observation/268e544f-c193-4647-9292-dc548c39cd69","resource":{"resourceType":"Observation","id":"268e544f-c193-4647-9292-dc548c39cd69","meta":{"profile":["http://hl7.org/fhir/us/core/StructureDefinition/us-core-observation-lab"]},"status":"final","category":[{"coding":[{"system":"http://terminology.hl7.org/CodeSystem/observation-category","code":"laboratory","display":"Laboratory"}]}],"code":{"coding":[{"system":"http://loinc.org","code":"26464-8"}]},"subject":{"reference":"Patient/a391b024-1395-47f5-b20c-3e98506fdec5"},"effectiveDateTime":"2022-10-02T00:00:00+00:00","valueQuantity":{"value":7.4}},"request":{"method":"POST","url":"Observation"}},{"fullUrl":"Observation/363df77e-2934-42c3-bcb4-c42c780ecb17","resource":{"resourceType":"Observation","id":"363df77e-2934-42c3-bcb4-c42c780ecb17","meta":{"profile":["http://hl7.org/fhir/us/core/StructureDefinition/us-core-bmi"]},"status":"final","category":[{"coding":[{"system":"http://terminology.hl7.org/CodeSystem/observation-category","code":"vital-signs","display":"Vital Signs"}]}],"code":{"coding":[{"system":"http://loinc.org","code":"39156-5"}]},"subject":{"reference":"Patient/a391b024-1395-47f5-b20c-3e98506fdec5"},"effectiveDateTime":"2022-05-13T00:00:00+00:00","valueQuantity":{"value":12.85,"unit":"kg/m2","system":"http://unitsofmeasure.org","code":"kg/m2"}},"request":{"method":"POST","url":"Observation"}},{"fullUrl":"Observation/902f1c63-6dae-4f75-bcf0-4e09ec85cd24","resource":{"resourceType":"Observation","id":"902f1c63-6dae-4f75-bcf0-4e09ec85cd24","meta":{"profile":["http://hl7.org/fhir/us/core/StructureDefinition/us-core-head-circumference"]},"status":"final","category":[{"coding":[{"system":"http://terminology.hl7.org/CodeSystem/observation-category","code":"vital-signs","display":"Vital Signs"}]}],"code":{"coding":[{"system":"http://loinc.org","code":"9843-4"}]},"subject":{"reference":"Patient/a391b024-1395-47f5-b20c-3e98506fdec5"},"effectiveDateTime":"2022-12-04T00:00:00+00:00","valueQuantity":{"value":8.9,"unit":"Inch","system":"http://unitsofmeasure.org","code":"[in_i]"}},"request":{"method":"POST","url":"Observation"}},{"fullUrl":"Observation/1a5f5f4f-a3e4-49f6-9ab4-5f8048c53268","resource":{"resourceType":"Observation","id":"1a5f5f4f-a3e4-49f6-9ab4-5f8048c53268","meta":{"profile":["http://hl7.org/fhir/us/core/StructureDefinition/us-core-body-height"]},"status":"final","category":[{"coding":[{"system":"http://terminology.hl7.org/CodeSystem/observation-category","code":"vital-signs","display":"Vital Signs"}]}],"code":{"coding":[{"system":"http://loinc.org","code":"8302-2"}]},"subject":{"reference":"Patient/a391b024-1395-47f5-b20c-3e98506fdec5"},"effectiveDateTime":"2022-04-01T00:00:00+00:00","valueQuantity":{"value":65.4,"unit":"Inch","system":"http://unitsofmeasure.org","code":"[in_i]"}},"request":{"method":"POST","url":"Observation"}},{"fullUrl":"Observation/754649ca-1653-40c1-9994-4162e1510a04","resource":{"resourceType":"Observation","id":"754649ca-1653-40c1-9994-4162e1510a04","meta":{"profile":["http://hl7.org/fhir/us/core/StructureDefinition/us-core-body-height"]},"status":"final","category":[{"coding":[{"system":"http://terminology.hl7.org/CodeSystem/observation-category","code":"vital-signs","display":"Vital Signs"}]}],"code":{"coding":[{"system":"http://loinc.org","code":"8302-2"}]},"subject":{"reference":"Patient/a391b024-1395-47f5-b20c-3e98506fdec5"},"effectiveDateTime":"2022-02-09T00:00:00+00:00","valueQuantity":{"value":63.7,"unit":"Inch","system":"http://unitsofmeasure.org","code":"[in_i]"}},"request":{"method":"POST","url":"Observation"}},{"fullUrl":"Observation/08423fbc-ed60-41fc-878f-962788be6530","resource":{"resourceType":"Observation","id":"08423fbc-ed60-41fc-878f-962788be6530","meta":{"profile":["http://hl7.org/fhir/us/core/StructureDefinition/us-core-body-weight"]},"status":"final","category":[{"coding":[{"system":"http://terminology.hl7.org/CodeSystem/observation-category","code":"vital-signs","display":"Vital Signs"}]}],"code":{"coding":[{"system":"http://loinc.org","code":"29463-7"}]},"subject":{"reference":"Patient/a391b024-1395-47f5-b20c-3e98506fdec5"},"effectiveDateTime":"2022-07-04T00:00:00+00:00","valueQuantity":{"value":148.54,"unit":"kilogram","system":"http://unitsofmeasure.org","code":"kg"}},"request":{"method":"POST","url":"Observation"}},{"fullUrl":"Observation/07540a98-7258-469d-bbcf-e0a3e91f11a4","resource":{"resourceType":"Observation","id":"07540a98-7258-469d-bbcf-e0a3e91f11a4","meta":{"profile":["http://hl7.org/fhir/us/core/StructureDefinition/us-core-body-weight"]},"status":"final","category":[{"coding":[{"system":"http://terminology.hl7.org/CodeSystem/observation-category","code":"vital-signs","display":"Vital Signs"}]}],"code":{"coding":[{"system":"http://loinc.org","code":"29463-7"}]},"subject":{"reference":"Patient/a391b024-1395-47f5-b20c-3e98506fdec5"},"effectiveDateTime":"2022-10-07T00:00:00+00:00","valueQuantity":{"value":130.9,"unit":"kilogram","system":"http://unitsofmeasure.org","code":"kg"}},"request":{"method":"POST","url":"Observation"}},{"fullUrl":"Observation/b72c0a51-78ad-4783-a9fd-e61f811ef7b0","resource":{"resourceType":"Observation","id":"b72c0a51-78ad-4783-a9fd-e61f811ef7b0","meta":{"profile":["http://hl7.org/fhir/us/core/StructureDefinition/us-core-body-temperature"]},"status":"final","category":[{"coding":[{"system":"http://terminology.hl7.org/CodeSystem/observation-category","code":"vital-signs","display":"Vital Signs"}]}],"code":{"coding":[{"system":"http://loinc.org","code":"8310-5"}]},"subject":{"reference":"Patient/a391b024-1395-47f5-b20c-3e98506fdec5"},"effectiveDateTime":"2022-12-29T00:00:00+00:00","valueQuantity":{"value":126.41,"unit":"Degrees Fahrenheit","system":"http://unitsofmeasure.org","code":"[degF]"}},"request":{"method":"POST","url":"Observation"}},{"fullUrl":"Observation/b5d59126-b460-4388-8601-aeb4dc5705e8","resource":{"resourceType":"Observation","id":"b5d59126-b460-4388-8601-aeb4dc5705e8","meta":{"profile":["http://hl7.org/fhir/us/core/StructureDefinition/us-core-body-temperature"]},"status":"final","category":[{"coding":[{"system":"http://terminology.hl7.org/CodeSystem/observation-category","code":"vital-signs","display":"Vital Signs"}]}],"code":{"coding":[{"system":"http://loinc.org","code":"8310-5"}]},"subject":{"reference":"Patient/a391b024-1395-47f5-b20c-3e98506fdec5"},"effectiveDateTime":"2022-09-08T00:00:00+00:00","valueQuantity":{"value":101.01,"unit":"Degrees Fahrenheit","system":"http://unitsofmeasure.org","code":"[degF]"}},"request":{"method":"POST","url":"Observation"}},{"fullUrl":"Observation/d5ea8557-685d-4cef-92d2-8724816e3c2a","resource":{"resourceType":"Observation","id":"d5ea8557-685d-4cef-92d2-8724816e3c2a","meta":{"profile":["http://hl7.org/fhir/us/core/StructureDefinition/us-core-heart-rate"]},"status":"final","category":[{"coding":[{"system":"http://terminology.hl7.org/CodeSystem/observation-category","code":"vital-signs","display":"Vital Signs"}]}],"code":{"coding":[{"system":"http://loinc.org","code":"8867-4"}]},"subject":{"reference":"Patient/a391b024-1395-47f5-b20c-3e98506fdec5"},"effectiveDateTime":"2022-03-22T00:00:00+00:00","valueQuantity":{"value":100.7,"unit":"Per Minute","system":"http://unitsofmeasure.org","code":"/min"}},"request":{"method":"POST","url":"Observation"}},{"fullUrl":"Observation/535b6656-5ceb-4b2c-a845-2165fc0a1486","resource":{"resourceType":"Observation","id":"535b6656-5ceb-4b2c-a845-2165fc0a1486","meta":{"profile":["http://hl7.org/fhir/us/core/StructureDefinition/us-core-heart-rate"]},"status":"final","category":[{"coding":[{"system":"http://terminology.hl7.org/CodeSystem/observation-category","code":"vital-signs","display":"Vital Signs"}]}],"code":{"coding":[{"system":"http://loinc.org","code":"8867-4"}]},"subject":{"reference":"Patient/a391b024-1395-47f5-b20c-3e98506fdec5"},"effectiveDateTime":"2022-09-28T00:00:00+00:00","valueQuantity":{"value":100.5,"unit":"Per Minute","system":"http://unitsofmeasure.org","code":"/min"}},"request":{"method":"POST","url":"Observation"}}]}