{"resourceType":"Bundle","id":"d6de0bc4-e3d8-4830-bd49-2ff787e90659","type":"collection","entry":[{"fullUrl":"Patient/21a9e846-e634-4477-ae2e-bfb678e38791","resource":{"resourceType":"Patient","id":"21a9e846-e634-4477-ae2e-bfb678e38791","meta":{"profile":["http://hl7.org/fhir/us/core/StructureDefinition/us-core-patient"]},"extension":[{"extension":[{"url":"ombCategory","valueCoding":{"system":"urn:oid:2.16.840.1.113883.6.238","code":"1002-5","display":"American Indian or Alaska Native"}},{"url":"text","valueString":"American Indian or Alaska Native"}],"url":"http://hl7.org/fhir/us/core/StructureDefinition/us-core-race"},{"extension":[{"url":"ombCategory","valueCoding":{"system":"urn:oid:2.16.840.1.113883.6.238","code":"2186-5","display":"Non Hispanic or Latino"}},{"url":"text","valueString":"Non Hispanic or Latino"}],"url":"http://hl7.org/fhir/us/core/StructureDefinition/us-core-ethnicity"}],"identifier":[{"type":{"coding":[{"system":"http://terminology.hl7.org/CodeSystem/v2-0203","code":"MR"}]},"system":"urn:fhirgen:mrn","value":"005-37-9454"}],"name":[{"use":"official","family":"Blackburn","given":["Ian"]},{"use":"maiden","family":"Brown"}],"telecom":[{"system":"phone","value":"001-223-671-2741x88522","use":"home"},{"system":"email","value":"ymcgee@gmail.com","use":"home"}],"gender":"male","birthDate":"1950-11-22","address":[{"use":"home","line":["422 Crystal Villages"],"city":"Jacobbury","state":"SC","postalCode":"37276"},{"use":"old","line":["293 Garza Mission"],"city":"Whiteburgh","state":"CA","postalCode":"87508"}]}},{"fullUrl":"Observation/293c972f-045c-450c-9e31-c9f2d4cbaebf","resource":{"resourceType":"Observation","id":"293c972f-045c-450c-9e31-c9f2d4cbaebf","meta":{"profile":["http://hl7.org/fhir/us/core/StructureDefinition/us-core-observation-lab"]},"status":"final","category":[{"coding":[{"system":"http://terminology.hl7.org/CodeSystem/observation-category","code":"laboratory","display":"Laboratory"}]}],"code":{"coding":[{"system":"http://loinc.org","code":"46203-6"}]},"subject":{"reference":"Patient/21a9e846-e634-4477-ae2e-bfb678e38791"},"effectiveDateTime":"2022-11-20T00:00:00+00:00","valueRatio":{"numerator":{"value":1},"denominator":{"value":4}}}},{"fullUrl":"Observation/da3ee61f-c9a6-4063-b3d6-0f61a6d60082","resource":{"resourceType":"Observation","id":"da3ee61f-c9a6-4063-b3d6-0f61a6d60082","meta":{"profile":["http://hl7.org/fhir/us/core/StructureDefinition/us-core-observation-lab"]},"status":"final","category":[{"coding":[{"system":"http://terminology.hl7.org/CodeSystem/observation-category","code":"laboratory","display":"Laboratory"}]}],"code":{"coding":[{"system":"http://loinc.org","code":"51475-2"}]},"subject":{"reference":"Patient/21a9e846-e634-4477-ae2e-bfb678e38791"},"effectiveDateTime":"2022-01-29T00:00:00+00:00","valueRatio":{"numerator":{"value":1},"denominator":{"value":32}}}},{"fullUrl":"Observation/7f556c35-0c40-4197-9d01-4283b4d5df22","resource":{"resourceType":"Observation","id":"7f556c35-0c40-4197-9d01-4283b4d5df22","meta":{"profile":["http://hl7.org/fhir/us/core/StructureDefinition/us-core-observation-lab"]},"status":"final","category":[{"coding":[{"system":"http://terminology.hl7.org/CodeSystem/observation-category","code":"laboratory","display":"Laboratory"}]}],"code":{"coding":[{"system":"http://loinc.org","code":"26009-1"}]},"subject":{"reference":"Patient/21a9e846-e634-4477-ae2e-bfb678e38791"},"effectiveDateTime":"2022-02-26T00:00:00+00:00","valueRatio":{"numerator":{"value":1},"denominator":{"value":4}}}},{"fullUrl":"Condition/bdaed162-ac2b-43bd-b6a9-c133f06fabf0","resource":{"resourceType":"Condition","id":"bdaed162-ac2b-43bd-b6a9-c133f06fabf0","meta":{"profile":["http://hl7.org/fhir/us/core/StructureDefinition/us-core-condition"]},"clinicalStatus":{"coding":[{"system":"http://terminology.hl7.org/CodeSystem/condition-clinical","code":"active","display":"Active"}]},"category":[{"coding":[{"system":"http://terminology.hl7.org/CodeSystem/condition-category","code":"problem-list-item"}]}],"code":{"coding":[{"system":"http://snomed.info/sct","code":"709977002"}]},"subject":{"reference":"Patient/21a9e846-e634-4477-ae2e-bfb678e38791"},"onsetDateTime":"2022-09-13T00:00:00+00:00"}},{"fullUrl":"Condition/63cfb1b1-6c3c-461a-aecc-25dada6b87a5","resource":{"resourceType":"Condition","id":"63cfb1b1-6c3c-461a-aecc-25dada6b87a5","meta":{"profile":["http://hl7.org/fhir/us/core/StructureDefinition/us-core-condition"]},"clinicalStatus":{"coding":[{"system":"http://terminology.hl7.org/CodeSystem/condition-clinical","code":"active","display":"Active"}]},"category":[{"coding":[{"system":"http://terminology.hl7.org/CodeSystem/condition-category","code":"problem-list-item"}]}],"code":{"coding":[{"system":"http://snomed.info/sct","code":"736686006"}]},"subject":{"reference":"Patient/21a9e846-e634-4477-ae2e-bfb678e38791"},"onsetDateTime":"2022-05-05T00:00:00+00:00"}},{"fullUrl":"Condition/789ee72b-cc6a-4ebb-8874-de2e95808565","resource":{"resourceType":"Condition","id":"789ee72b-cc6a-4ebb-8874-de2e95808565","meta":{"profile":["http://hl7.org/fhir/us/core/StructureDefinition/us-core-condition"]},"clinicalStatus":{"coding":[{"system":"http://terminology.hl7.org/CodeSystem/condition-clinical","code":"active","display":"Active"}]},"category":[{"coding":[{"system":"http://terminology.hl7.org/CodeSystem/condition-category","code":"problem-list-item"}]}],"code":{"coding":[{"system":"http://snomed.info/sct","code":"44882003"}]},"subject":{"reference":"Patient/21a9e846-e634-4477-ae2e-bfb678e38791"},"onsetDateTime":"2022-08-10T00:00:00+00:00"}},{"fullUrl":"Condition/56dace92-f8e5-4c34-aee6-5ec9558b00d0","resource":{"resourceType":"Condition","id":"56dace92-f8e5-4c34-aee6-5ec9558b00d0","meta":{"profile":["http://hl7.org/fhir/us/core/StructureDefinition/us-core-condition"]},"clinicalStatus":{"coding":[{"system":"http://terminology.hl7.org/CodeSystem/condition-clinical","code":"active","display":"Active"}]},"category":[{"coding":[{"system":"http://terminology.hl7.org/CodeSystem/condition-category","code":"problem-list-item"}]}],"code":{"coding":[{"system":"http://snomed.info/sct","code":"709977002"}]},"subject":{"reference":"Patient/21a9e846-e634-4477-ae2e-bfb678e38791"},"onsetDateTime":"2022-06-25T00:00:00+00:00"}},{"fullUrl":"Condition/afe6073e-97a9-4eb1-84da-7e515305138c","resource":{"resourceType":"Condition","id":"afe6073e-97a9-4eb1-84da-7e515305138c","meta":{"profile":["http://hl7.org/fhir/us/core/StructureDefinition/us-core-condition"]},"clinicalStatus":{"coding":[{"system":"http://terminology.hl7.org/CodeSystem/condition-clinical","code":"active","display":"Active"}]},"category":[{"coding":[{"system":"http://terminology.hl7.org/CodeSystem/condition-category","code":"problem-list-item"}]}],"code":{"coding":[{"system":"http://snomed.info/sct","code":"91554004"}]},"subject":{"reference":"Patient/21a9e846-e634-4477-ae2e-bfb678e38791"},"onsetDateTime":"2022-04-28T00:00:00+00:00"}},{"fullUrl":"Condition/a16b7e07-363d-4de8-b755-b51f8d4f4cd2","resource":{"resourceType":"Condition","id":"a16b7e07-363d-4de8-b755-b51f8d4f4cd2","meta":{"profile":["http://hl7.org/fhir/us/core/StructureDefinition/us-core-condition"]},"clinicalStatus":{"coding":[{"system":"http://terminology.hl7.org/CodeSystem/condition-clinical","code":"active","display":"Active"}]},"category":[{"coding":[{"system":"http://terminology.hl7.org/CodeSystem/condition-category","code":"problem-list-item"}]}],"code":{"coding":[{"system":"http://snomed.info/sct","code":"418290006"}]},"subject":{"reference":"Patient/21a9e846-e634-4477-ae2e-bfb678e38791"},"onsetDateTime":"2022-12-30T00:00:00+00:00"}},{"fullUrl":"Condition/f7c62efd-f29d-4ff7-a5f1-1b5c8eb98228","resource":{"resourceType":"Condition","id":"f7c62efd-f29d-4ff7-a5f1-1b5c8eb98228","meta":{"profile":["http://hl7.org/fhir/us/core/StructureDefinition/us-core-condition"]},"clinicalStatus":{"coding":[{"system":"http://terminology.hl7.org/CodeSystem/condition-clinical","code":"active","display":"Active"}]},"category":[{"coding":[{"system":"http://terminology.hl7.org/CodeSystem/condition-category","code":"problem-list-item"}]}],"code":{"coding":[{"system":"http://snomed.info/sct","code":"44882003"}]},"subject":{"reference":"Patient/21a9e846-e634-4477-ae2e-bfb678e38791"},"onsetDateTime":"2022-11-06T00:00:00+00:00"}},{"fullUrl":"Observation/165ecd3e-0cc8-482c-afa0-5e9104d205d6","resource":{"resourceType":"Observation","id":"165ecd3e-0cc8-482c-afa0-5e9104d205d6","meta":{"profile":["http://hl7.org/fhir/us/core/StructureDefinition/us-core-observation-lab"]},"status":"final","category":[{"coding":[{"system":"http://terminology.hl7.org/CodeSystem/observation-category","code":"laboratory","display":"Laboratory"}]}],"code":{"coding":[{"system":"http://loinc.org","code":"6690-2"}]},"subject":{"reference":"Patient/21a9e846-e634-4477-ae2e-bfb678e38791"},"effectiveDateTime":"2022-04-09T00:00:00+00:00","valueQuantity":{"value":6.3}}},{"fullUrl":"Observation/66683f38-4c26-4ae0-85b3-347838b5cdda","resource":{"resourceType":"Observation","id":"66683f38-4c26-4ae0-85b3-347838b5cdda","meta":{"profile":["http://hl7.org/fhir/us/core/StructureDefinition/us-core-observation-lab"]},"status":"final","category":[{"coding":[{"system":"http://terminology.hl7.org/CodeSystem/observation-category","code":"laboratory","display":"Laboratory"}]}],"code":{"coding":[{"system":"http://loinc.org","code":"26464-8"}]},"subject":{"reference":"Patient/21a9e846-e634-4477-ae2e-bfb678e38791"},"effectiveDateTime":"2022-04-23T00:00:00+00:00","valueQuantity":{"value":6.2}}},{"fullUrl":"Observation/25bb4694-3c78-4814-8b35-6b1d2d9339cc","resource":{"resourceType":"Observation","id":"25bb4694-3c78-4814-8b35-6b1d2d9339cc","meta":{"profile":["http://hl7.org/fhir/us/core/StructureDefinition/us-core-observation-lab"]},"status":"final","category":[{"coding":[{"system":"http://terminology.hl7.org/CodeSystem/observation-category","code":"laboratory","display":"Laboratory"}]}],"code":{"coding":[{"system":"http://loinc.org","code":"26464-8"}]},"subject":{"reference":"Patient/21a9e846-e634-4477-ae2e-bfb678e38791"},"effectiveDateTime":"2022-03-30T00:00:00+00:00","valueQuantity":{"value":10.3}}},{"fullUrl":"Observation/20f7b5e2-d357-4fcb-9959-13bfd40aa69e","resource":{"resourceType":"Observation","id":"20f7b5e2-d357-4fcb-9959-13bfd40aa69e","meta":{"profile":["http://hl7.org/fhir/us/core/StructureDefinition/us-core-bmi"]},"status":"final","category":[{"coding":[{"system":"http://terminology.hl7.org/CodeSystem/observation-category","code":"vital-signs","display":"Vital Signs"}]}],"code":{"coding":[{"system":"http://loinc.org","code":"39156-5"}]},"subject":{"reference":"Patient/21a9e846-e634-4477-ae2e-bfb678e38791"},"effectiveDateTime":"2022-09-30T00:00:00+00:00","valueQuantity":{"value":28.51,"unit":"kg/m2","system":"http://unitsofmeasure.org","code":"kg/m2"}}},{"fullUrl":"Observation/86cd8367-8062-43d4-beda-7359a5690e35","resource":{"resourceType":"Observation","id":"86cd8367-8062-43d4-beda-7359a5690e35","meta":{"profile":["http://hl7.org/fhir/us/core/StructureDefinition/us-core-bmi"]},"status":"final","category":[{"coding":[{"system":"http://terminology.hl7.org/CodeSystem/observation-category","code":"vital-signs","display":"Vital Signs"}]}],"code":{"coding":[{"system":"http://loinc.org","code":"39156-5"}]},"subject":{"reference":"Patient/21a9e846-e634-4477-ae2e-bfb678e38791"},"effectiveDateTime":"2022-06-09T00:00:00+00:00","valueQuantity":{"value":20.19,"unit":"kg/m2","system":"http://unitsofmeasure.org","code":"kg/m2"}}},{"fullUrl":"Observation/44a2b089-2e25-49bc-ba23-0709ee63765a","resource":{"resourceType":"Observation","id":"44a2b089-2e25-49bc-ba23-0709ee63765a","meta":{"profile":["http://hl7.org/fhir/us/core/StructureDefinition/us-core-head-circumference"]},"status":"final","category":[{"coding":[{"system":"http://terminology.hl7.org/CodeSystem/observation-category","code":"vital-signs","display":"Vital Signs"}]}],"code":{"coding":[{"system":"http://loinc.org","code":"9843-4"}]},"subject":{"reference":"Patient/21a9e846-e634-4477-ae2e-bfb678e38791"},"effectiveDateTime":"2022-11-09T00:00:00+00:00","valueQuantity":{"value":3.6,"unit":"Inch","system":"http://unitsofmeasure.org","code":"[in_i]"}}},{"fullUrl":"Observation/2ab7bcba-8b47-4c97-a206-8dafec55703a","resource":{"resourceType":"Observation","id":"2ab7bcba-8b47-4c97-a206-8dafec55703a","meta":{"profile":["http://hl7.org/fhir/us/core/StructureDefinition/us-core-head-circumference"]},"status":"final","category":[{"coding":[{"system":"http://terminology.hl7.org/CodeSystem/observation-category","code":"vital-signs","display":"Vital Signs"}]}],"code":{"coding":[{"system":"http://loinc.org","code":"9843-4"}]},"subject":{"reference":"Patient/21a9e846-e634-4477-ae2e-bfb678e38791"},"effectiveDateTime":"2022-10-14T00:00:00+00:00","valueQuantity":{"value":9.1,"unit":"Inch","system":"http://unitsofmeasure.org","code":"[in_i]"}}},{"fullUrl":"Observation/ac4586ec-d875-45fe-b88c-26ec0ec3a88f","resource":{"resourceType":"Observation","id":"ac4586ec-d875-45fe-b88c-26ec0ec3a88f","meta":{"profile":["http://hl7.org/fhir/us/core/StructureDefinition/us-core-body-height"]},"status":"final","category":[{"coding":[{"system":"http://terminology.hl7.org/CodeSystem/observation-category","code":"vital-signs","display":"Vital Signs"}]}],"code":{"coding":[{"system":"http://loinc.org","code":"8302-2"}]},"subject":{"reference":"Patient/21a9e846-e634-4477-ae2e-bfb678e38791"},"effectiveDateTime":"2022-03-24T00:00:00+00:00","valueQuantity":{"value":73.4,"unit":"Inch","system":"http://unitsofmeasure.org","code":"[in_i]"}}},{"fullUrl":"Observation/55523fe3-20f6-4034-b097-c863604140d7","resource":{"resourceType":"Observation","id":"55523fe3-20f6-4034-b097-c863604140d7","meta":{"profile":["http://hl7.org/fhir/us/core/StructureDefinition/us-core-body-height"]},"status":"final","category":[{"coding":[{"system":"http://terminology.hl7.org/CodeSystem/observation-category","code":"vital-signs","display":"Vital Signs"}]}],"code":{"coding":[{"system":"http://loinc.org","code":"8302-2"}]},"subject":{"reference":"Patient/21a9e846-e634-4477-ae2e-bfb678e38791"},"effectiveDateTime":"2022-02-17T00:00:00+00:00","valueQuantity":{"value":60.7,"unit":"Inch","system":"http://unitsofmeasure.org","code":"[in_i]"}}},{"fullUrl":"Observation/c9d4afff-8fb2-4da4-9edb-bb62bfcfd2d8","resource":{"resourceType":"Observation","id":"c9d4afff-8fb2-4da4-9edb-bb62bfcfd2d8","meta":{"profile":["http://hl7.org/fhir/us/core/StructureDefinition/us-core-body-weight"]},"status":"final","category":[{"coding":[{"system":"http://terminology.hl7.org/CodeSystem/observation-category","code":"vital-signs","display":"Vital Signs"}]}],"code":{"coding":[{"system":"http://loinc.org","code":"29463-7"}]},"subject":{"reference":"Patient/21a9e846-e634-4477-ae2e-bfb678e38791"},"effectiveDateTime":"2022-06-19T00:00:00+00:00","valueQuantity":{"value":37.2,"unit":"kilogram","system":"http://unitsofmeasure.org","code":"kg"}}},{"fullUrl":"Observation/e7aba8b0-afa2-4eac-8b45-4f260140c27f","resource":{"resourceType":"Observation","id":"e7aba8b0-afa2-4eac-8b45-4f260140c27f","meta":{"profile":["http://hl7.org/fhir/us/core/StructureDefinition/us-core-body-temperature"]},"status":"final","category":[{"coding":[{"system":"http://terminology.hl7.org/CodeSystem/observation-category","code":"vital-signs","display":"Vital Signs"}]}],"code":{"coding":[{"system":"http://loinc.org","code":"8310-5"}]},"subject":{"reference":"Patient/21a9e846-e634-4477-ae2e-bfb678e38791"},"effectiveDateTime":"2022-04-24T00:00:00+00:00","valueQuantity":{"value":146.02,"unit":"Degrees Fahrenheit","system":"http://unitsofmeasure.org","code":"[degF]"}}},{"fullUrl":"Observation/ce8a1f65-eac6-4742-9bdc-b12efb4d5463","resource":{"resourceType":"Observation","id":"ce8a1f65-eac6-4742-9bdc-b12efb4d5463","meta":{"profile":["http://hl7.org/fhir/us/core/StructureDefinition/us-core-body-temperature"]},"status":"final","category":[{"coding":[{"system":"http://terminology.hl7.org/CodeSystem/observation-category","code":"vital-signs","display":"Vital Signs"}]}],"code":{"coding":[{"system":"http://loinc.org","code":"8310-5"}]},"subject":{"reference":"Patient/21a9e846-e634-4477-ae2e-bfb678e38791"},"effectiveDateTime":"2022-06-08T00:00:00+00:00","valueQuantity":{"value":33.04,"unit":"Degrees Fahrenheit","system":"http://unitsofmeasure.org","code":"[degF]"}}},{"fullUrl":"Observation/2af38fc9-72f4-430a-acc0-7c053f260b94","resource":{"resourceType":"Observation","id":"2af38fc9-72f4-430a-acc0-7c053f260b94","meta":{"profile":["http://hl7.org/fhir/us/core/StructureDefinition/us-core-heart-rate"]},"status":"final","category":[{"coding":[{"system":"http://terminology.hl7.org/CodeSystem/observation-category","code":"vital-signs","display":"Vital Signs"}]}],"code":{"coding":[{"system":"http://loinc.org","code":"8867-4"}]},"subject":{"reference":"Patient/21a9e846-e634-4477-ae2e-bfb678e38791"},"effectiveDateTime":"2022-05-27T00:00:00+00:00","valueQuantity":{"value":101.9,"unit":"Per Minute","system":"http://unitsofmeasure.org","code":"/min"}}},{"fullUrl":"Patient/68969a8d-2d94-4ffb-bb12-987eb49a3d56","resource":{"resourceType":"Patient","id":"68969a8d-2d94-4ffb-bb12-987eb49a3d56","meta":{"profile":["http://hl7.org/fhir/us/core/StructureDefinition/us-core-patient"]},"extension":[{"extension":[{"url":"ombCategory","valueCoding":{"system":"urn:oid:2.16.840.1.113883.6.238","code":"1002-5","display":"American Indian or Alaska Native"}},{"url":"text","valueString":"American Indian or Alaska Native"}],"url":"http://hl7.org/fhir/us/core/StructureDefinition/us-core-race"},{"extension":[{"url":"ombCategory","valueCoding":{"system":"urn:oid:2.16.840.1.113883.6.238","code":"2135-2","display":"Hispanic or Latino"}},{"url":"text","valueString":"Hispanic or Latino"}],"url":"http://hl7.org/fhir/us/core/StructureDefinition/us-core-ethnicity"}],"identifier":[{"type":{"coding":[{"system":"http://terminology.hl7.org/CodeSystem/v2-0203","code":"MR"}]},"system":"urn:fhirgen:mrn","value":"663-47-2463"}],"name":[{"use":"official","family":"Reynolds","given":["Alan"]},{"use":"maiden","family":"Richard"}],"telecom":[{"system":"phone","value":"920-761-7540x520","use":"work"},{"system":"email","value":"terricole@gmail.com","use":"mobile"}],"gender":"male","birthDate":"1992-06-25","address":[{"use":"home","line":["25192 Andrew Loop"],"city":"Robertsshire","state":"IN","postalCode":"09563"},{"use":"old","line":["9513 Garcia Landing Suite 668"],"city":"South Traceybury","state":"OK","postalCode":"74023"}]}},{"fullUrl":"Observation/1c84c611-43da-4a81-8813-9e5595f61170","resource":{"resourceType":"Observation","id":"1c84c611-43da-4a81-8813-9e5595f61170","meta":{"profile":["http://hl7.org/fhir/us/core/StructureDefinition/us-core-observation-lab"]},"status":"final","category":[{"coding":[{"system":"http://terminology.hl7.org/CodeSystem/observation-category","code":"laboratory","display":"Laboratory"}]}],"code":{"coding":[{"system":"http://loinc.org","code":"26009-1"}]},"subject":{"reference":"Patient/68969a8d-2d94-4ffb-bb12-987eb49a3d56"},"effectiveDateTime":"2022-02-18T00:00:00+00:00","valueRatio":{"numerator":{"value":1},"denominator":{"value":64}}}},{"fullUrl":"Observation/079dc7c4-fa6e-425a-bb82-5915495b677d","resource":{"resourceType":"Observation","id":"079dc7c4-fa6e-425a-bb82-5915495b677d","meta":{"profile":["http://hl7.org/fhir/us/core/StructureDefinition/us-core-observation-lab"]},"status":"final","category":[{"coding":[{"system":"http://terminology.hl7.org/CodeSystem/observation-category","code":"laboratory","display":"Laboratory"}]}],"code":{"coding":[{"system":"http://loinc.org","code":"47476-7"}]},"subject":{"reference":"Patient/68969a8d-2d94-4ffb-bb12-987eb49a3d56"},"effectiveDateTime":"2022-01-24T00:00:00+00:00","valueRatio":{"numerator":{"value":1},"denominator":{"value":32}}}},{"fullUrl":"Condition/135cce2c-84e3-4914-aac1-f54de56945e5","resource":{"resourceType":"Condition","id":"135cce2c-84e3-4914-aac1-f54de56945e5","meta":{"profile":["http://hl7.org/fhir/us/core/StructureDefinition/us-core-condition"]},"clinicalStatus":{"coding":[{"system":"http://terminology.hl7.org/CodeSystem/condition-clinical","code":"active","display":"Active"}]},"category":[{"coding":[{"system":"http://terminology.hl7.org/CodeSystem/condition-category","code":"problem-list-item"}]}],"code":{"coding":[{"system":"http://snomed.info/sct","code":"91554004"}]},"subject":{"reference":"Patient/68969a8d-2d94-4ffb-bb12-987eb49a3d56"},"onsetDateTime":"2022-06-09T00:00:00+00:00"}},{"fullUrl":"Condition/0b82be2f-de2c-47f1-811f-9058835b5868","resource":{"resourceType":"Condition","id":"0b82be2f-de2c-47f1-811f-9058835b5868","meta":{"profile":["http://hl7.org/fhir/us/core/StructureDefinition/us-core-condition"]},"clinicalStatus":{"coding":[{"system":"http://terminology.hl7.org/CodeSystem/condition-clinical","code":"active","display":"Active"}]},"category":[{"coding":[{"system":"http://terminology.hl7.org/CodeSystem/condition-category","code":"problem-list-item"}]}],"code":{"coding":[{"system":"http://snomed.info/sct","code":"709977002"}]},"subject":{"reference":"Patient/68969a8d-2d94-4ffb-bb12-987eb49a3d56"},"onsetDateTime":"2022-07-25T00:00:00+00:00"}},{"fullUrl":"Condition/cfd7e055-e360-4c71-8820-c78281ba9c05","resource":{"resourceType":"Condition","id":"cfd7e055-e360-4c71-8820-c78281ba9c05","meta":{"profile":["http://hl7.org/fhir/us/core/StructureDefinition/us-core-condition"]},"clinicalStatus":{"coding":[{"system":"http://terminology.hl7.org/CodeSystem/condition-clinical","code":"active","display":"Active"}]},"category":[{"coding":[{"system":"http://terminology.hl7.org/CodeSystem/condition-category","code":"problem-list-item"}]}],"code":{"coding":[{"system":"http://snomed.info/sct","code":"44882003"}]},"subject":{"reference":"Patient/68969a8d-2d94-4ffb-bb12-987eb49a3d56"},"onsetDateTime":"2022-03-17T00:00:00+00:00"}},{"fullUrl":"Observation/eb40cb3b-73c9-4e34-a002-112ec90116fb","resource":{"resourceType":"Observation","id":"eb40cb3b-73c9-4e34-a002-112ec90116fb","meta":{"profile":["http://hl7.org/fhir/us/core/StructureDefinition/us-core-observation-lab"]},"status":"final","category":[{"coding":[{"system":"http://terminology.hl7.org/CodeSystem/observation-category","code":"laboratory","display":"Laboratory"}]}],"code":{"coding":[{"system":"http://loinc.org","code":"49498-9"}]},"subject":{"reference":"Patient/68969a8d-2d94-4ffb-bb12-987eb49a3d56"},"effectiveDateTime":"2022-07-11T00:00:00+00:00","valueQuantity":{"value":4.4}}},{"fullUrl":"Observation/11f8df08-4643-4b53-b3eb-bda3bfa61224","resource":{"resourceType":"Observation","id":"11f8df08-4643-4b53-b3eb-bda3bfa61224","meta":{"profile":["http://hl7.org/fhir/us/core/StructureDefinition/us-core-observation-lab"]},"status":"final","category":[{"coding":[{"system":"http://terminology.hl7.org/CodeSystem/observation-category","code":"laboratory","display":"Laboratory"}]}],"code":{"coding":[{"system":"http://loinc.org","code":"49498-9"}]},"subject":{"reference":"Patient/68969a8d-2d94-4ffb-bb12-987eb49a3d56"},"effectiveDateTime":"2022-06-11T00:00:00+00:00","valueQuantity":{"value":4.2}}},{"fullUrl":"Observation/a2a07b38-9f46-4bcb-aa10-dea266b00b3d","resource":{"resourceType":"Observation","id":"a2a07b38-9f46-4bcb-aa10-dea266b00b3d","meta":{"profile":["http://hl7.org/fhir/us/core/StructureDefinition/us-core-observation-lab"]},"status":"final","category":[{"coding":[{"system":"http://terminology.hl7.org/CodeSystem/observation-category","code":"laboratory","display":"Laboratory"}]}],"code":{"coding":[{"system":"http://loinc.org","code":"6690-2"}]},"subject":{"reference":"Patient/68969a8d-2d94-4ffb-bb12-987eb49a3d56"},"effectiveDateTime":"2022-01-07T00:00:00+00:00","valueQuantity":{"value":7.2}}},{"fullUrl":"Observation/e7d8417e-23b1-4e9a-a1c4-361da883004c","resource":{"resourceType":"Observation","id":"e7d8417e-23b1-4e9a-a1c4-361da883004c","meta":{"profile":["http://hl7.org/fhir/us/core/StructureDefinition/us-core-bmi"]},"status":"final","category":[{"coding":[{"system":"http://terminology.hl7.org/CodeSystem/observation-category","code":"vital-signs","display":"Vital Signs"}]}],"code":{"coding":[{"system":"http://loinc.org","code":"39156-5"}]},"subject":{"reference":"Patient/68969a8d-2d94-4ffb-bb12-987eb49a3d56"},"effectiveDateTime":"2022-08-10T00:00:00+00:00","valueQuantity":{"value":10.36,"unit":"kg/m2","system":"http://unitsofmeasure.org","code":"kg/m2"}}},{"fullUrl":"Observation/81e2b9e9-d836-4928-aa2d-125f1c149356","resource":{"resourceType":"Observation","id":"81e2b9e9-d836-4928-aa2d-125f1c149356","meta":{"profile":["http://hl7.org/fhir/us/core/StructureDefinition/us-core-bmi"]},"status":"final","category":[{"coding":[{"system":"http://terminology.hl7.org/CodeSystem/observation-category","code":"vital-signs","display":"Vital Signs"}]}],"code":{"coding":[{"system":"http://loinc.org","code":"39156-5"}]},"subject":{"reference":"Patient/68969a8d-2d94-4ffb-bb12-987eb49a3d56"},"effectiveDateTime":"2022-02-12T00:00:00+00:00","valueQuantity":{"value":12.26,"unit":"kg/m2","system":"http://unitsofmeasure.org","code":"kg/m2"}}},{"fullUrl":"Observation/d0b61621-fa77-480a-b33b-1097a461043a","resource":{"resourceType":"Observation","id":"d0b61621-fa77-480a-b33b-1097a461043a","meta":{"profile":["http://hl7.org/fhir/us/core/StructureDefinition/us-core-head-circumference"]},"status":"final","category":[{"coding":[{"system":"http://terminology.hl7.org/CodeSystem/observation-category","code":"vital-signs","display":"Vital Signs"}]}],"code":{"coding":[{"system":"http://loinc.org","code":"9843-4"}]},"subject":{"reference":"Patient/68969a8d-2d94-4ffb-bb12-987eb49a3d56"},"effectiveDateTime":"2022-02-20T00:00:00+00:00","valueQuantity":{"value":5,"unit":"Inch","system":"http://unitsofmeasure.org","code":"[in_i]"}}},{"fullUrl":"Observation/18dba7e8-5b0c-480f-8d12-8512faa5e332","resource":{"resourceType":"Observation","id":"18dba7e8-5b0c-480f-8d12-8512faa5e332","meta":{"profile":["http://hl7.org/fhir/us/core/StructureDefinition/us-core-body-height"]},"status":"final","category":[{"coding":[{"system":"http://terminology.hl7.org/CodeSystem/observation-category","code":"vital-signs","display":"Vital Signs"}]}],"code":{"coding":[{"system":"http://loinc.org","code":"8302-2"}]},"subject":{"reference":"Patient/68969a8d-2d94-4ffb-bb12-987eb49a3d56"},"effectiveDateTime":"2022-12-01T00:00:00+00:00","valueQuantity":{"value":74.1,"unit":"Inch","system":"http://unitsofmeasure.org","code":"[in_i]"}}},{"fullUrl":"Observation/342a5bd7-f4d8-40d4-a70e-0b31bc6d6519","resource":{"resourceType":"Observation","id":"342a5bd7-f4d8-40d4-a70e-0b31bc6d6519","meta":{"profile":["http://hl7.org/fhir/us/core/StructureDefinition/us-core-body-height"]},"status":"final","category":[{"coding":[{"system":"http://terminology.hl7.org/CodeSystem/observation-category","code":"vital-signs","display":"Vital Signs"}]}],"code":{"coding":[{"system":"http://loinc.org","code":"8302-2"}]},"subject":{"reference":"Patient/68969a8d-2d94-4ffb-bb12-987eb49a3d56"},"effectiveDateTime":"2022-04-30T00:00:00+00:00","valueQuantity":{"value":73.1,"unit":"Inch","system":"http://unitsofmeasure.org","code":"[in_i]"}}},{"fullUrl":"Observation/e7e44f2e-a64b-4a9e-9c60-97ca3d53dbed","resource":{"resourceType":"Observation","id":"e7e44f2e-a64b-4a9e-9c60-97ca3d53dbed","meta":{"profile":["http://hl7.org/fhir/us/core/StructureDefinition/us-core-body-weight"]},"status":"final","category":[{"coding":[{"system":"http://terminology.hl7.org/CodeSystem/observation-category","code":"vital-signs","display":"Vital Signs"}]}],"code":{"coding":[{"system":"http://loinc.org","code":"29463-7"}]},"subject":{"reference":"Patient/68969a8d-2d94-4ffb-bb12-987eb49a3d56"},"effectiveDateTime":"2022-04-19T00:00:00+00:00","valueQuantity":{"value":99.3,"unit":"kilogram","system":"http://unitsofmeasure.org","code":"kg"}}},{"fullUrl":"Observation/fdb8a0f2-924a-43a6-9b58-518321b0d1ef","resource":{"resourceType":"Observation","id":"fdb8a0f2-924a-43a6-9b58-518321b0d1ef","meta":{"profile":["http://hl7.org/fhir/us/core/StructureDefinition/us-core-body-weight"]},"status":"final","category":[{"coding":[{"system":"http://terminology.hl7.org/CodeSystem/observation-category","code":"vital-signs","display":"Vital Signs"}]}],"code":{"coding":[{"system":"http://loinc.org","code":"29463-7"}]},"subject":{"reference":"Patient/68969a8d-2d94-4ffb-bb12-987eb49a3d56"},"effectiveDateTime":"2022-09-26T00:00:00+00:00","valueQuantity":{"value":119,"unit":"kilogram","system":"http://unitsofmeasure.org","code":"kg"}}},{"fullUrl":"Observation/2550b2f2-cbfd-41eb-859f-cb2378591c25","resource":{"resourceType":"Observation","id":"2550b2f2-cbfd-41eb-859f-cb2378591c25","meta":{"profile":["http://hl7.org/fhir/us/core/StructureDefinition/us-core-body-temperature"]},"status":"final","category":[{"coding":[{"system":"http://terminology.hl7.org/CodeSystem/observation-category","code":"vital-signs","display":"Vital Signs"}]}],"code":{"coding":[{"system":"http://loinc.org","code":"8310-5"}]},"subject":{"reference":"Patient/68969a8d-2d94-4ffb-bb12-987eb49a3d56"},"effectiveDateTime":"2022-03-06T00:00:00+00:00","valueQuantity":{"value":57.32,"unit":"Degrees Fahrenheit","system":"http://unitsofmeasure.org","code":"[degF]"}}},{"fullUrl":"Observation/c6a19ada-998d-4d5a-8c90-6931924ceeee","resource":{"resourceType":"Observation","id":"c6a19ada-998d-4d5a-8c90-6931924ceeee","meta":{"profile":["http://hl7.org/fhir/us/core/StructureDefinition/us-core-body-temperature"]},"status":"final","category":[{"coding":[{"system":"http://terminology.hl7.org/CodeSystem/observation-category","code":"vital-signs","display":"Vital Signs"}]}],"code":{"coding":[{"system":"http://loinc.org","code":"8310-5"}]},"subject":{"reference":"Patient/68969a8d-2d94-4ffb-bb12-987eb49a3d56"},"effectiveDateTime":"2022-06-19T00:00:00+00:00","valueQuantity":{"value":94.42,"unit":"Degrees Fahrenheit","system":"http://unitsofmeasure.org","code":"[degF]"}}},{"fullUrl":"Observation/1bf0bdee-a125-4ab9-bff5-75779f9ca8ee","resource":{"resourceType":"Observation","id":"1bf0bdee-a125-4ab9-bff5-75779f9ca8ee","meta":{"profile":["http://hl7.org/fhir/us/core/StructureDefinition/us-core-heart-rate"]},"status":"final","category":[{"coding":[{"system":"http://terminology.hl7.org/CodeSystem/observation-category","code":"vital-signs","display":"Vital Signs"}]}],"code":{"coding":[{"system":"http://loinc.org","code":"8867-4"}]},"subject":{"reference":"Patient/68969a8d-2d94-4ffb-bb12-987eb49a3d56"},"effectiveDateTime":"2022-12-16T00:00:00+00:00","valueQuantity":{"value":100,"unit":"Per Minute","system":"http://unitsofmeasure.org","code":"/min"}}},{"fullUrl":"Observation/6f7e57b7-e7fb-4e13-adc9-8e3f0ac7a9a3","resource":{"resourceType":"Observation","id":"6f7e57b7-e7fb-4e13-adc9-8e3f0ac7a9a3","meta":{"profile":["http://hl7.org/fhir/us/core/StructureDefinition/us-core-heart-rate"]},"status":"final","category":[{"coding":[{"system":"http://terminology.hl7.org/CodeSystem/observation-category","code":"vital-signs","display":"Vital Signs"}]}],"code":{"coding":[{"system":"http://loinc.org","code":"8867-4"}]},"subject":{"reference":"Patient/68969a8d-2d94-4ffb-bb12-987eb49a3d56"},"effectiveDateTime":"2022-03-05T00:00:00+00:00","valueQuantity":{"value":95.7,"unit":"Per Minute","system":"http://unitsofmeasure.org","code":"/min"}}},{"fullUrl":"Patient/34d7ceb3-1fee-4bef-b362-8fcdeeddee26","resource":{"resourceType":"Patient","id":"34d7ceb3-1fee-4bef-b362-8fcdeeddee26","meta":{"profile":["http://hl7.org/fhir/us/core/StructureDefinition/us-core-patient"]},"extension":[{"extension":[{"url":"ombCategory","valueCoding":{"system":"urn:oid:2.16.840.1.113883.6.238","code":"2106-3","display":"White"}},{"url":"text","valueString":"White"}],"url":"http://hl7.org/fhir/us/core/StructureDefinition/us-core-race"},{"extension":[{"url":"ombCategory","valueCoding":{"system":"urn:oid:2.16.840.1.113883.6.238","code":"2135-2","display":"Hispanic or Latino"}},{"url":"text","valueString":"Hispanic or Latino"}],"url":"http://hl7.org/fhir/us/core/StructureDefinition/us-core-ethnicity"}],"identifier":[{"type":{"coding":[{"system":"http://terminology.hl7.org/CodeSystem/v2-0203","code":"MR"}]},"system":"urn:fhirgen:mrn","value":"151-57-2722"}],"name":[{"use":"official","family":"Perry","given":["Emily"]},{"use":"maiden","family":"Miller"}],"telecom":[{"system":"phone","value":"562-942-0627x283","use":"work"},{"system":"email","value":"annettemaldonado@hotmail.com","use":"home"}],"gender":"female","birthDate":"1967-10-19","address":[{"use":"home","line":["96150 Sean Mountain"],"city":"Petersonport","state":"GA","postalCode":"68523"},{"use":"old","line":["015 Veronica Walks Suite 731"],"city":"Amyview","state":"RI","postalCode":"70158"}]}},{"fullUrl":"Observation/0ef00d40-c0bb-4109-97ba-fe9aded1e1de","resource":{"resourceType":"Observation","id":"0ef00d40-c0bb-4109-97ba-fe9aded1e1de","meta":{"profile":["http://hl7.org/fhir/us/core/StructureDefinition/us-core-observation-lab"]},"status":"final","category":[{"coding":[{"system":"http://terminology.hl7.org/CodeSystem/observation-category","code":"laboratory","display":"Laboratory"}]}],"code":{"coding":[{"system":"http://loinc.org","code":"31147-2"}]},"subject":{"reference":"Patient/34d7ceb3-1fee-4bef-b362-8fcdeeddee26"},"effectiveDateTime":"2022-10-06T00:00:00+00:00","valueRatio":{"numerator":{"value":1},"denominator":{"value":32}}}},{"fullUrl":"Observation/f4544605-aac1-4406-8959-4e56558ed71b","resource":{"resourceType":"Observation","id":"f4544605-aac1-4406-8959-4e56558ed71b","meta":{"profile":["http://hl7.org/fhir/us/core/StructureDefinition/us-core-observation-lab"]},"status":"final","category":[{"coding":[{"system":"http://terminology.hl7.org/CodeSystem/observation-category","code":"laboratory","display":"Laboratory"}]}],"code":{"coding":[{"system":"http://loinc.org","code":"26009-1"}]},"subject":{"reference":"Patient/34d7ceb3-1fee-4bef-b362-8fcdeeddee26"},"effectiveDateTime":"2022-08-27T00:00:00+00:00","valueRatio":{"numerator":{"value":1},"denominator":{"value":32}}}},{"fullUrl":"Condition/615bf8f8-ec13-4ffa-87ef-f224dff4e573","resource":{"resourceType":"Condition","id":"615bf8f8-ec13-4ffa-87ef-f224dff4e573","meta":{"profile":["http://hl7.org/fhir/us/core/StructureDefinition/us-core-condition"]},"clinicalStatus":{"coding":[{"system":"http://terminology.hl7.org/CodeSystem/condition-clinical","code":"active","display":"Active"}]},"category":[{"coding":[{"system":"http://terminology.hl7.org/CodeSystem/condition-category","code":"problem-list-item"}]}],"code":{"coding":[{"system":"http://snomed.info/sct","code":"736686006"}]},"subject":{"reference":"Patient/34d7ceb3-1fee-4bef-b362-8fcdeeddee26"},"onsetDateTime":"2022-03-25T00:00:00+00:00"}},{"fullUrl":"Condition/a7bf5b95-ffc2-4f73-bbc0-1c9371683def","resource":{"resourceType":"Condition","id":"a7bf5b95-ffc2-4f73-bbc0-1c9371683def","meta":{"profile":["http://hl7.org/fhir/us/core/StructureDefinition/us-core-condition"]},"clinicalStatus":{"coding":[{"system":"http://terminology.hl7.org/CodeSystem/condition-clinical","code":"active","display":"Active"}]},"category":[{"coding":[{"system":"http://terminology.hl7.org/CodeSystem/condition-category","code":"problem-list-item"}]}],"code":{"coding":[{"system":"http://snomed.info/sct","code":"91554004"}]},"subject":{"reference":"Patient/34d7ceb3-1fee-4bef-b362-8fcdeeddee26"},"onsetDateTime":"2022-12-08T00:00:00+00:00"}},{"fullUrl":"Condition/e5e53449-03ba-4b04-ae14-e096b7897fdf","resource":{"resourceType":"Condition","id":"e5e53449-03ba-4b04-ae14-e096b7897fdf","meta":{"profile":["http://hl7.org/fhir/us/core/StructureDefinition/us-core-condition"]},"clinicalStatus":{"coding":[{"system":"http://terminology.hl7.org/CodeSystem/condition-clinical","code":"active","display":"Active"}]},"category":[{"coding":[{"system":"http://terminology.hl7.org/CodeSystem/condition-category","code":"problem-list-item"}]}],"code":{"coding":[{"system":"http://snomed.info/sct","code":"736686006"}]},"subject":{"reference":"Patient/34d7ceb3-1fee-4bef-b362-8fcdeeddee26"},"onsetDateTime":"2022-04-30T00:00:00+00:00"}},{"fullUrl":"Condition/c427429f-ddaa-40e1-b973-12fbb78a2157","resource":{"resourceType":"Condition","id":"c427429f-ddaa-40e1-b973-12fbb78a2157","meta":{"profile":["http://hl7.org/fhir/us/core/StructureDefinition/us-core-condition"]},"clinicalStatus":{"coding":[{"system":"http://terminology.hl7.org/CodeSystem/condition-clinical","code":"active","display":"Active"}]},"category":[{"coding":[{"system":"http://terminology.hl7.org/CodeSystem/condition-category","code":"problem-list-item"}]}],"code":{"coding":[{"system":"http://snomed.info/sct","code":"44882003"}]},"subject":{"reference":"Patient/34d7ceb3-1fee-4bef-b362-8fcdeeddee26"},"onsetDateTime":"2022-05-29T00:00:00+00:00"}},{"fullUrl":"Observation/7e5cf9bc-fced-484d-a4f0-8bb7e7d9f6ca","resource":{"resourceType":"Observation","id":"7e5cf9bc-fced-484d-a4f0-8bb7e7d9f6ca","meta":{"profile":["http://hl7.org/fhir/us/core/StructureDefinition/us-core-observation-lab"]},"status":"final","category":[{"coding":[{"system":"http://terminology.hl7.org/CodeSystem/observation-category","code":"laboratory","display":"Laboratory"}]}],"code":{"coding":[{"system":"http://loinc.org","code":"49498-9"}]},"subject":{"reference":"Patient/34d7ceb3-1fee-4bef-b362-8fcdeeddee26"},"effectiveDateTime":"2022-05-22T00:00:00+00:00","valueQuantity":{"value":8.8}}},{"fullUrl":"Observation/6d2ad22b-7fb4-4fba-ad49-981bbb8828a2","resource":{"resourceType":"Observation","id":"6d2ad22b-7fb4-4fba-ad49-981bbb8828a2","meta":{"profile":["http://hl7.org/fhir/us/core/StructureDefinition/us-core-observation-lab"]},"status":"final","category":[{"coding":[{"system":"http://terminology.hl7.org/CodeSystem/observation-category","code":"laboratory","display":"Laboratory"}]}],"code":{"coding":[{"system":"http://loinc.org","code":"6690-2"}]},"subject":{"reference":"Patient/34d7ceb3-1fee-4bef-b362-8fcdeeddee26"},"effectiveDateTime":"2022-09-27T00:00:00+00:00","valueQuantity":{"value":8}}},{"fullUrl":"Observation/9f9cc3ee-6d63-4ee2-a27e-b0317ef353b5","resource":{"resourceType":"Observation","id":"9f9cc3ee-6d63-4ee2-a27e-b0317ef353b5","meta":{"profile":["http://hl7.org/fhir/us/core/StructureDefinition/us-core-bmi"]},"status":"final","category":[{"coding":[{"system":"http://terminology.hl7.org/CodeSystem/observation-category","code":"vital-signs","display":"Vital Signs"}]}],"code":{"coding":[{"system":"http://loinc.org","code":"39156-5"}]},"subject":{"reference":"Patient/34d7ceb3-1fee-4bef-b362-8fcdeeddee26"},"effectiveDateTime":"2022-02-20T00:00:00+00:00","valueQuantity":{"value":11.41,"unit":"kg/m2","system":"http://unitsofmeasure.org","code":"kg/m2"}}},{"fullUrl":"Observation/92b6b8ee-0d04-4860-922e-0877a6ad26ae","resource":{"resourceType":"Observation","id":"92b6b8ee-0d04-4860-922e-0877a6ad26ae","meta":{"profile":["http://hl7.org/fhir/us/core/StructureDefinition/us-core-bmi"]},"status":"final","category":[{"coding":[{"system":"http://terminology.hl7.org/CodeSystem/observation-category","code":"vital-signs","display":"Vital Signs"}]}],"code":{"coding":[{"system":"http://loinc.org","code":"39156-5"}]},"subject":{"reference":"Patient/34d7ceb3-1fee-4bef-b362-8fcdeeddee26"},"effectiveDateTime":"2022-06-21T00:00:00+00:00","valueQuantity":{"value":12.59,"unit":"kg/m2","system":"http://unitsofmeasure.org","code":"kg/m2"}}},{"fullUrl":"Observation/b10a1c06-da7f-41b9-9d5f-2babb26eca1a","resource":{"resourceType":"Observation","id":"b10a1c06-da7f-41b9-9d5f-2babb26eca1a","meta":{"profile":["http://hl7.org/fhir/us/core/StructureDefinition/us-core-head-circumference"]},"status":"final","category":[{"coding":[{"system":"http://terminology.hl7.org/CodeSystem/observation-category","code":"vital-signs","display":"Vital Signs"}]}],"code":{"coding":[{"system":"http://loinc.org","code":"9843-4"}]},"subject":{"reference":"Patient/34d7ceb3-1fee-4bef-b362-8fcdeeddee26"},"effectiveDateTime":"2022-09-06T00:00:00+00:00","valueQuantity":{"value":6.1,"unit":"Inch","system":"http://unitsofmeasure.org","code":"[in_i]"}}},{"fullUrl":"Observation/e8f15cf9-05e5-4dc1-9ae9-7242ae38b9db","resource":{"resourceType":"Observation","id":"e8f15cf9-05e5-4dc1-9ae9-7242ae38b9db","meta":{"profile":["http://hl7.org/fhir/us/core/StructureDefinition/us-core-head-circumference"]},"status":"final","category":[{"coding":[{"system":"http://terminology.hl7.org/CodeSystem/observation-category","code":"vital-signs","display":"Vital Signs"}]}],"code":{"coding":[{"system":"http://loinc.org","code":"9843-4"}]},"subject":{"reference":"Patient/34d7ceb3-1fee-4bef-b362-8fcdeeddee26"},"effectiveDateTime":"2022-04-07T00:00:00+00:00","valueQuantity":{"value":1.5,"unit":"Inch","system":"http://unitsofmeasure.org","code":"[in_i]"}}},{"fullUrl":"Observation/99526d5f-69fa-4224-a974-4597331f916a","resource":{"resourceType":"Observation","id":"99526d5f-69fa-4224-a974-4597331f916a","meta":{"profile":["http://hl7.org/fhir/us/core/StructureDefinition/us-core-body-height"]},"status":"final","category":[{"coding":[{"system":"http://terminology.hl7.org/CodeSystem/observation-category","code":"vital-signs","display":"Vital Signs"}]}],"code":{"coding":[{"system":"http://loinc.org","code":"8302-2"}]},"subject":{"reference":"Patient/34d7ceb3-1fee-4bef-b362-8fcdeeddee26"},"effectiveDateTime":"2022-04-30T00:00:00+00:00","valueQuantity":{"value":61.8,"unit":"Inch","system":"http://unitsofmeasure.org","code":"[in_i]"}}},{"fullUrl":"Observation/cd06ee4c-aaf5-4893-9dbf-fa4043c8d989","resource":{"resourceType":"Observation","id":"cd06ee4c-aaf5-4893-9dbf-fa4043c8d989","meta":{"profile":["http://hl7.org/fhir/us/core/StructureDefinition/us-core-body-weight"]},"status":"final","category":[{"coding":[{"system":"http://terminology.hl7.org/CodeSystem/observation-category","code":"vital-signs","display":"Vital Signs"}]}],"code":{"coding":[{"system":"http://loinc.org","code":"29463-7"}]},"subject":{"reference":"Patient/34d7ceb3-1fee-4bef-b362-8fcdeeddee26"},"effectiveDateTime":"2022-11-12T00:00:00+00:00","valueQuantity":{"value":25.29,"unit":"kilogram","system":"http://unitsofmeasure.org","code":"kg"}}},{"fullUrl":"Observation/35218fec-17a2-4776-a182-83b0a3ea610e","resource":{"resourceType":"Observation","id":"35218fec-17a2-4776-a182-83b0a3ea610e","meta":{"profile":["http://hl7.org/fhir/us/core/StructureDefinition/us-core-body-weight"]},"status":"final","category":[{"coding":[{"system":"http://terminology.hl7.org/CodeSystem/observation-category","code":"vital-signs","display":"Vital Signs"}]}],"code":{"coding":[{"system":"http://loinc.org","code":"29463-7"}]},"subject":{"reference":"Patient/34d7ceb3-1fee-4bef-b362-8fcdeeddee26"},"effectiveDateTime":"2022-08-20T00:00:00+00:00","valueQuantity":{"value":41.23,"unit":"kilogram","system":"http://unitsofmeasure.org","code":"kg"}}},{"fullUrl":"Observation/38853572-c402-4543-b71d-06257b88d5f7","resource":{"resourceType":"Observation","id":"38853572-c402-4543-b71d-06257b88d5f7","meta":{"profile":["http://hl7.org/fhir/us/core/StructureDefinition/us-core-body-temperature"]},"status":"final","category":[{"coding":[{"system":"http://terminology.hl7.org/CodeSystem/observation-category","code":"vital-signs","display":"Vital Signs"}]}],"code":{"coding":[{"system":"http://loinc.org","code":"8310-5"}]},"subject":{"reference":"Patient/34d7ceb3-1fee-4bef-b362-8fcdeeddee26"},"effectiveDateTime":"2022-11-14T00:00:00+00:00","valueQuantity":{"value":21.37,"unit":"Degrees Fahrenheit","system":"http://unitsofmeasure.org","code":"[degF]"}}},{"fullUrl":"Observation/bb30d9a5-701f-4e68-affa-ed561598e9db","resource":{"resourceType":"Observation","id":"bb30d9a5-701f-4e68-affa-ed561598e9db","meta":{"profile":["http://hl7.org/fhir/us/core/StructureDefinition/us-core-heart-rate"]},"status":"final","category":[{"coding":[{"system":"http://terminology.hl7.org/CodeSystem/observation-category","code":"vital-signs","display":"Vital Signs"}]}],"code":{"coding":[{"system":"http://loinc.org","code":"8867-4"}]},"subject":{"reference":"Patient/34d7ceb3-1fee-4bef-b362-8fcdeeddee26"},"effectiveDateTime":"2022-04-23T00:00:00+00:00","valueQuantity":{"value":101.2,"unit":"Per Minute","system":"http://unitsofmeasure.org","code":"/min"}}},{"fullUrl":"Observation/9d892164-10d2-4e60-83dd-8e32fdbd7501","resource":{"resourceType":"Observation","id":"9d892164-10d2-4e60-83dd-8e32fdbd7501","meta":{"profile":["http://hl7.org/fhir/us/core/StructureDefinition/us-core-heart-rate"]},"status":"final","category":[{"coding":[{"system":"http://terminology.hl7.org/CodeSystem/observation-category","code":"vital-signs","display":"Vital Signs"}]}],"code":{"coding":[{"system":"http://loinc.org","code":"8867-4"}]},"subject":{"reference":"Patient/34d7ceb3-1fee-4bef-b362-8fcdeeddee26"},"effectiveDateTime":"2022-06-03T00:00:00+00:00","valueQuantity":{"value":101.4,"unit":"Per Minute","system":"http://unitsofmeasure.org","code":"/min"}}},{"fullUrl":"Patient/7742575e-9b4a-4423-9282-9de945c3919c","resource":{"resourceType":"Patient","id":"7742575e-9b4a-4423-9282-9de945c3919c","meta":{"profile":["http://hl7.org/fhir/us/core/StructureDefinition/us-core-patient"]},"extension":[{"extension":[{"url":"ombCategory","valueCoding":{"system":"urn:oid:2.16.840.1.113883.6.238","code":"2054-5","display":"Black or African American"}},{"url":"text","valueString":"Black or African American"}],"url":"http://hl7.org/fhir/us/core/StructureDefinition/us-core-race"},{"extension":[{"url":"ombCategory","valueCoding":{"system":"urn:oid:2.16.840.1.113883.6.238","code":"2135-2","display":"Hispanic or Latino"}},{"url":"text","valueString":"Hispanic or Latino"}],"url":"http://hl7.org/fhir/us/core/StructureDefinition/us-core-ethnicity"}],"identifier":[{"type":{"coding":[{"system":"http://terminology.hl7.org/CodeSystem/v2-0203","code":"MR"}]},"system":"urn:fhirgen:mrn","value":"132-51-5858"}],"name":[{"use":"official","family":"James","given":["Ann"]},{"use":"maiden","family":"Robertson"}],"telecom":[{"system":"phone","value":"884.825.8864x158","use":"mobile"},{"system":"email","value":"timothyrusso@yahoo.com","use":"home"}],"gender":"female","birthDate":"1986-02-19","address":[{"use":"home","line":["40720 Tara Roads"],"city":"Adamsville","state":"MO","postalCode":"11289"},{"use":"old","line":["353 Gerald Way Apt. 903"],"city":"East Joshua","state":"MT","postalCode":"91458"}]}},{"fullUrl":"Observation/19e6b4a7-8feb-42bc-ae8c-90ad1d1810b0","resource":{"resourceType":"Observation","id":"19e6b4a7-8feb-42bc-ae8c-90ad1d1810b0","meta":{"profile":["http://hl7.org/fhir/us/core/StructureDefinition/us-core-observation-lab"]},"status":"final","category":[{"coding":[{"system":"http://terminology.hl7.org/CodeSystem/observation-category","code":"laboratory","display":"Laboratory"}]}],"code":{"coding":[{"system":"http://loinc.org","code":"50695-6"}]},"subject":{"reference":"Patient/7742575e-9b4a-4423-9282-9de945c3919c"},"effectiveDateTime":"2022-05-27T00:00:00+00:00","valueRatio":{"numerator":{"value":1},"denominator":{"value":4}}}},{"fullUrl":"Observation/2b35ca36-0eea-4c76-b771-9214ce509c3b","resource":{"resourceType":"Observation","id":"2b35ca36-0eea-4c76-b771-9214ce509c3b","meta":{"profile":["http://hl7.org/fhir/us/core/StructureDefinition/us-core-observation-lab"]},"status":"final","category":[{"coding":[{"system":"http://terminology.hl7.org/CodeSystem/observation-category","code":"laboratory","display":"Laboratory"}]}],"code":{"coding":[{"system":"http://loinc.org","code":"47235-7"}]},"subject":{"reference":"Patient/7742575e-9b4a-4423-9282-9de945c3919c"},"effectiveDateTime":"2022-10-20T00:00:00+00:00","valueRatio":{"numerator":{"value":1},"denominator":{"value":32}}}},{"fullUrl":"Condition/cd52c51b-7096-4ee5-9838-f59252300301","resource":{"resourceType":"Condition","id":"cd52c51b-7096-4ee5-9838-f59252300301","meta":{"profile":["http://hl7.org/fhir/us/core/StructureDefinition/us-core-condition"]},"clinicalStatus":{"coding":[{"system":"http://terminology.hl7.org/CodeSystem/condition-clinical","code":"active","display":"Active"}]},"category":[{"coding":[{"system":"http://terminology.hl7.org/CodeSystem/condition-category","code":"problem-list-item"}]}],"code":{"coding":[{"system":"http://snomed.info/sct","code":"418290006"}]},"subject":{"reference":"Patient/7742575e-9b4a-4423-9282-9de945c3919c"},"onsetDateTime":"2022-12-29T00:00:00+00:00"}},{"fullUrl":"Condition/27693d5f-0ddc-4d70-97e0-bcec355d7c15","resource":{"resourceType":"Condition","id":"27693d5f-0ddc-4d70-97e0-bcec355d7c15","meta":{"profile":["http://hl7.org/fhir/us/core/StructureDefinition/us-core-condition"]},"clinicalStatus":{"coding":[{"system":"http://terminology.hl7.org/CodeSystem/condition-clinical","code":"active","display":"Active"}]},"category":[{"coding":[{"system":"http://terminology.hl7.org/CodeSystem/condition-category","code":"problem-list-item"}]}],"code":{"coding":[{"system":"http://snomed.info/sct","code":"44882003"}]},"subject":{"reference":"Patient/7742575e-9b4a-4423-9282-9de945c3919c"},"onsetDateTime":"2022-04-05T00:00:00+00:00"}},{"fullUrl":"Condition/1aab0493-a3ed-43a9-abd8-d42a2541a7d7","resource":{"resourceType":"Condition","id":"1aab0493-a3ed-43a9-abd8-d42a2541a7d7","meta":{"profile":["http://hl7.org/fhir/us/core/StructureDefinition/us-core-condition"]},"clinicalStatus":{"coding":[{"system":"http://terminology.hl7.org/CodeSystem/condition-clinical","code":"active","display":"Active"}]},"category":[{"coding":[{"system":"http://terminology.hl7.org/CodeSystem/condition-category","code":"problem-list-item"}]}],"code":{"coding":[{"system":"http://snomed.info/sct","code":"709977002"}]},"subject":{"reference":"Patient/7742575e-9b4a-4423-9282-9de945c3919c"},"onsetDateTime":"2022-04-24T00:00:00+00:00"}},{"fullUrl":"Condition/25e1fce7-f98d-45fa-ad2a-b2be9c022ba1","resource":{"resourceType":"Condition","id":"25e1fce7-f98d-45fa-ad2a-b2be9c022ba1","meta":{"profile":["http://hl7.org/fhir/us/core/StructureDefinition/us-core-condition"]},"clinicalStatus":{"coding":[{"system":"http://terminology.hl7.org/CodeSystem/condition-clinical","code":"active","display":"Active"}]},"category":[{"coding":[{"system":"http://terminology.hl7.org/CodeSystem/condition-category","code":"problem-list-item"}]}],"code":{"coding":[{"system":"http://snomed.info/sct","code":"418290006"}]},"subject":{"reference":"Patient/7742575e-9b4a-4423-9282-9de945c3919c"},"onsetDateTime":"2022-04-23T00:00:00+00:00"}},{"fullUrl":"Condition/e4133a60-dfd0-4da2-9e95-19a520a0a090","resource":{"resourceType":"Condition","id":"e4133a60-dfd0-4da2-9e95-19a520a0a090","meta":{"profile":["http://hl7.org/fhir/us/core/StructureDefinition/us-core-condition"]},"clinicalStatus":{"coding":[{"system":"http://terminology.hl7.org/CodeSystem/condition-clinical","code":"active","display":"Active"}]},"category":[{"coding":[{"system":"http://terminology.hl7.org/CodeSystem/condition-category","code":"problem-list-item"}]}],"code":{"coding":[{"system":"http://snomed.info/sct","code":"736686006"}]},"subject":{"reference":"Patient/7742575e-9b4a-4423-9282-9de945c3919c"},"onsetDateTime":"2022-08-11T00:00:00+00:00"}},{"fullUrl":"Condition/8f556be4-0414-465a-a98f-59839f0e8e94","resource":{"resourceType":"Condition","id":"8f556be4-0414-465a-a98f-59839f0e8e94","meta":{"profile":["http://hl7.org/fhir/us/core/StructureDefinition/us-core-condition"]},"clinicalStatus":{"coding":[{"system":"http://terminology.hl7.org/CodeSystem/condition-clinical","code":"active","display":"Active"}]},"category":[{"coding":[{"system":"http://terminology.hl7.org/CodeSystem/condition-category","code":"problem-list-item"}]}],"code":{"coding":[{"system":"http://snomed.info/sct","code":"736686006"}]},"subject":{"reference":"Patient/7742575e-9b4a-4423-9282-9de945c3919c"},"onsetDateTime":"2022-09-04T00:00:00+00:00"}},{"fullUrl":"Observation/11b6666b-47f7-4a8c-96c3-be18848bd610","resource":{"resourceType":"Observation","id":"11b6666b-47f7-4a8c-96c3-be18848bd610","meta":{"profile":["http://hl7.org/fhir/us/core/StructureDefinition/us-core-observation-lab"]},"status":"final","category":[{"coding":[{"system":"http://terminology.hl7.org/CodeSystem/observation-category","code":"laboratory","display":"Laboratory"}]}],"code":{"coding":[{"system":"http://loinc.org","code":"804-5"}]},"subject":{"reference":"Patient/7742575e-9b4a-4423-9282-9de945c3919c"},"effectiveDateTime":"2022-09-17T00:00:00+00:00","valueQuantity":{"value":4.2}}},{"fullUrl":"Observation/5bafa490-c14b-4eb4-b57d-72ef573c17f3","resource":{"resourceType":"Observation","id":"5bafa490-c14b-4eb4-b57d-72ef573c17f3","meta":{"profile":["http://hl7.org/fhir/us/core/StructureDefinition/us-core-observation-lab"]},"status":"final","category":[{"coding":[{"system":"http://terminology.hl7.org/CodeSystem/observation-category","code":"laboratory","display":"Laboratory"}]}],"code":{"coding":[{"system":"http://loinc.org","code":"49498-9"}]},"subject":{"reference":"Patient/7742575e-9b4a-4423-9282-9de945c3919c"},"effectiveDateTime":"2022-03-27T00:00:00+00:00","valueQuantity":{"value":10.2}}},{"fullUrl":"Observation/18711b89-bd9b-4909-85d7-0c9dc84a9159","resource":{"resourceType":"Observation","id":"18711b89-bd9b-4909-85d7-0c9dc84a9159","meta":{"profile":["http://hl7.org/fhir/us/core/StructureDefinition/us-core-observation-lab"]},"status":"final","category":[{"coding":[{"system":"http://terminology.hl7.org/CodeSystem/observation-category","code":"laboratory","display":"Laboratory"}]}],"code":{"coding":[{"system":"http://loinc.org","code":"6690-2"}]},"subject":{"reference":"Patient/7742575e-9b4a-4423-9282-9de945c3919c"},"effectiveDateTime":"2022-02-26T00:00:00+00:00","valueQuantity":{"value":9.3}}},{"fullUrl":"Observation/f5e62188-71a4-4b38-8924-aff1d4000185","resource":{"resourceType":"Observation","id":"f5e62188-71a4-4b38-8924-aff1d4000185","meta":{"profile":["http://hl7.org/fhir/us/core/StructureDefinition/us-core-bmi"]},"status":"final","category":[{"coding":[{"system":"http://terminology.hl7.org/CodeSystem/observation-category","code":"vital-signs","display":"Vital Signs"}]}],"code":{"coding":[{"system":"http://loinc.org","code":"39156-5"}]},"subject":{"reference":"Patient/7742575e-9b4a-4423-9282-9de945c3919c"},"effectiveDateTime":"2022-03-23T00:00:00+00:00","valueQuantity":{"value":26.52,"unit":"kg/m2","system":"http://unitsofmeasure.org","code":"kg/m2"}}},{"fullUrl":"Observation/81f3be72-3f92-4fda-9b87-78465257b207","resource":{"resourceType":"Observation","id":"81f3be72-3f92-4fda-9b87-78465257b207","meta":{"profile":["http://hl7.org/fhir/us/core/StructureDefinition/us-core-head-circumference"]},"status":"final","category":[{"coding":[{"system":"http://terminology.hl7.org/CodeSystem/observation-category","code":"vital-signs","display":"Vital Signs"}]}],"code":{"coding":[{"system":"http://loinc.org","code":"9843-4"}]},"subject":{"reference":"Patient/7742575e-9b4a-4423-9282-9de945c3919c"},"effectiveDateTime":"2022-09-11T00:00:00+00:00","valueQuantity":{"value":7.2,"unit":"Inch","system":"http://unitsofmeasure.org","code":"[in_i]"}}},{"fullUrl":"Observation/3d61db2d-3468-4a30-989f-b4f9d2b389bf","resource":{"resourceType":"Observation","id":"3d61db2d-3468-4a30-989f-b4f9d2b389bf","meta":{"profile":["http://hl7.org/fhir/us/core/StructureDefinition/us-core-body-height"]},"status":"final","category":[{"coding":[{"system":"http://terminology.hl7.org/CodeSystem/observation-category","code":"vital-signs","display":"Vital Signs"}]}],"code":{"coding":[{"system":"http://loinc.org","code":"8302-2"}]},"subject":{"reference":"Patient/7742575e-9b4a-4423-9282-9de945c3919c"},"effectiveDateTime":"2022-12-31T00:00:00+00:00","valueQuantity":{"value":63.1,"unit":"Inch","system":"http://unitsofmeasure.org","code":"[in_i]"}}},{"fullUrl":"Observation/8d62cf54-6c32-477f-b300-f77bb8cbd11f","resource":{"resourceType":"Observation","id":"8d62cf54-6c32-477f-b300-f77bb8cbd11f","meta":{"profile":["http://hl7.org/fhir/us/core/StructureDefinition/us-core-body-height"]},"status":"final","category":[{"coding":[{"system":"http://terminology.hl7.org/CodeSystem/observation-category","code":"vital-signs","display":"Vital Signs"}]}],"code":{"coding":[{"system":"http://loinc.org","code":"8302-2"}]},"subject":{"reference":"Patient/7742575e-9b4a-4423-9282-9de945c3919c"},"effectiveDateTime":"2022-04-12T00:00:00+00:00","valueQuantity":{"value":77.2,"unit":"Inch","system":"http://unitsofmeasure.org","code":"[in_i]"}}},{"fullUrl":"Observation/49b7109a-f592-4978-ab55-397b999ada7b","resource":{"resourceType":"Observation","id":"49b7109a-f592-4978-ab55-397b999ada7b","meta":{"profile":["http://hl7.org/fhir/us/core/StructureDefinition/us-core-body-weight"]},"status":"final","category":[{"coding":[{"system":"http://terminology.hl7.org/CodeSystem/observation-category","code":"vital-signs","display":"Vital Signs"}]}],"code":{"coding":[{"system":"http://loinc.org","code":"29463-7"}]},"subject":{"reference":"Patient/7742575e-9b4a-4423-9282-9de945c3919c"},"effectiveDateTime":"2022-04-11T00:00:00+00:00","valueQuantity":{"value":123.25,"unit":"kilogram","system":"http://unitsofmeasure.org","code":"kg"}}},{"fullUrl":"Observation/066888ab-14a0-4002-bba0-9cbb20350d2c","resource":{"resourceType":"Observation","id":"066888ab-14a0-4002-bba0-9cbb20350d2c","meta":{"profile":["http://hl7.org/fhir/us/core/StructureDefinition/us-core-body-temperature"]},"status":"final","category":[{"coding":[{"system":"http://terminology.hl7.org/CodeSystem/observation-category","code":"vital-signs","display":"Vital Signs"}]}],"code":{"coding":[{"system":"http://loinc.org","code":"8310-5"}]},"subject":{"reference":"Patient/7742575e-9b4a-4423-9282-9de945c3919c"},"effectiveDateTime":"2022-10-16T00:00:00+00:00","valueQuantity":{"value":38.34,"unit":"Degrees Fahrenheit","system":"http://unitsofmeasure.org","code":"[degF]"}}},{"fullUrl":"Observation/5be82887-3838-4cd1-a556-d521968e05cb","resource":{"resourceType":"Observation","id":"5be82887-3838-4cd1-a556-d521968e05cb","meta":{"profile":["http://hl7.org/fhir/us/core/StructureDefinition/us-core-heart-rate"]},"status":"final","category":[{"coding":[{"system":"http://terminology.hl7.org/CodeSystem/observation-category","code":"vital-signs","display":"Vital Signs"}]}],"code":{"coding":[{"system":"http://loinc.org","code":"8867-4"}]},"subject":{"reference":"Patient/7742575e-9b4a-4423-9282-9de945c3919c"},"effectiveDateTime":"2022-11-22T00:00:00+00:00","valueQuantity":{"value":101.7,"unit":"Per Minute","system":"http://unitsofmeasure.org","code":"/min"}}},{"fullUrl":"Patient/1a8f2c4c-8f8e-4870-9350-53d1a9032652","resource":{"resourceType":"Patient","id":"1a8f2c4c-8f8e-4870-9350-53d1a9032652","meta":{"profile":["http://hl7.org/fhir/us/core/StructureDefinition/us-core-patient"]},"extension":[{"extension":[{"url":"ombCategory","valueCoding":{"system":"urn:oid:2.16.840.1.113883.6.238","code":"2028-9","display":"Asian"}},{"url":"text","valueString":"Asian"}],"url":"http://hl7.org/fhir/us/core/StructureDefinition/us-core-race"},{"extension":[{"url":"ombCategory","valueCoding":{"system":"urn:oid:2.16.840.1.113883.6.238","code":"2186-5","display":"Non Hispanic or Latino"}},{"url":"text","valueString":"Non Hispanic or Latino"}],"url":"http://hl7.org/fhir/us/core/StructureDefinition/us-core-ethnicity"}],"identifier":[{"type":{"coding":[{"system":"http://terminology.hl7.org/CodeSystem/v2-0203","code":"MR"}]},"system":"urn:fhirgen:mrn","value":"051-30-5490"}],"name":[{"use":"official","family":"Hill","given":["Heidi"]},{"use":"maiden","family":"Reeves"}],"telecom":[{"system":"phone","value":"+1-253-664-3021x180","use":"work"},{"system":"email","value":"beth11@yahoo.com","use":"mobile"}],"gender":"other","birthDate":"1998-04-04","address":[{"use":"home","line":["6645 Nicholas Roads"],"city":"New Jenniferville","state":"IN","postalCode":"82677"},{"use":"old","line":["352 Diana Dale Suite 937"],"city":"Randolphfurt","state":"DC","postalCode":"34226"}]}},{"fullUrl":"Observation/a4c1b317-34e8-48f6-a2d5-a1ee371f2232","resource":{"resourceType":"Observation","id":"a4c1b317-34e8-48f6-a2d5-a1ee371f2232","meta":{"profile":["http://hl7.org/fhir/us/core/StructureDefinition/us-core-observation-lab"]},"status":"final","category":[{"coding":[{"system":"http://terminology.hl7.org/CodeSystem/observation-category","code":"laboratory","display":"Laboratory"}]}],"code":{"coding":[{"system":"http://loinc.org","code":"31147-2"}]},"subject":{"reference":"Patient/1a8f2c4c-8f8e-4870-9350-53d1a9032652"},"effectiveDateTime":"2022-02-28T00:00:00+00:00","valueRatio":{"numerator":{"value":1},"denominator":{"value":32}}}},{"fullUrl":"Observation/45b8e3a6-01db-48d7-8185-d1b8161b34df","resource":{"resourceType":"Observation","id":"45b8e3a6-01db-48d7-8185-d1b8161b34df","meta":{"profile":["http://hl7.org/fhir/us/core/StructureDefinition/us-core-observation-lab"]},"status":"final","category":[{"coding":[{"system":"http://terminology.hl7.org/CodeSystem/observation-category","code":"laboratory","display":"Laboratory"}]}],"code":{"coding":[{"system":"http://loinc.org","code":"34382-2"}]},"subject":{"reference":"Patient/1a8f2c4c-8f8e-4870-9350-53d1a9032652"},"effectiveDateTime":"2022-11-12T00:00:00+00:00","valueRatio":{"numerator":{"value":1},"denominator":{"value":64}}}},{"fullUrl":"Observation/31c7ae0e-43f6-4c9f-a165-9891a1f88b47","resource":{"resourceType":"Observation","id":"31c7ae0e-43f6-4c9f-a165-9891a1f88b47","meta":{"profile":["http://hl7.org/fhir/us/core/StructureDefinition/us-core-observation-lab"]},"status":"final","category":[{"coding":[{"system":"http://terminology.hl7.org/CodeSystem/observation-category","code":"laboratory","display":"Laboratory"}]}],"code":{"coding":[{"system":"http://loinc.org","code":"26009-1"}]},"subject":{"reference":"Patient/1a8f2c4c-8f8e-4870-9350-53d1a9032652"},"effectiveDateTime":"2022-04-12T00:00:00+00:00","valueRatio":{"numerator":{"value":1},"denominator":{"value":4}}}},{"fullUrl":"Condition/c3c0af66-fd1e-4767-b603-c9f5496954b3","resource":{"resourceType":"Condition","id":"c3c0af66-fd1e-4767-b603-c9f5496954b3","meta":{"profile":["http://hl7.org/fhir/us/core/StructureDefinition/us-core-condition"]},"clinicalStatus":{"coding":[{"system":"http://terminology.hl7.org/CodeSystem/condition-clinical","code":"active","display":"Active"}]},"category":[{"coding":[{"system":"http://terminology.hl7.org/CodeSystem/condition-category","code":"problem-list-item"}]}],"code":{"coding":[{"system":"http://snomed.info/sct","code":"736686006"}]},"subject":{"reference":"Patient/1a8f2c4c-8f8e-4870-9350-53d1a9032652"},"onsetDateTime":"2022-11-06T00:00:00+00:00"}},{"fullUrl":"Condition/1fd34634-1747-400c-89a7-aee835199d7d","resource":{"resourceType":"Condition","id":"1fd34634-1747-400c-89a7-aee835199d7d","meta":{"profile":["http://hl7.org/fhir/us/core/StructureDefinition/us-core-condition"]},"clinicalStatus":{"coding":[{"system":"http://terminology.hl7.org/CodeSystem/condition-clinical","code":"active","display":"Active"}]},"category":[{"coding":[{"system":"http://terminology.hl7.org/CodeSystem/condition-category","code":"problem-list-item"}]}],"code":{"coding":[{"system":"http://snomed.info/sct","code":"91554004"}]},"subject":{"reference":"Patient/1a8f2c4c-8f8e-4870-9350-53d1a9032652"},"onsetDateTime":"2022-09-09T00:00:00+00:00"}},{"fullUrl":"Condition/60c35b33-e0ba-4fa0-aa8e-883cb2c5d5d6","resource":{"resourceType":"Condition","id":"60c35b33-e0ba-4fa0-aa8e-883cb2c5d5d6","meta":{"profile":["http://hl7.org/fhir/us/core/StructureDefinition/us-core-condition"]},"clinicalStatus":{"coding":[{"system":"http://terminology.hl7.org/CodeSystem/condition-clinical","code":"active","display":"Active"}]},"category":[{"coding":[{"system":"http://terminology.hl7.org/CodeSystem/condition-category","code":"problem-list-item"}]}],"code":{"coding":[{"system":"http://snomed.info/sct","code":"709977002"}]},"subject":{"reference":"Patient/1a8f2c4c-8f8e-4870-9350-53d1a9032652"},"onsetDateTime":"2022-08-04T00:00:00+00:00"}},{"fullUrl":"Condition/bec00207-6789-4a47-bcef-1cd1d99db3bf","resource":{"resourceType":"Condition","id":"bec00207-6789-4a47-bcef-1cd1d99db3bf","meta":{"profile":["http://hl7.org/fhir/us/core/StructureDefinition/us-core-condition"]},"clinicalStatus":{"coding":[{"system":"http://terminology.hl7.org/CodeSystem/condition-clinical","code":"active","display":"Active"}]},"category":[{"coding":[{"system":"http://terminology.hl7.org/CodeSystem/condition-category","code":"problem-list-item"}]}],"code":{"coding":[{"system":"http://snomed.info/sct","code":"44882003"}]},"subject":{"reference":"Patient/1a8f2c4c-8f8e-4870-9350-53d1a9032652"},"onsetDateTime":"2022-02-26T00:00:00+00:00"}},{"fullUrl":"Condition/77b8a073-a23f-449b-90c8-701884a7e7ba","resource":{"resourceType":"Condition","id":"77b8a073-a23f-449b-90c8-701884a7e7ba","meta":{"profile":["http://hl7.org/fhir/us/core/StructureDefinition/us-core-condition"]},"clinicalStatus":{"coding":[{"system":"http://terminology.hl7.org/CodeSystem/condition-clinical","code":"active","display":"Active"}]},"category":[{"coding":[{"system":"http://terminology.hl7.org/CodeSystem/condition-category","code":"problem-list-item"}]}],"code":{"coding":[{"system":"http://snomed.info/sct","code":"91554004"}]},"subject":{"reference":"Patient/1a8f2c4c-8f8e-4870-9350-53d1a9032652"},"onsetDateTime":"2022-02-22T00:00:00+00:00"}},{"fullUrl":"Condition/c4ae5388-0609-4d7c-bff7-b871a533ebb1","resource":{"resourceType":"Condition","id":"c4ae5388-0609-4d7c-bff7-b871a533ebb1","meta":{"profile":["http://hl7.org/fhir/us/core/StructureDefinition/us-core-condition"]},"clinicalStatus":{"coding":[{"system":"http://terminology.hl7.org/CodeSystem/condition-clinical","code":"active","display":"Active"}]},"category":[{"coding":[{"system":"http://terminology.hl7.org/CodeSystem/condition-category","code":"problem-list-item"}]}],"code":{"coding":[{"system":"http://snomed.info/sct","code":"44882003"}]},"subject":{"reference":"Patient/1a8f2c4c-8f8e-4870-9350-53d1a9032652"},"onsetDateTime":"2022-09-29T00:00:00+00:00"}},{"fullUrl":"Condition/e95cdbfc-50f3-4d85-963b-f2caadae12cc","resource":{"resourceType":"Condition","id":"e95cdbfc-50f3-4d85-963b-f2caadae12cc","meta":{"profile":["http://hl7.org/fhir/us/core/StructureDefinition/us-core-condition"]},"clinicalStatus":{"coding":[{"system":"http://terminology.hl7.org/CodeSystem/condition-clinical","code":"active","display":"Active"}]},"category":[{"coding":[{"system":"http://terminology.hl7.org/CodeSystem/condition-category","code":"problem-list-item"}]}],"code":{"coding":[{"system":"http://snomed.info/sct","code":"418290006"}]},"subject":{"reference":"Patient/1a8f2c4c-8f8e-4870-9350-53d1a9032652"},"onsetDateTime":"2022-03-31T00:00:00+00:00"}},{"fullUrl":"Condition/14100c7a-e33b-4cbb-a208-6f8c08229a2b","resource":{"resourceType":"Condition","id":"14100c7a-e33b-4cbb-a208-6f8c08229a2b","meta":{"profile":["http://hl7.org/fhir/us/core/StructureDefinition/us-core-condition"]},"clinicalStatus":{"coding":[{"system":"http://terminology.hl7.org/CodeSystem/condition-clinical","code":"active","display":"Active"}]},"category":[{"coding":[{"system":"http://terminology.hl7.org/CodeSystem/condition-category","code":"problem-list-item"}]}],"code":{"coding":[{"system":"http://snomed.info/sct","code":"709977002"}]},"subject":{"reference":"Patient/1a8f2c4c-8f8e-4870-9350-53d1a9032652"},"onsetDateTime":"2022-11-02T00:00:00+00:00"}},{"fullUrl":"Observation/42846428-83ee-4180-8481-a0b1ca98cca6","resource":{"resourceType":"Observation","id":"42846428-83ee-4180-8481-a0b1ca98cca6","meta":{"profile":["http://hl7.org/fhir/us/core/StructureDefinition/us-core-observation-lab"]},"status":"final","category":[{"coding":[{"system":"http://terminology.hl7.org/CodeSystem/observation-category","code":"laboratory","display":"Laboratory"}]}],"code":{"coding":[{"system":"http://loinc.org","code":"804-5"}]},"subject":{"reference":"Patient/1a8f2c4c-8f8e-4870-9350-53d1a9032652"},"effectiveDateTime":"2022-05-08T00:00:00+00:00","valueQuantity":{"value":8.6}}},{"fullUrl":"Observation/d94db6b0-0e48-4d45-a373-af7fb4c5f4e2","resource":{"resourceType":"Observation","id":"d94db6b0-0e48-4d45-a373-af7fb4c5f4e2","meta":{"profile":["http://hl7.org/fhir/us/core/StructureDefinition/us-core-observation-lab"]},"status":"final","category":[{"coding":[{"system":"http://terminology.hl7.org/CodeSystem/observation-category","code":"laboratory","display":"Laboratory"}]}],"code":{"coding":[{"system":"http://loinc.org","code":"49498-9"}]},"subject":{"reference":"Patient/1a8f2c4c-8f8e-4870-9350-53d1a9032652"},"effectiveDateTime":"2022-01-08T00:00:00+00:00","valueQuantity":{"value":4.2}}},{"fullUrl":"Observation/91ac1a57-6e38-46fe-af9d-024b26a2a1dc","resource":{"resourceType":"Observation","id":"91ac1a57-6e38-46fe-af9d-024b26a2a1dc","meta":{"profile":["http://hl7.org/fhir/us/core/StructureDefinition/us-core-observation-lab"]},"status":"final","category":[{"coding":[{"system":"http://terminology.hl7.org/CodeSystem/observation-category","code":"laboratory","display":"Laboratory"}]}],"code":{"coding":[{"system":"http://loinc.org","code":"6690-2"}]},"subject":{"reference":"Patient/1a8f2c4c-8f8e-4870-9350-53d1a9032652"},"effectiveDateTime":"2022-05-05T00:00:00+00:00","valueQuantity":{"value":9.9}}},{"fullUrl":"Observation/a3e90574-5a18-4b97-9c2a-609f7d7a0700","resource":{"resourceType":"Observation","id":"a3e90574-5a18-4b97-9c2a-609f7d7a0700","meta":{"profile":["http://hl7.org/fhir/us/core/StructureDefinition/us-core-bmi"]},"status":"final","category":[{"coding":[{"system":"http://terminology.hl7.org/CodeSystem/observation-category","code":"vital-signs","display":"Vital Signs"}]}],"code":{"coding":[{"system":"http://loinc.org","code":"39156-5"}]},"subject":{"reference":"Patient/1a8f2c4c-8f8e-4870-9350-53d1a9032652"},"effectiveDateTime":"2022-10-18T00:00:00+00:00","valueQuantity":{"value":16.34,"unit":"kg/m2","system":"http://unitsofmeasure.org","code":"kg/m2"}}},{"fullUrl":"Observation/4089ad74-a8e3-44be-8f71-47cf2773bf18","resource":{"resourceType":"Observation","id":"4089ad74-a8e3-44be-8f71-47cf2773bf18","meta":{"profile":["http://hl7.org/fhir/us/core/StructureDefinition/us-core-bmi"]},"status":"final","category":[{"coding":[{"system":"http://terminology.hl7.org/CodeSystem/observation-category","code":"vital-signs","display":"Vital Signs"}]}],"code":{"coding":[{"system":"http://loinc.org","code":"39156-5"}]},"subject":{"reference":"Patient/1a8f2c4c-8f8e-4870-9350-53d1a9032652"},"effectiveDateTime":"2022-09-28T00:00:00+00:00","valueQuantity":{"value":21.07,"unit":"kg/m2","system":"http://unitsofmeasure.org","code":"kg/m2"}}},{"fullUrl":"Observation/7c335bd7-c8dd-48fc-be33-a7019e53a725","resource":{"resourceType":"Observation","id":"7c335bd7-c8dd-48fc-be33-a7019e53a725","meta":{"profile":["http://hl7.org/fhir/us/core/StructureDefinition/us-core-head-circumference"]},"status":"final","category":[{"coding":[{"system":"http://terminology.hl7.org/CodeSystem/observation-category","code":"vital-signs","display":"Vital Signs"}]}],"code":{"coding":[{"system":"http://loinc.org","code":"9843-4"}]},"subject":{"reference":"Patient/1a8f2c4c-8f8e-4870-9350-53d1a9032652"},"effectiveDateTime":"2022-06-06T00:00:00+00:00","valueQuantity":{"value":3.2,"unit":"Inch","system":"http://unitsofmeasure.org","code":"[in_i]"}}},{"fullUrl":"Observation/55f683f5-4627-4942-a19d-6862f6522409","resource":{"resourceType":"Observation","id":"55f683f5-4627-4942-a19d-6862f6522409","meta":{"profile":["http://hl7.org/fhir/us/core/StructureDefinition/us-core-head-circumference"]},"status":"final","category":[{"coding":[{"system":"http://terminology.hl7.org/CodeSystem/observation-category","code":"vital-signs","display":"Vital Signs"}]}],"code":{"coding":[{"system":"http://loinc.org","code":"9843-4"}]},"subject":{"reference":"Patient/1a8f2c4c-8f8e-4870-9350-53d1a9032652"},"effectiveDateTime":"2022-01-15T00:00:00+00:00","valueQuantity":{"value":9.3,"unit":"Inch","system":"http://unitsofmeasure.org","code":"[in_i]"}}},{"fullUrl":"Observation/eb72010c-b7b3-4e6d-91a0-19b2330dd563","resource":{"resourceType":"Observation","id":"eb72010c-b7b3-4e6d-91a0-19b2330dd563","meta":{"profile":["http://hl7.org/fhir/us/core/StructureDefinition/us-core-body-height"]},"status":"final","category":[{"coding":[{"system":"http://terminology.hl7.org/CodeSystem/observation-category","code":"vital-signs","display":"Vital Signs"}]}],"code":{"coding":[{"system":"http://loinc.org","code":"8302-2"}]},"subject":{"reference":"Patient/1a8f2c4c-8f8e-4870-9350-53d1a9032652"},"effectiveDateTime":"2022-04-12T00:00:00+00:00","valueQuantity":{"value":81.9,"unit":"Inch","system":"http://unitsofmeasure.org","code":"[in_i]"}}},{"fullUrl":"Observation/5f92be10-fc0a-4418-a11f-bc0748b30f67","resource":{"resourceType":"Observation","id":"5f92be10-fc0a-4418-a11f-bc0748b30f67","meta":{"profile":["http://hl7.org/fhir/us/core/StructureDefinition/us-core-body-height"]},"status":"final","category":[{"coding":[{"system":"http://terminology.hl7.org/CodeSystem/observation-category","code":"vital-signs","display":"Vital Signs"}]}],"code":{"coding":[{"system":"http://loinc.org","code":"8302-2"}]},"subject":{"reference":"Patient/1a8f2c4c-8f8e-4870-9350-53d1a9032652"},"effectiveDateTime":"2022-03-30T00:00:00+00:00","valueQuantity":{"value":68,"unit":"Inch","system":"http://unitsofmeasure.org","code":"[in_i]"}}},{"fullUrl":"Observation/714ea015-88cf-4bb2-aa32-d18d712fa565","resource":{"resourceType":"Observation","id":"714ea015-88cf-4bb2-aa32-d18d712fa565","meta":{"profile":["http://hl7.org/fhir/us/core/StructureDefinition/us-core-body-weight"]},"status":"final","category":[{"coding":[{"system":"http://terminology.hl7.org/CodeSystem/observation-category","code":"vital-signs","display":"Vital Signs"}]}],"code":{"coding":[{"system":"http://loinc.org","code":"29463-7"}]},"subject":{"reference":"Patient/1a8f2c4c-8f8e-4870-9350-53d1a9032652"},"effectiveDateTime":"2022-03-25T00:00:00+00:00","valueQuantity":{"value":37.82,"unit":"kilogram","system":"http://unitsofmeasure.org","code":"kg"}}},{"fullUrl":"Observation/3b4448e1-3b6c-42cd-841f-f25d7c9e9e3b","resource":{"resourceType":"Observation","id":"3b4448e1-3b6c-42cd-841f-f25d7c9e9e3b","meta":{"profile":["http://hl7.org/fhir/us/core/StructureDefinition/us-core-body-temperature"]},"status":"final","category":[{"coding":[{"system":"http://terminology.hl7.org/CodeSystem/observation-category","code":"vital-signs","display":"Vital Signs"}]}],"code":{"coding":[{"system":"http://loinc.org","code":"8310-5"}]},"subject":{"reference":"Patient/1a8f2c4c-8f8e-4870-9350-53d1a9032652"},"effectiveDateTime":"2022-08-06T00:00:00+00:00","valueQuantity":{"value":93.23,"unit":"Degrees Fahrenheit","system":"http://unitsofmeasure.org","code":"[degF]"}}},{"fullUrl":"Observation/664b6849-d587-49ef-8d51-63e006b5eddc","resource":{"resourceType":"Observation","id":"664b6849-d587-49ef-8d51-63e006b5eddc","meta":{"profile":["http://hl7.org/fhir/us/core/StructureDefinition/us-core-body-temperature"]},"status":"final","category":[{"coding":[{"system":"http://terminology.hl7.org/CodeSystem/observation-category","code":"vital-signs","display":"Vital Signs"}]}],"code":{"coding":[{"system":"http://loinc.org","code":"8310-5"}]},"subject":{"reference":"Patient/1a8f2c4c-8f8e-4870-9350-53d1a9032652"},"effectiveDateTime":"2022-10-23T00:00:00+00:00","valueQuantity":{"value":20.6,"unit":"Degrees Fahrenheit","system":"http://unitsofmeasure.org","code":"[degF]"}}},{"fullUrl":"Observation/5e2104b5-8f01-4d9a-9ce0-b422f4da7353","resource":{"resourceType":"Observation","id":"5e2104b5-8f01-4d9a-9ce0-b422f4da7353","meta":{"profile":["http://hl7.org/fhir/us/core/StructureDefinition/us-core-heart-rate"]},"status":"final","category":[{"coding":[{"system":"http://terminology.hl7.org/CodeSystem/observation-category","code":"vital-signs","display":"Vital Signs"}]}],"code":{"coding":[{"system":"http://loinc.org","code":"8867-4"}]},"subject":{"reference":"Patient/1a8f2c4c-8f8e-4870-9350-53d1a9032652"},"effectiveDateTime":"2022-10-26T00:00:00+00:00","valueQuantity":{"value":101.1,"unit":"Per Minute","system":"http://unitsofmeasure.org","code":"/min"}}},{"fullUrl":"Observation/804b1c5c-364b-4c4c-be66-469fdccebaa2","resource":{"resourceType":"Observation","id":"804b1c5c-364b-4c4c-be66-469fdccebaa2","meta":{"profile":["http://hl7.org/fhir/us/core/StructureDefinition/us-core-heart-rate"]},"status":"final","category":[{"coding":[{"system":"http://terminology.hl7.org/CodeSystem/observation-category","code":"vital-signs","display":"Vital Signs"}]}],"code":{"coding":[{"system":"http://loinc.org","code":"8867-4"}]},"subject":{"reference":"Patient/1a8f2c4c-8f8e-4870-9350-53d1a9032652"},"effectiveDateTime":"2022-06-06T00:00:00+00:00","valueQuantity":{"value":95.4,"unit":"Per Minute","system":"http://unitsofmeasure.org","code":"/min"}}}]}