{"resourceType":"Bundle","id":"f363b3e6-cb14-461a-a01a-3fc25eb12d70","type":"transaction","entry":[{"fullUrl":"Patient/46b6a894-8b82-4a98-b5d9-fa23af1bcbd4","resource":{"resourceType":"Patient","id":"46b6a894-8b82-4a98-b5d9-fa23af1bcbd4","meta":{"profile":["http://hl7.org/fhir/us/core/StructureDefinition/us-core-patient"]},"extension":[{"extension":[{"url":"ombCategory","valueCoding":{"system":"urn:oid:2.16.840.1.113883.6.238","code":"2076-8","display":"Native Hawaiian or Other Pacific Islander"}},{"url":"text","valueString":"Native Hawaiian or Other Pacific Islander"}],"url":"http://hl7.org/fhir/us/core/StructureDefinition/us-core-race"},{"extension":[{"url":"ombCategory","valueCoding":{"system":"urn:oid:2.16.840.1.113883.6.238","code":"2135-2","display":"Hispanic or Latino"}},{"url":"text","valueString":"Hispanic or Latino"}],"url":"http://hl7.org/fhir/us/core/StructureDefinition/us-core-ethnicity"}],"identifier":[{"type":{"coding":[{"system":"http://terminology.hl7.org/CodeSystem/v2-0203","code":"MR"}]},"system":"urn:fhirgen:mrn","value":"159-49-2342"}],"name":[{"use":"official","family":"Waters","given":["Jeffrey"]},{"use":"maiden","family":"Clarke"}],"telecom":[{"system":"phone","value":"1495758161","use":"mobile"},{"system":"email","value":"morrisconnie@yahoo.com","use":"work"}],"gender":"male","birthDate":"1969-06-23","address":[{"use":"home","line":["4126 Lane Island"],"city":"Christophermouth","state":"MS","postalCode":"33382"},{"use":"old","line":["63434 Robert Keys"],"city":"South Jerry","state":"MN","postalCode":"62439"}]},"request":{"method":"POST","url":"Patient"}},{"fullUrl":"Observation/9b58e137-b1b6-4607-bd63-86f1dcb5bfa8","resource":{"resourceType":"Observation","id":"9b58e137-b1b6-4607-bd63-86f1dcb5bfa8","meta":{"profile":["http://hl7.org/fhir/us/core/StructureDefinition/us-core-observation-lab"]},"status":"final","category":[{"coding":[{"system":"http://terminology.hl7.org/CodeSystem/observation-category","code":"laboratory","display":"Laboratory"}]}],"code":{"coding":[{"system":"http://loinc.org","code":"22590-4"}]},"subject":{"reference":"Patient/46b6a894-8b82-4a98-b5d9-fa23af1bcbd4"},"effectiveDateTime":"2022-08-30T00:00:00+00:00","valueRatio":{"numerator":{"value":1},"denominator":{"value":32}}},"request":{"method":"POST","url":"Observation"}},{"fullUrl":"Observation/2ae90925-4da4-4261-8b71-58716fb950b6","resource":{"resourceType":"Observation","id":"2ae90925-4da4-4261-8b71-58716fb950b6","meta":{"profile":["http://hl7.org/fhir/us/core/StructureDefinition/us-core-observation-lab"]},"status":"final","category":[{"coding":[{"system":"http://terminology.hl7.org/CodeSystem/observation-category","code":"laboratory","display":"Laboratory"}]}],"code":{"coding":[{"system":"http://loinc.org","code":"34382-2"}]},"subject":{"reference":"Patient/46b6a894-8b82-4a98-b5d9-fa23af1bcbd4"},"effectiveDateTime":"2022-03-20T00:00:00+00:00","valueRatio":{"numerator":{"value":1},"denominator":{"value":4}}},"request":{"method":"POST","url":"Observation"}},{"fullUrl":"Observation/d7fe79b8-f0cc-4871-8db6-8ee201fae532","resource":{"resourceType":"Observation","id":"d7fe79b8-f0cc-4871-8db6-8ee201fae532","meta":{"profile":["http://hl7.org/fhir/us/core/StructureDefinition/us-core-observation-lab"]},"status":"final","category":[{"coding":[{"system":"http://terminology.hl7.org/CodeSystem/observation-category","code":"laboratory","display":"Laboratory"}]}],"code":{"coding":[{"system":"http://loinc.org","code":"26009-1"}]},"subject":{"reference":"Patient/46b6a894-8b82-4a98-b5d9-fa23af1bcbd4"},"effectiveDateTime":"2022-12-28T00:00:00+00:00","valueRatio":{"numerator":{"value":1},"denominator":{"value":32}}},"request":{"method":"POST","url":"Observation"}},{"fullUrl":"Condition/840f95ed-a763-476c-91fc-638346af89ed","resource":{"resourceType":"Condition","id":"840f95ed-a763-476c-91fc-638346af89ed","meta":{"profile":["http://hl7.org/fhir/us/core/StructureDefinition/us-core-condition"]},"clinicalStatus":{"coding":[{"system":"http://terminology.hl7.org/CodeSystem/condition-clinical","code":"active","display":"Active"}]},"category":[{"coding":[{"system":"http://terminology.hl7.org/CodeSystem/condition-category","code":"problem-list-item"}]}],"code":{"coding":[{"system":"http://snomed.info/sct","code":"91554004"}]},"subject":{"reference":"Patient/46b6a894-8b82-4a98-b5d9-fa23af1bcbd4"},"onsetDateTime":"2022-09-03T00:00:00+00:00"},"request":{"method":"POST","url":"Condition"}},{"fullUrl":"Condition/d97918f1-a896-467b-a7c4-76fb72bd364e","resource":{"resourceType":"Condition","id":"d97918f1-a896-467b-a7c4-76fb72bd364e","meta":{"profile":["http://hl7.org/fhir/us/core/StructureDefinition/us-core-condition"]},"clinicalStatus":{"coding":[{"system":"http://terminology.hl7.org/CodeSystem/condition-clinical","code":"active","display":"Active"}]},"category":[{"coding":[{"system":"http://terminology.hl7.org/CodeSystem/condition-category","code":"problem-list-item"}]}],"code":{"coding":[{"system":"http://snomed.info/sct","code":"709977002"}]},"subject":{"reference":"Patient/46b6a894-8b82-4a98-b5d9-fa23af1bcbd4"},"onsetDateTime":"2022-09-26T00:00:00+00:00"},"request":{"method":"POST","url":"Condition"}},{"fullUrl":"Condition/4cb71800-5735-457e-9e5d-aaf39b74a615","resource":{"resourceType":"Condition","id":"4cb71800-5735-457e-9e5d-aaf39b74a615","meta":{"profile":["http://hl7.org/fhir/us/core/StructureDefinition/us-core-condition"]},"clinicalStatus":{"coding":[{"system":"http://terminology.hl7.org/CodeSystem/condition-clinical","code":"active","display":"Active"}]},"category":[{"coding":[{"system":"http://terminology.hl7.org/CodeSystem/condition-category","code":"problem-list-item"}]}],"code":{"coding":[{"system":"http://snomed.info/sct","code":"91554004"}]},"subject":{"reference":"Patient/46b6a894-8b82-4a98-b5d9-fa23af1bcbd4"},"onsetDateTime":"2022-07-17T00:00:00+00:00"},"request":{"method":"POST","url":"Condition"}},{"fullUrl":"Condition/09002d63-1b4d-4019-b354-d7938446840c","resource":{"resourceType":"Condition","id":"09002d63-1b4d-4019-b354-d7938446840c","meta":{"profile":["http://hl7.org/fhir/us/core/StructureDefinition/us-core-condition"]},"clinicalStatus":{"coding":[{"system":"http://terminology.hl7.org/CodeSystem/condition-clinical","code":"active","display":"Active"}]},"category":[{"coding":[{"system":"http://terminology.hl7.org/CodeSystem/condition-category","code":"problem-list-item"}]}],"code":{"coding":[{"system":"http://snomed.info/sct","code":"91554004"}]},"subject":{"reference":"Patient/46b6a894-8b82-4a98-b5d9-fa23af1bcbd4"},"onsetDateTime":"2022-08-25T00:00:00+00:00"},"request":{"method":"POST","url":"Condition"}},{"fullUrl":"Condition/34669dbb-a7c6-4ead-90db-da1f22f14842","resource":{"resourceType":"Condition","id":"34669dbb-a7c6-4ead-90db-da1f22f14842","meta":{"profile":["http://hl7.org/fhir/us/core/StructureDefinition/us-core-condition"]},"clinicalStatus":{"coding":[{"system":"http://terminology.hl7.org/CodeSystem/condition-clinical","code":"active","display":"Active"}]},"category":[{"coding":[{"system":"http://terminology.hl7.org/CodeSystem/condition-category","code":"problem-list-item"}]}],"code":{"coding":[{"system":"http://snomed.info/sct","code":"709977002"}]},"subject":{"reference":"Patient/46b6a894-8b82-4a98-b5d9-fa23af1bcbd4"},"onsetDateTime":"2022-05-19T00:00:00+00:00"},"request":{"method":"POST","url":"Condition"}},{"fullUrl":"Observation/e2bab038-188d-4f54-b580-d54688ddff60","resource":{"resourceType":"Observation","id":"e2bab038-188d-4f54-b580-d54688ddff60","meta":{"profile":["http://hl7.org/fhir/us/core/StructureDefinition/us-core-observation-lab"]},"status":"final","category":[{"coding":[{"system":"http://terminology.hl7.org/CodeSystem/observation-category","code":"laboratory","display":"Laboratory"}]}],"code":{"coding":[{"system":"http://loinc.org","code":"6690-2"}]},"subject":{"reference":"Patient/46b6a894-8b82-4a98-b5d9-fa23af1bcbd4"},"effectiveDateTime":"2022-11-29T00:00:00+00:00","valueQuantity":{"value":9.9}},"request":{"method":"POST","url":"Observation"}},{"fullUrl":"Observation/2176f322-2b6c-46fc-947d-47089a064925","resource":{"resourceType":"Observation","id":"2176f322-2b6c-46fc-947d-47089a064925","meta":{"profile":["http://hl7.org/fhir/us/core/StructureDefinition/us-core-observation-lab"]},"status":"final","category":[{"coding":[{"system":"http://terminology.hl7.org/CodeSystem/observation-category","code":"laboratory","display":"Laboratory"}]}],"code":{"coding":[{"system":"http://loinc.org","code":"6690-2"}]},"subject":{"reference":"Patient/46b6a894-8b82-4a98-b5d9-fa23af1bcbd4"},"effectiveDateTime":"2022-04-23T00:00:00+00:00","valueQuantity":{"value":4.8}},"request":{"method":"POST","url":"Observation"}},{"fullUrl":"Observation/8c3d3ac3-f588-437c-a45a-94b13d22c580","resource":{"resourceType":"Observation","id":"8c3d3ac3-f588-437c-a45a-94b13d22c580","meta":{"profile":["http://hl7.org/fhir/us/core/StructureDefinition/us-core-bmi"]},"status":"final","category":[{"coding":[{"system":"http://terminology.hl7.org/CodeSystem/observation-category","code":"vital-signs","display":"Vital Signs"}]}],"code":{"coding":[{"system":"http://loinc.org","code":"39156-5"}]},"subject":{"reference":"Patient/46b6a894-8b82-4a98-b5d9-fa23af1bcbd4"},"effectiveDateTime":"2022-04-08T00:00:00+00:00","valueQuantity":{"value":12,"unit":"kg/m2","system":"http://unitsofmeasure.org","code":"kg/m2"}},"request":{"method":"POST","url":"Observation"}},{"fullUrl":"Observation/f39ec343-bc17-4ef8-8e8a-7505daf789c8","resource":{"resourceType":"Observation","id":"f39ec343-bc17-4ef8-8e8a-7505daf789c8","meta":{"profile":["http://hl7.org/fhir/us/core/StructureDefinition/us-core-bmi"]},"status":"final","category":[{"coding":[{"system":"http://terminology.hl7.org/CodeSystem/observation-category","code":"vital-signs","display":"Vital Signs"}]}],"code":{"coding":[{"system":"http://loinc.org","code":"39156-5"}]},"subject":{"reference":"Patient/46b6a894-8b82-4a98-b5d9-fa23af1bcbd4"},"effectiveDateTime":"2022-11-09T00:00:00+00:00","valueQuantity":{"value":26.11,"unit":"kg/m2","system":"http://unitsofmeasure.org","code":"kg/m2"}},"request":{"method":"POST","url":"Observation"}},{"fullUrl":"Observation/3510c5a1-78a3-4f38-a670-ce169818ed69","resource":{"resourceType":"Observation","id":"3510c5a1-78a3-4f38-a670-ce169818ed69","meta":{"profile":["http://hl7.org/fhir/us/core/StructureDefinition/us-core-head-circumference"]},"status":"final","category":[{"coding":[{"system":"http://terminology.hl7.org/CodeSystem/observation-category","code":"vital-signs","display":"Vital Signs"}]}],"code":{"coding":[{"system":"http://loinc.org","code":"9843-4"}]},"subject":{"reference":"Patient/46b6a894-8b82-4a98-b5d9-fa23af1bcbd4"},"effectiveDateTime":"2022-02-25T00:00:00+00:00","valueQuantity":{"value":8.8,"unit":"Inch","system":"http://unitsofmeasure.org","code":"[in_i]"}},"request":{"method":"POST","url":"Observation"}},{"fullUrl":"Observation/bb18128c-b8d4-42c8-8f95-6fee70ff761e","resource":{"resourceType":"Observation","id":"bb18128c-b8d4-42c8-8f95-6fee70ff761e","meta":{"profile":["http://hl7.org/fhir/us/core/StructureDefinition/us-core-head-circumference"]},"status":"final","category":[{"coding":[{"system":"http://terminology.hl7.org/CodeSystem/observation-category","code":"vital-signs","display":"Vital Signs"}]}],"code":{"coding":[{"system":"http://loinc.org","code":"9843-4"}]},"subject":{"reference":"Patient/46b6a894-8b82-4a98-b5d9-fa23af1bcbd4"},"effectiveDateTime":"2022-12-30T00:00:00+00:00","valueQuantity":{"value":10,"unit":"Inch","system":"http://unitsofmeasure.org","code":"[in_i]"}},"request":{"method":"POST","url":"Observation"}},{"fullUrl":"Observation/705b2b00-8838-4ddc-be97-059eede9d52a","resource":{"resourceType":"Observation","id":"705b2b00-8838-4ddc-be97-059eede9d52a","meta":{"profile":["http://hl7.org/fhir/us/core/StructureDefinition/us-core-body-height"]},"status":"final","category":[{"coding":[{"system":"http://terminology.hl7.org/CodeSystem/observation-category","code":"vital-signs","display":"Vital Signs"}]}],"code":{"coding":[{"system":"http://loinc.org","code":"8302-2"}]},"subject":{"reference":"Patient/46b6a894-8b82-4a98-b5d9-fa23af1bcbd4"},"effectiveDateTime":"2022-08-22T00:00:00+00:00","valueQuantity":{"value":71.9,"unit":"Inch","system":"http://unitsofmeasure.org","code":"[in_i]"}},"request":{"method":"POST","url":"Observation"}},{"fullUrl":"Observation/373a3687-7b25-4258-831a-d93a82c9592a","resource":{"resourceType":"Observation","id":"373a3687-7b25-4258-831a-d93a82c9592a","meta":{"profile":["http://hl7.org/fhir/us/core/StructureDefinition/us-core-body-height"]},"status":"final","category":[{"coding":[{"system":"http://terminology.hl7.org/CodeSystem/observation-category","code":"vital-signs","display":"Vital Signs"}]}],"code":{"coding":[{"system":"http://loinc.org","code":"8302-2"}]},"subject":{"reference":"Patient/46b6a894-8b82-4a98-b5d9-fa23af1bcbd4"},"effectiveDateTime":"2022-12-09T00:00:00+00:00","valueQuantity":{"value":60.3,"unit":"Inch","system":"http://unitsofmeasure.org","code":"[in_i]"}},"request":{"method":"POST","url":"Observation"}},{"fullUrl":"Observation/fec82dde-9bff-4057-b1de-4812c0584768","resource":{"resourceType":"Observation","id":"fec82dde-9bff-4057-b1de-4812c0584768","meta":{"profile":["http://hl7.org/fhir/us/core/StructureDefinition/us-core-body-weight"]},"status":"final","category":[{"coding":[{"system":"http://terminology.hl7.org/CodeSystem/observation-category","code":"vital-signs","display":"Vital Signs"}]}],"code":{"coding":[{"system":"http://loinc.org","code":"29463-7"}]},"subject":{"reference":"Patient/46b6a894-8b82-4a98-b5d9-fa23af1bcbd4"},"effectiveDateTime":"2022-09-30T00:00:00+00:00","valueQuantity":{"value":114.29,"unit":"kilogram","system":"http://unitsofmeasure.org","code":"kg"}},"request":{"method":"POST","url":"Observation"}},{"fullUrl":"Observation/cc1a623e-818b-4e37-b6a2-539b6ca90221","resource":{"resourceType":"Observation","id":"cc1a623e-818b-4e37-b6a2-539b6ca90221","meta":{"profile":["http://hl7.org/fhir/us/core/StructureDefinition/us-core-body-temperature"]},"status":"final","category":[{"coding":[{"system":"http://terminology.hl7.org/CodeSystem/observation-category","code":"vital-signs","display":"Vital Signs"}]}],"code":{"coding":[{"system":"http://loinc.org","code":"8310-5"}]},"subject":{"reference":"Patient/46b6a894-8b82-4a98-b5d9-fa23af1bcbd4"},"effectiveDateTime":"2022-03-01T00:00:00+00:00","valueQuantity":{"value":104.69,"unit":"Degrees Fahrenheit","system":"http://unitsofmeasure.org","code":"[degF]"}},"request":{"method":"POST","url":"Observation"}},{"fullUrl":"Observation/1a226d7a-7737-42b3-86ae-30d8a584066d","resource":{"resourceType":"Observation","id":"1a226d7a-7737-42b3-86ae-30d8a584066d","meta":{"profile":["http://hl7.org/fhir/us/core/StructureDefinition/us-core-heart-rate"]},"status":"final","category":[{"coding":[{"system":"http://terminology.hl7.org/CodeSystem/observation-category","code":"vital-signs","display":"Vital Signs"}]}],"code":{"coding":[{"system":"http://loinc.org","code":"8867-4"}]},"subject":{"reference":"Patient/46b6a894-8b82-4a98-b5d9-fa23af1bcbd4"},"effectiveDateTime":"2022-03-16T00:00:00+00:00","valueQuantity":{"value":98.2,"unit":"Per Minute","system":"http://unitsofmeasure.org","code":"/min"}},"request":{"method":"POST","url":"Observation"}},{"fullUrl":"Observation/53729c6f-38f3-4a8b-a1eb-f9bfb03a2fcb","resource":{"resourceType":"Observation","id":"53729c6f-38f3-4a8b-a1eb-f9bfb03a2fcb","meta":{"profile":["http://hl7.org/fhir/us/core/StructureDefinition/us-core-heart-rate"]},"status":"final","category":[{"coding":[{"system":"http://terminology.hl7.org/CodeSystem/observation-category","code":"vital-signs","display":"Vital Signs"}]}],"code":{"coding":[{"system":"http://loinc.org","code":"8867-4"}]},"subject":{"reference":"Patient/46b6a894-8b82-4a98-b5d9-fa23af1bcbd4"},"effectiveDateTime":"2022-12-19T00:00:00+00:00","valueQuantity":{"value":95,"unit":"Per Minute","system":"http://unitsofmeasure.org","code":"/min"}},"request":{"method":"POST","url":"Observation"}},{"fullUrl":"Patient/1d2b195b-16f7-42da-bcd1-43e6bd3d2c52","resource":{"resourceType":"Patient","id":"1d2b195b-16f7-42da-bcd1-43e6bd3d2c52","meta":{"profile":["http://hl7.org/fhir/us/core/StructureDefinition/us-core-patient"]},"extension":[{"extension":[{"url":"ombCategory","valueCoding":{"system":"urn:oid:2.16.840.1.113883.6.238","code":"2028-9","display":"Asian"}},{"url":"text","valueString":"Asian"}],"url":"http://hl7.org/fhir/us/core/StructureDefinition/us-core-race"},{"extension":[{"url":"ombCategory","valueCoding":{"system":"urn:oid:2.16.840.1.113883.6.238","code":"2135-2","display":"Hispanic or Latino"}},{"url":"text","valueString":"Hispanic or Latino"}],"url":"http://hl7.org/fhir/us/core/StructureDefinition/us-core-ethnicity"}],"identifier":[{"type":{"coding":[{"system":"http://terminology.hl7.org/CodeSystem/v2-0203","code":"MR"}]},"system":"urn:fhirgen:mrn","value":"641-35-2149"}],"name":[{"use":"official","family":"Scott","given":["Jon"]},{"use":"maiden","family":"Page"}],"telecom":[{"system":"phone","value":"+1-165-809-8401x26920","use":"mobile"},{"system":"email","value":"taylorsamantha@yahoo.com","use":"work"}],"gender":"male","birthDate":"1969-12-03","address":[{"use":"home","line":["5251 Juarez Island"],"city":"Port Nicole","state":"OR","postalCode":"21472"},{"use":"old","line":["001 Williams Hill"],"city":"Murphyfort","state":"ME","postalCode":"40944"}]},"request":{"method":"POST","url":"Patient"}},{"fullUrl":"Observation/c1e3b9ef-afd7-4c1c-90fe-a00e3ca85d81","resource":{"resourceType":"Observation","id":"c1e3b9ef-afd7-4c1c-90fe-a00e3ca85d81","meta":{"profile":["http://hl7.org/fhir/us/core/StructureDefinition/us-core-observation-lab"]},"status":"final","category":[{"coding":[{"system":"http://terminology.hl7.org/CodeSystem/observation-category","code":"laboratory","display":"Laboratory"}]}],"code":{"coding":[{"system":"http://loinc.org","code":"47476-7"}]},"subject":{"reference":"Patient/1d2b195b-16f7-42da-bcd1-43e6bd3d2c52"},"effectiveDateTime":"2022-07-19T00:00:00+00:00","valueRatio":{"numerator":{"value":1},"denominator":{"value":32}}},"request":{"method":"POST","url":"Observation"}},{"fullUrl":"Observation/5c5d212e-c3f9-463e-9494-bb47037b258b","resource":{"resourceType":"Observation","id":"5c5d212e-c3f9-463e-9494-bb47037b258b","meta":{"profile":["http://hl7.org/fhir/us/core/StructureDefinition/us-core-observation-lab"]},"status":"final","category":[{"coding":[{"system":"http://terminology.hl7.org/CodeSystem/observation-category","code":"laboratory","display":"Laboratory"}]}],"code":{"coding":[{"system":"http://loinc.org","code":"31147-2"}]},"subject":{"reference":"Patient/1d2b195b-16f7-42da-bcd1-43e6bd3d2c52"},"effectiveDateTime":"2022-08-08T00:00:00+00:00","valueRatio":{"numerator":{"value":1},"denominator":{"value":64}}},"request":{"method":"POST","url":"Observation"}},{"fullUrl":"Observation/ae16c86e-e3d3-434a-8baa-c38deea8fd24","resource":{"resourceType":"Observation","id":"ae16c86e-e3d3-434a-8baa-c38deea8fd24","meta":{"profile":["http://hl7.org/fhir/us/core/StructureDefinition/us-core-observation-lab"]},"status":"final","category":[{"coding":[{"system":"http://terminology.hl7.org/CodeSystem/observation-category","code":"laboratory","display":"Laboratory"}]}],"code":{"coding":[{"system":"http://loinc.org","code":"71793-4"}]},"subject":{"reference":"Patient/1d2b195b-16f7-42da-bcd1-43e6bd3d2c52"},"effectiveDateTime":"2022-06-13T00:00:00+00:00","valueRatio":{"numerator":{"value":1},"denominator":{"value":4}}},"request":{"method":"POST","url":"Observation"}},{"fullUrl":"Condition/652fd530-cd5d-43e4-af9a-001204cea54a","resource":{"resourceType":"Condition","id":"652fd530-cd5d-43e4-af9a-001204cea54a","meta":{"profile":["http://hl7.org/fhir/us/core/StructureDefinition/us-core-condition"]},"clinicalStatus":{"coding":[{"system":"http://terminology.hl7.org/CodeSystem/condition-clinical","code":"active","display":"Active"}]},"category":[{"coding":[{"system":"http://terminology.hl7.org/CodeSystem/condition-category","code":"problem-list-item"}]}],"code":{"coding":[{"system":"http://snomed.info/sct","code":"44882003"}]},"subject":{"reference":"Patient/1d2b195b-16f7-42da-bcd1-43e6bd3d2c52"},"onsetDateTime":"2022-03-29T00:00:00+00:00"},"request":{"method":"POST","url":"Condition"}},{"fullUrl":"Condition/04c1d04e-04eb-4743-ade1-46ca49ada59c","resource":{"resourceType":"Condition","id":"04c1d04e-04eb-4743-ade1-46ca49ada59c","meta":{"profile":["http://hl7.org/fhir/us/core/StructureDefinition/us-core-condition"]},"clinicalStatus":{"coding":[{"system":"http://terminology.hl7.org/CodeSystem/condition-clinical","code":"active","display":"Active"}]},"category":[{"coding":[{"system":"http://terminology.hl7.org/CodeSystem/condition-category","code":"problem-list-item"}]}],"code":{"coding":[{"system":"http://snomed.info/sct","code":"736686006"}]},"subject":{"reference":"Patient/1d2b195b-16f7-42da-bcd1-43e6bd3d2c52"},"onsetDateTime":"2022-05-13T00:00:00+00:00"},"request":{"method":"POST","url":"Condition"}},{"fullUrl":"Condition/73a374f3-29c8-4168-9adc-9fdd5d8d55d0","resource":{"resourceType":"Condition","id":"73a374f3-29c8-4168-9adc-9fdd5d8d55d0","meta":{"profile":["http://hl7.org/fhir/us/core/StructureDefinition/us-core-condition"]},"clinicalStatus":{"coding":[{"system":"http://terminology.hl7.org/CodeSystem/condition-clinical","code":"active","display":"Active"}]},"category":[{"coding":[{"system":"http://terminology.hl7.org/CodeSystem/condition-category","code":"problem-list-item"}]}],"code":{"coding":[{"system":"http://snomed.info/sct","code":"736686006"}]},"subject":{"reference":"Patient/1d2b195b-16f7-42da-bcd1-43e6bd3d2c52"},"onsetDateTime":"2022-11-18T00:00:00+00:00"},"request":{"method":"POST","url":"Condition"}},{"fullUrl":"Observation/8f454291-3937-472a-b68e-123c46ab23fe","resource":{"resourceType":"Observation","id":"8f454291-3937-472a-b68e-123c46ab23fe","meta":{"profile":["http://hl7.org/fhir/us/core/StructureDefinition/us-core-observation-lab"]},"status":"final","category":[{"coding":[{"system":"http://terminology.hl7.org/CodeSystem/observation-category","code":"laboratory","display":"Laboratory"}]}],"code":{"coding":[{"system":"http://loinc.org","code":"6690-2"}]},"subject":{"reference":"Patient/1d2b195b-16f7-42da-bcd1-43e6bd3d2c52"},"effectiveDateTime":"2022-03-20T00:00:00+00:00","valueQuantity":{"value":5.5}},"request":{"method":"POST","url":"Observation"}},{"fullUrl":"Observation/6f11dfc1-3685-4a71-8de5-4fd81e051e83","resource":{"resourceType":"Observation","id":"6f11dfc1-3685-4a71-8de5-4fd81e051e83","meta":{"profile":["http://hl7.org/fhir/us/core/StructureDefinition/us-core-observation-lab"]},"status":"final","category":[{"coding":[{"system":"http://terminology.hl7.org/CodeSystem/observation-category","code":"laboratory","display":"Laboratory"}]}],"code":{"coding":[{"system":"http://loinc.org","code":"804-5"}]},"subject":{"reference":"Patient/1d2b195b-16f7-42da-bcd1-43e6bd3d2c52"},"effectiveDateTime":"2022-04-26T00:00:00+00:00","valueQuantity":{"value":9.7}},"request":{"method":"POST","url":"Observation"}},{"fullUrl":"Observation/0b821966-0f6e-4c78-b9a7-77110ecc29ce","resource":{"resourceType":"Observation","id":"0b821966-0f6e-4c78-b9a7-77110ecc29ce","meta":{"profile":["http://hl7.org/fhir/us/core/StructureDefinition/us-core-bmi"]},"status":"final","category":[{"coding":[{"system":"http://terminology.hl7.org/CodeSystem/observation-category","code":"vital-signs","display":"Vital Signs"}]}],"code":{"coding":[{"system":"http://loinc.org","code":"39156-5"}]},"subject":{"reference":"Patient/1d2b195b-16f7-42da-bcd1-43e6bd3d2c52"},"effectiveDateTime":"2022-03-08T00:00:00+00:00","valueQuantity":{"value":12.49,"unit":"kg/m2","system":"http://unitsofmeasure.org","code":"kg/m2"}},"request":{"method":"POST","url":"Observation"}},{"fullUrl":"Observation/1734206b-27d3-44b6-83da-575e11f951aa","resource":{"resourceType":"Observation","id":"1734206b-27d3-44b6-83da-575e11f951aa","meta":{"profile":["http://hl7.org/fhir/us/core/StructureDefinition/us-core-head-circumference"]},"status":"final","category":[{"coding":[{"system":"http://terminology.hl7.org/CodeSystem/observation-category","code":"vital-signs","display":"Vital Signs"}]}],"code":{"coding":[{"system":"http://loinc.org","code":"9843-4"}]},"subject":{"reference":"Patient/1d2b195b-16f7-42da-bcd1-43e6bd3d2c52"},"effectiveDateTime":"2022-08-08T00:00:00+00:00","valueQuantity":{"value":1.5,"unit":"Inch","system":"http://unitsofmeasure.org","code":"[in_i]"}},"request":{"method":"POST","url":"Observation"}},{"fullUrl":"Observation/62bf19cb-8351-4696-8e97-560898d3507e","resource":{"resourceType":"Observation","id":"62bf19cb-8351-4696-8e97-560898d3507e","meta":{"profile":["http://hl7.org/fhir/us/core/StructureDefinition/us-core-head-circumference"]},"status":"final","category":[{"coding":[{"system":"http://terminology.hl7.org/CodeSystem/observation-category","code":"vital-signs","display":"Vital Signs"}]}],"code":{"coding":[{"system":"http://loinc.org","code":"9843-4"}]},"subject":{"reference":"Patient/1d2b195b-16f7-42da-bcd1-43e6bd3d2c52"},"effectiveDateTime":"2022-05-12T00:00:00+00:00","valueQuantity":{"value":6.7,"unit":"Inch","system":"http://unitsofmeasure.org","code":"[in_i]"}},"request":{"method":"POST","url":"Observation"}},{"fullUrl":"Observation/77e4ea4b-7823-4bd7-891e-6fb591bd0755","resource":{"resourceType":"Observation","id":"77e4ea4b-7823-4bd7-891e-6fb591bd0755","meta":{"profile":["http://hl7.org/fhir/us/core/StructureDefinition/us-core-body-height"]},"status":"final","category":[{"coding":[{"system":"http://terminology.hl7.org/CodeSystem/observation-category","code":"vital-signs","display":"Vital Signs"}]}],"code":{"coding":[{"system":"http://loinc.org","code":"8302-2"}]},"subject":{"reference":"Patient/1d2b195b-16f7-42da-bcd1-43e6bd3d2c52"},"effectiveDateTime":"2022-03-12T00:00:00+00:00","valueQuantity":{"value":60.4,"unit":"Inch","system":"http://unitsofmeasure.org","code":"[in_i]"}},"request":{"method":"POST","url":"Observation"}},{"fullUrl":"Observation/f1e90ca5-d870-4004-a36c-afd19d1e4eab","resource":{"resourceType":"Observation","id":"f1e90ca5-d870-4004-a36c-afd19d1e4eab","meta":{"profile":["http://hl7.org/fhir/us/core/StructureDefinition/us-core-body-height"]},"status":"final","category":[{"coding":[{"system":"http://terminology.hl7.org/CodeSystem/observation-category","code":"vital-signs","display":"Vital Signs"}]}],"code":{"coding":[{"system":"http://loinc.org","code":"8302-2"}]},"subject":{"reference":"Patient/1d2b195b-16f7-42da-bcd1-43e6bd3d2c52"},"effectiveDateTime":"2022-12-25T00:00:00+00:00","valueQuantity":{"value":79.4,"unit":"Inch","system":"http://unitsofmeasure.org","code":"[in_i]"}},"request":{"method":"POST","url":"Observation"}},{"fullUrl":"Observation/7e3a8287-c986-49bc-b557-d8fe2fb0b52c","resource":{"resourceType":"Observation","id":"7e3a8287-c986-49bc-b557-d8fe2fb0b52c","meta":{"profile":["http://hl7.org/fhir/us/core/StructureDefinition/us-core-body-weight"]},"status":"final","category":[{"coding":[{"system":"http://terminology.hl7.org/CodeSystem/observation-category","code":"vital-signs","display":"Vital Signs"}]}],"code":{"coding":[{"system":"http://loinc.org","code":"29463-7"}]},"subject":{"reference":"Patient/1d2b195b-16f7-42da-bcd1-43e6bd3d2c52"},"effectiveDateTime":"2022-03-22T00:00:00+00:00","valueQuantity":{"value":28.85,"unit":"kilogram","system":"http://unitsofmeasure.org","code":"kg"}},"request":{"method":"POST","url":"Observation"}},{"fullUrl":"Observation/a0b98628-f79d-4bb5-9eaa-bcbfb0359728","resource":{"resourceType":"Observation","id":"a0b98628-f79d-4bb5-9eaa-bcbfb0359728","meta":{"profile":["http://hl7.org/fhir/us/core/StructureDefinition/us-core-body-temperature"]},"status":"final","category":[{"coding":[{"system":"http://terminology.hl7.org/CodeSystem/observation-category","code":"vital-signs","display":"Vital Signs"}]}],"code":{"coding":[{"system":"http://loinc.org","code":"8310-5"}]},"subject":{"reference":"Patient/1d2b195b-16f7-42da-bcd1-43e6bd3d2c52"},"effectiveDateTime":"2022-01-11T00:00:00+00:00","valueQuantity":{"value":44.15,"unit":"Degrees Fahrenheit","system":"http://unitsofmeasure.org","code":"[degF]"}},"request":{"method":"POST","url":"Observation"}},{"fullUrl":"Observation/6b99cc92-0009-4d19-a45c-14ffc76f4e49","resource":{"resourceType":"Observation","id":"6b99cc92-0009-4d19-a45c-14ffc76f4e49","meta":{"profile":["http://hl7.org/fhir/us/core/StructureDefinition/us-core-heart-rate"]},"status":"final","category":[{"coding":[{"system":"http://terminology.hl7.org/CodeSystem/observation-category","code":"vital-signs","display":"Vital Signs"}]}],"code":{"coding":[{"system":"http://loinc.org","code":"8867-4"}]},"subject":{"reference":"Patient/1d2b195b-16f7-42da-bcd1-43e6bd3d2c52"},"effectiveDateTime":"2022-12-18T00:00:00+00:00","valueQuantity":{"value":95.1,"unit":"Per Minute","system":"http://unitsofmeasure.org","code":"/min"}},"request":{"method":"POST","url":"Observation"}},{"fullUrl":"Observation/1465915f-126f-4318-b121-5e006d843c0e","resource":{"resourceType":"Observation","id":"1465915f-126f-4318-b121-5e006d843c0e","meta":{"profile":["http://hl7.org/fhir/us/core/StructureDefinition/us-core-heart-rate"]},"status":"final","category":[{"coding":[{"system":"http://terminology.hl7.org/CodeSystem/observation-category","code":"vital-signs","display":"Vital Signs"}]}],"code":{"coding":[{"system":"http://loinc.org","code":"8867-4"}]},"subject":{"reference":"Patient/1d2b195b-16f7-42da-bcd1-43e6bd3d2c52"},"effectiveDateTime":"2022-09-14T00:00:00+00:00","valueQuantity":{"value":96.4,"unit":"Per Minute","system":"http://unitsofmeasure.org","code":"/min"}},"request":{"method":"POST","url":"Observation"}},{"fullUrl":"Patient/061245f0-d5b7-456b-8cc5-b6847b665d9f","resource":{"resourceType":"Patient","id":"061245f0-d5b7-456b-8cc5-b6847b665d9f","meta":{"profile":["http://hl7.org/fhir/us/core/StructureDefinition/us-core-patient"]},"extension":[{"extension":[{"url":"ombCategory","valueCoding":{"system":"urn:oid:2.16.840.1.113883.6.238","code":"1002-5","display":"American Indian or Alaska Native"}},{"url":"text","valueString":"American Indian or Alaska Native"}],"url":"http://hl7.org/fhir/us/core/StructureDefinition/us-core-race"},{"extension":[{"url":"ombCategory","valueCoding":{"system":"urn:oid:2.16.840.1.113883.6.238","code":"2135-2","display":"Hispanic or Latino"}},{"url":"text","valueString":"Hispanic or Latino"}],"url":"http://hl7.org/fhir/us/core/StructureDefinition/us-core-ethnicity"}],"identifier":[{"type":{"coding":[{"system":"http://terminology.hl7.org/CodeSystem/v2-0203","code":"MR"}]},"system":"urn:fhirgen:mrn","value":"087-17-4862"}],"name":[{"use":"official","family":"Butler","given":["Renee"]},{"use":"maiden","family":"Smith"}],"telecom":[{"system":"phone","value":"+1-038-472-8515","use":"work"},{"system":"email","value":"tiffanynorman@hotmail.com","use":"work"}],"gender":"female","birthDate":"2001-07-11","address":[{"use":"home","line":["0512 Mariah View Apt. 357"],"city":"Bakerfort","state":"TX","postalCode":"76013"},{"use":"old","line":["43846 Ramos Oval"],"city":"Hillstad","state":"AL","postalCode":"82526"}]},"request":{"method":"POST","url":"Patient"}},{"fullUrl":"Observation/49fa825b-ee32-4c02-b03b-93764b0095ff","resource":{"resourceType":"Observation","id":"49fa825b-ee32-4c02-b03b-93764b0095ff","meta":{"profile":["http://hl7.org/fhir/us/core/StructureDefinition/us-core-observation-lab"]},"status":"final","category":[{"coding":[{"system":"http://terminology.hl7.org/CodeSystem/observation-category","code":"laboratory","display":"Laboratory"}]}],"code":{"coding":[{"system":"http://loinc.org","code":"31147-2"}]},"subject":{"reference":"Patient/061245f0-d5b7-456b-8cc5-b6847b665d9f"},"effectiveDateTime":"2022-07-26T00:00:00+00:00","valueRatio":{"numerator":{"value":1},"denominator":{"value":32}}},"request":{"method":"POST","url":"Observation"}},{"fullUrl":"Observation/4459500c-67dd-49ae-9543-889e7b1aa106","resource":{"resourceType":"Observation","id":"4459500c-67dd-49ae-9543-889e7b1aa106","meta":{"profile":["http://hl7.org/fhir/us/core/StructureDefinition/us-core-observation-lab"]},"status":"final","category":[{"coding":[{"system":"http://terminology.hl7.org/CodeSystem/observation-category","code":"laboratory","display":"Laboratory"}]}],"code":{"coding":[{"system":"http://loinc.org","code":"47476-7"}]},"subject":{"reference":"Patient/061245f0-d5b7-456b-8cc5-b6847b665d9f"},"effectiveDateTime":"2022-10-05T00:00:00+00:00","valueRatio":{"numerator":{"value":1},"denominator":{"value":32}}},"request":{"method":"POST","url":"Observation"}},{"fullUrl":"Condition/a34309fd-0d5d-4c0a-bf8d-c04b54e0e8dc","resource":{"resourceType":"Condition","id":"a34309fd-0d5d-4c0a-bf8d-c04b54e0e8dc","meta":{"profile":["http://hl7.org/fhir/us/core/StructureDefinition/us-core-condition"]},"clinicalStatus":{"coding":[{"system":"http://terminology.hl7.org/CodeSystem/condition-clinical","code":"active","display":"Active"}]},"category":[{"coding":[{"system":"http://terminology.hl7.org/CodeSystem/condition-category","code":"problem-list-item"}]}],"code":{"coding":[{"system":"http://snomed.info/sct","code":"418290006"}]},"subject":{"reference":"Patient/061245f0-d5b7-456b-8cc5-b6847b665d9f"},"onsetDateTime":"2022-04-23T00:00:00+00:00"},"request":{"method":"POST","url":"Condition"}},{"fullUrl":"Condition/5ab01444-bee8-4cf7-9013-4de0c41493a4","resource":{"resourceType":"Condition","id":"5ab01444-bee8-4cf7-9013-4de0c41493a4","meta":{"profile":["http://hl7.org/fhir/us/core/StructureDefinition/us-core-condition"]},"clinicalStatus":{"coding":[{"system":"http://terminology.hl7.org/CodeSystem/condition-clinical","code":"active","display":"Active"}]},"category":[{"coding":[{"system":"http://terminology.hl7.org/CodeSystem/condition-category","code":"problem-list-item"}]}],"code":{"coding":[{"system":"http://snomed.info/sct","code":"44882003"}]},"subject":{"reference":"Patient/061245f0-d5b7-456b-8cc5-b6847b665d9f"},"onsetDateTime":"2022-03-22T00:00:00+00:00"},"request":{"method":"POST","url":"Condition"}},{"fullUrl":"Condition/fdc80a3f-0532-4bc7-a84b-4121b03cf4dd","resource":{"resourceType":"Condition","id":"fdc80a3f-0532-4bc7-a84b-4121b03cf4dd","meta":{"profile":["http://hl7.org/fhir/us/core/StructureDefinition/us-core-condition"]},"clinicalStatus":{"coding":[{"system":"http://terminology.hl7.org/CodeSystem/condition-clinical","code":"active","display":"Active"}]},"category":[{"coding":[{"system":"http://terminology.hl7.org/CodeSystem/condition-category","code":"problem-list-item"}]}],"code":{"coding":[{"system":"http://snomed.info/sct","code":"418290006"}]},"subject":{"reference":"Patient/061245f0-d5b7-456b-8cc5-b6847b665d9f"},"onsetDateTime":"2022-04-24T00:00:00+00:00"},"request":{"method":"POST","url":"Condition"}},{"fullUrl":"Condition/17139d0e-1dca-46b2-8f8b-0baa307858ed","resource":{"resourceType":"Condition","id":"17139d0e-1dca-46b2-8f8b-0baa307858ed","meta":{"profile":["http://hl7.org/fhir/us/core/StructureDefinition/us-core-condition"]},"clinicalStatus":{"coding":[{"system":"http://terminology.hl7.org/CodeSystem/condition-clinical","code":"active","display":"Active"}]},"category":[{"coding":[{"system":"http://terminology.hl7.org/CodeSystem/condition-category","code":"problem-list-item"}]}],"code":{"coding":[{"system":"http://snomed.info/sct","code":"91554004"}]},"subject":{"reference":"Patient/061245f0-d5b7-456b-8cc5-b6847b665d9f"},"onsetDateTime":"2022-01-08T00:00:00+00:00"},"request":{"method":"POST","url":"Condition"}},{"fullUrl":"Condition/4dde73cb-e19e-4b78-a196-04e873c7c5e2","resource":{"resourceType":"Condition","id":"4dde73cb-e19e-4b78-a196-04e873c7c5e2","meta":{"profile":["http://hl7.org/fhir/us/core/StructureDefinition/us-core-condition"]},"clinicalStatus":{"coding":[{"system":"http://terminology.hl7.org/CodeSystem/condition-clinical","code":"active","display":"Active"}]},"category":[{"coding":[{"system":"http://terminology.hl7.org/CodeSystem/condition-category","code":"problem-list-item"}]}],"code":{"coding":[{"system":"http://snomed.info/sct","code":"418290006"}]},"subject":{"reference":"Patient/061245f0-d5b7-456b-8cc5-b6847b665d9f"},"onsetDateTime":"2022-05-15T00:00:00+00:00"},"request":{"method":"POST","url":"Condition"}},{"fullUrl":"Condition/b934fc03-2538-4f25-96e9-0db810e3c94e","resource":{"resourceType":"Condition","id":"b934fc03-2538-4f25-96e9-0db810e3c94e","meta":{"profile":["http://hl7.org/fhir/us/core/StructureDefinition/us-core-condition"]},"clinicalStatus":{"coding":[{"system":"http://terminology.hl7.org/CodeSystem/condition-clinical","code":"active","display":"Active"}]},"category":[{"coding":[{"system":"http://terminology.hl7.org/CodeSystem/condition-category","code":"problem-list-item"}]}],"code":{"coding":[{"system":"http://snomed.info/sct","code":"709977002"}]},"subject":{"reference":"Patient/061245f0-d5b7-456b-8cc5-b6847b665d9f"},"onsetDateTime":"2022-11-07T00:00:00+00:00"},"request":{"method":"POST","url":"Condition"}},{"fullUrl":"Condition/dc83f99b-4c21-4099-b22a-495afb76a872","resource":{"resourceType":"Condition","id":"dc83f99b-4c21-4099-b22a-495afb76a872","meta":{"profile":["http://hl7.org/fhir/us/core/StructureDefinition/us-core-condition"]},"clinicalStatus":{"coding":[{"system":"http://terminology.hl7.org/CodeSystem/condition-clinical","code":"active","display":"Active"}]},"category":[{"coding":[{"system":"http://terminology.hl7.org/CodeSystem/condition-category","code":"problem-list-item"}]}],"code":{"coding":[{"system":"http://snomed.info/sct","code":"736686006"}]},"subject":{"reference":"Patient/061245f0-d5b7-456b-8cc5-b6847b665d9f"},"onsetDateTime":"2022-09-02T00:00:00+00:00"},"request":{"method":"POST","url":"Condition"}},{"fullUrl":"Observation/d8b894f9-6d11-4aca-91ca-b286ea86abba","resource":{"resourceType":"Observation","id":"d8b894f9-6d11-4aca-91ca-b286ea86abba","meta":{"profile":["http://hl7.org/fhir/us/core/StructureDefinition/us-core-observation-lab"]},"status":"final","category":[{"coding":[{"system":"http://terminology.hl7.org/CodeSystem/observation-category","code":"laboratory","display":"Laboratory"}]}],"code":{"coding":[{"system":"http://loinc.org","code":"49498-9"}]},"subject":{"reference":"Patient/061245f0-d5b7-456b-8cc5-b6847b665d9f"},"effectiveDateTime":"2022-04-12T00:00:00+00:00","valueQuantity":{"value":5.9}},"request":{"method":"POST","url":"Observation"}},{"fullUrl":"Observation/7810574d-6130-4df4-be86-2f2594da9ccb","resource":{"resourceType":"Observation","id":"7810574d-6130-4df4-be86-2f2594da9ccb","meta":{"profile":["http://hl7.org/fhir/us/core/StructureDefinition/us-core-observation-lab"]},"status":"final","category":[{"coding":[{"system":"http://terminology.hl7.org/CodeSystem/observation-category","code":"laboratory","display":"Laboratory"}]}],"code":{"coding":[{"system":"http://loinc.org","code":"6690-2"}]},"subject":{"reference":"Patient/061245f0-d5b7-456b-8cc5-b6847b665d9f"},"effectiveDateTime":"2022-01-10T00:00:00+00:00","valueQuantity":{"value":9.4}},"request":{"method":"POST","url":"Observation"}},{"fullUrl":"Observation/68ed4bfe-1f6a-4299-af8c-eb853dd9d466","resource":{"resourceType":"Observation","id":"68ed4bfe-1f6a-4299-af8c-eb853dd9d466","meta":{"profile":["http://hl7.org/fhir/us/core/StructureDefinition/us-core-observation-lab"]},"status":"final","category":[{"coding":[{"system":"http://terminology.hl7.org/CodeSystem/observation-category","code":"laboratory","display":"Laboratory"}]}],"code":{"coding":[{"system":"http://loinc.org","code":"6690-2"}]},"subject":{"reference":"Patient/061245f0-d5b7-456b-8cc5-b6847b665d9f"},"effectiveDateTime":"2022-07-18T00:00:00+00:00","valueQuantity":{"value":5.6}},"request":{"method":"POST","url":"Observation"}},{"fullUrl":"Observation/9740579e-c028-43f3-92ed-959c37ef4ab3","resource":{"resourceType":"Observation","id":"9740579e-c028-43f3-92ed-959c37ef4ab3","meta":{"profile":["http://hl7.org/fhir/us/core/StructureDefinition/us-core-bmi"]},"status":"final","category":[{"coding":[{"system":"http://terminology.hl7.org/CodeSystem/observation-category","code":"vital-signs","display":"Vital Signs"}]}],"code":{"coding":[{"system":"http://loinc.org","code":"39156-5"}]},"subject":{"reference":"Patient/061245f0-d5b7-456b-8cc5-b6847b665d9f"},"effectiveDateTime":"2022-07-09T00:00:00+00:00","valueQuantity":{"value":11.17,"unit":"kg/m2","system":"http://unitsofmeasure.org","code":"kg/m2"}},"request":{"method":"POST","url":"Observation"}},{"fullUrl":"Observation/9e3f26fc-6557-4f9c-994e-6995390765ea","resource":{"resourceType":"Observation","id":"9e3f26fc-6557-4f9c-994e-6995390765ea","meta":{"profile":["http://hl7.org/fhir/us/core/StructureDefinition/us-core-head-circumference"]},"status":"final","category":[{"coding":[{"system":"http://terminology.hl7.org/CodeSystem/observation-category","code":"vital-signs","display":"Vital Signs"}]}],"code":{"coding":[{"system":"http://loinc.org","code":"9843-4"}]},"subject":{"reference":"Patient/061245f0-d5b7-456b-8cc5-b6847b665d9f"},"effectiveDateTime":"2022-08-31T00:00:00+00:00","valueQuantity":{"value":9.9,"unit":"Inch","system":"http://unitsofmeasure.org","code":"[in_i]"}},"request":{"method":"POST","url":"Observation"}},{"fullUrl":"Observation/2294308b-06e2-4859-a712-28543aeacb31","resource":{"resourceType":"Observation","id":"2294308b-06e2-4859-a712-28543aeacb31","meta":{"profile":["http://hl7.org/fhir/us/core/StructureDefinition/us-core-body-height"]},"status":"final","category":[{"coding":[{"system":"http://terminology.hl7.org/CodeSystem/observation-category","code":"vital-signs","display":"Vital Signs"}]}],"code":{"coding":[{"system":"http://loinc.org","code":"8302-2"}]},"subject":{"reference":"Patient/061245f0-d5b7-456b-8cc5-b6847b665d9f"},"effectiveDateTime":"2022-11-08T00:00:00+00:00","valueQuantity":{"value":66.4,"unit":"Inch","system":"http://unitsofmeasure.org","code":"[in_i]"}},"request":{"method":"POST","url":"Observation"}},{"fullUrl":"Observation/906df926-5fef-4b9c-8b20-ca2333d38b75","resource":{"resourceType":"Observation","id":"906df926-5fef-4b9c-8b20-ca2333d38b75","meta":{"profile":["http://hl7.org/fhir/us/core/StructureDefinition/us-core-body-height"]},"status":"final","category":[{"coding":[{"system":"http://terminology.hl7.org/CodeSystem/observation-category","code":"vital-signs","display":"Vital Signs"}]}],"code":{"coding":[{"system":"http://loinc.org","code":"8302-2"}]},"subject":{"reference":"Patient/061245f0-d5b7-456b-8cc5-b6847b665d9f"},"effectiveDateTime":"2022-04-02T00:00:00+00:00","valueQuantity":{"value":73.7,"unit":"Inch","system":"http://unitsofmeasure.org","code":"[in_i]"}},"request":{"method":"POST","url":"Observation"}},{"fullUrl":"Observation/c843e0e8-f2b6-4c14-8d0f-5df1999c12ce","resource":{"resourceType":"Observation","id":"c843e0e8-f2b6-4c14-8d0f-5df1999c12ce","meta":{"profile":["http://hl7.org/fhir/us/core/StructureDefinition/us-core-body-weight"]},"status":"final","category":[{"coding":[{"system":"http://terminology.hl7.org/CodeSystem/observation-category","code":"vital-signs","display":"Vital Signs"}]}],"code":{"coding":[{"system":"http://loinc.org","code":"29463-7"}]},"subject":{"reference":"Patient/061245f0-d5b7-456b-8cc5-b6847b665d9f"},"effectiveDateTime":"2022-07-01T00:00:00+00:00","valueQuantity":{"value":126.76,"unit":"kilogram","system":"http://unitsofmeasure.org","code":"kg"}},"request":{"method":"POST","url":"Observation"}},{"fullUrl":"Observation/804815a3-6eea-4668-9abb-a0ee0b22529e","resource":{"resourceType":"Observation","id":"804815a3-6eea-4668-9abb-a0ee0b22529e","meta":{"profile":["http://hl7.org/fhir/us/core/StructureDefinition/us-core-body-weight"]},"status":"final","category":[{"coding":[{"system":"http://terminology.hl7.org/CodeSystem/observation-category","code":"vital-signs","display":"Vital Signs"}]}],"code":{"coding":[{"system":"http://loinc.org","code":"29463-7"}]},"subject":{"reference":"Patient/061245f0-d5b7-456b-8cc5-b6847b665d9f"},"effectiveDateTime":"2022-07-25T00:00:00+00:00","valueQuantity":{"value":84.54,"unit":"kilogram","system":"http://unitsofmeasure.org","code":"kg"}},"request":{"method":"POST","url":"Observation"}},{"fullUrl":"Observation/a0999305-1bad-4548-b286-f200dd34dc42","resource":{"resourceType":"Observation","id":"a0999305-1bad-4548-b286-f200dd34dc42","meta":{"profile":["http://hl7.org/fhir/us/core/StructureDefinition/us-core-body-temperature"]},"status":"final","category":[{"coding":[{"system":"http://terminology.hl7.org/CodeSystem/observation-category","code":"vital-signs","display":"Vital Signs"}]}],"code":{"coding":[{"system":"http://loinc.org","code":"8310-5"}]},"subject":{"reference":"Patient/061245f0-d5b7-456b-8cc5-b6847b665d9f"},"effectiveDateTime":"2022-10-28T00:00:00+00:00","valueQuantity":{"value":25.59,"unit":"Degrees Fahrenheit","system":"http://unitsofmeasure.org","code":"[degF]"}},"request":{"method":"POST","url":"Observation"}},{"fullUrl":"Observation/e2a1f88b-4933-4c32-9dd4-c39e043ae0bb","resource":{"resourceType":"Observation","id":"e2a1f88b-4933-4c32-9dd4-c39e043ae0bb","meta":{"profile":["http://hl7.org/fhir/us/core/StructureDefinition/us-core-heart-rate"]},"status":"final","category":[{"coding":[{"system":"http://terminology.hl7.org/CodeSystem/observation-category","code":"vital-signs","display":"Vital Signs"}]}],"code":{"coding":[{"system":"http://loinc.org","code":"8867-4"}]},"subject":{"reference":"Patient/061245f0-d5b7-456b-8cc5-b6847b665d9f"},"effectiveDateTime":"2022-05-02T00:00:00+00:00","valueQuantity":{"value":95.5,"unit":"Per Minute","system":"http://unitsofmeasure.org","code":"/min"}},"request":{"method":"POST","url":"Observation"}},{"fullUrl":"Observation/00ca0df8-5f3f-4dc6-97fc-79a181c5a316","resource":{"resourceType":"Observation","id":"00ca0df8-5f3f-4dc6-97fc-79a181c5a316","meta":{"profile":["http://hl7.org/fhir/us/core/StructureDefinition/us-core-heart-rate"]},"status":"final","category":[{"coding":[{"system":"http://terminology.hl7.org/CodeSystem/observation-category","code":"vital-signs","display":"Vital Signs"}]}],"code":{"coding":[{"system":"http://loinc.org","code":"8867-4"}]},"subject":{"reference":"Patient/061245f0-d5b7-456b-8cc5-b6847b665d9f"},"effectiveDateTime":"2022-06-08T00:00:00+00:00","valueQuantity":{"value":101.3,"unit":"Per Minute","system":"http://unitsofmeasure.org","code":"/min"}},"request":{"method":"POST","url":"Observation"}},{"fullUrl":"Patient/fefa593b-8961-433a-ad9b-2937039c872e","resource":{"resourceType":"Patient","id":"fefa593b-8961-433a-ad9b-2937039c872e","meta":{"profile":["http://hl7.org/fhir/us/core/StructureDefinition/us-core-patient"]},"extension":[{"extension":[{"url":"ombCategory","valueCoding":{"system":"urn:oid:2.16.840.1.113883.6.238","code":"2106-3","display":"White"}},{"url":"text","valueString":"White"}],"url":"http://hl7.org/fhir/us/core/StructureDefinition/us-core-race"},{"extension":[{"url":"ombCategory","valueCoding":{"system":"urn:oid:2.16.840.1.113883.6.238","code":"2186-5","display":"Non Hispanic or Latino"}},{"url":"text","valueString":"Non Hispanic or Latino"}],"url":"http://hl7.org/fhir/us/core/StructureDefinition/us-core-ethnicity"}],"identifier":[{"type":{"coding":[{"system":"http://terminology.hl7.org/CodeSystem/v2-0203","code":"MR"}]},"system":"urn:fhirgen:mrn","value":"849-26-7259"}],"name":[{"use":"official","family":"Simmons","given":["Maria"]},{"use":"maiden","family":"Wilson"}],"telecom":[{"system":"phone","value":"8108043480","use":"work"},{"system":"email","value":"michaelware@yahoo.com","use":"home"}],"gender":"female","birthDate":"1996-11-04","address":[{"use":"home","line":["412 Jones Walk Apt. 747"],"city":"Kennedyton","state":"CA","postalCode":"88598"},{"use":"old","line":["40507 Kathleen Port"],"city":"Williamsfurt","state":"RI","postalCode":"02530"}]},"request":{"method":"POST","url":"Patient"}},{"fullUrl":"Observation/13bd5784-b72b-408f-8a1b-b0b64564dc59","resource":{"resourceType":"Observation","id":"13bd5784-b72b-408f-8a1b-b0b64564dc59","meta":{"profile":["http://hl7.org/fhir/us/core/StructureDefinition/us-core-observation-lab"]},"status":"final","category":[{"coding":[{"system":"http://terminology.hl7.org/CodeSystem/observation-category","code":"laboratory","display":"Laboratory"}]}],"code":{"coding":[{"system":"http://loinc.org","code":"22590-4"}]},"subject":{"reference":"Patient/fefa593b-8961-433a-ad9b-2937039c872e"},"effectiveDateTime":"2022-06-10T00:00:00+00:00","valueRatio":{"numerator":{"value":1},"denominator":{"value":4}}},"request":{"method":"POST","url":"Observation"}},{"fullUrl":"Observation/9ac6285c-0d15-4f7e-b27a-2ad73028b12d","resource":{"resourceType":"Observation","id":"9ac6285c-0d15-4f7e-b27a-2ad73028b12d","meta":{"profile":["http://hl7.org/fhir/us/core/StructureDefinition/us-core-observation-lab"]},"status":"final","category":[{"coding":[{"system":"http://terminology.hl7.org/CodeSystem/observation-category","code":"laboratory","display":"Laboratory"}]}],"code":{"coding":[{"system":"http://loinc.org","code":"5394-2"}]},"subject":{"reference":"Patient/fefa593b-8961-433a-ad9b-2937039c872e"},"effectiveDateTime":"2022-09-21T00:00:00+00:00","valueRatio":{"numerator":{"value":1},"denominator":{"value":4}}},"request":{"method":"POST","url":"Observation"}},{"fullUrl":"Condition/f0fba10b-18ec-4502-8f53-d70db5f931cb","resource":{"resourceType":"Condition","id":"f0fba10b-18ec-4502-8f53-d70db5f931cb","meta":{"profile":["http://hl7.org/fhir/us/core/StructureDefinition/us-core-condition"]},"clinicalStatus":{"coding":[{"system":"http://terminology.hl7.org/CodeSystem/condition-clinical","code":"active","display":"Active"}]},"category":[{"coding":[{"system":"http://terminology.hl7.org/CodeSystem/condition-category","code":"problem-list-item"}]}],"code":{"coding":[{"system":"http://snomed.info/sct","code":"91554004"}]},"subject":{"reference":"Patient/fefa593b-8961-433a-ad9b-2937039c872e"},"onsetDateTime":"2022-09-07T00:00:00+00:00"},"request":{"method":"POST","url":"Condition"}},{"fullUrl":"Condition/47d47e28-9e1f-4896-9d4b-dcf6955f4bc3","resource":{"resourceType":"Condition","id":"47d47e28-9e1f-4896-9d4b-dcf6955f4bc3","meta":{"profile":["http://hl7.org/fhir/us/core/StructureDefinition/us-core-condition"]},"clinicalStatus":{"coding":[{"system":"http://terminology.hl7.org/CodeSystem/condition-clinical","code":"active","display":"Active"}]},"category":[{"coding":[{"system":"http://terminology.hl7.org/CodeSystem/condition-category","code":"problem-list-item"}]}],"code":{"coding":[{"system":"http://snomed.info/sct","code":"709977002"}]},"subject":{"reference":"Patient/fefa593b-8961-433a-ad9b-2937039c872e"},"onsetDateTime":"2022-04-24T00:00:00+00:00"},"request":{"method":"POST","url":"Condition"}},{"fullUrl":"Condition/9e678b93-b532-439e-98cd-5c59e2719b54","resource":{"resourceType":"Condition","id":"9e678b93-b532-439e-98cd-5c59e2719b54","meta":{"profile":["http://hl7.org/fhir/us/core/StructureDefinition/us-core-condition"]},"clinicalStatus":{"coding":[{"system":"http://terminology.hl7.org/CodeSystem/condition-clinical","code":"active","display":"Active"}]},"category":[{"coding":[{"system":"http://terminology.hl7.org/CodeSystem/condition-category","code":"problem-list-item"}]}],"code":{"coding":[{"system":"http://snomed.info/sct","code":"91554004"}]},"subject":{"reference":"Patient/fefa593b-8961-433a-ad9b-2937039c872e"},"onsetDateTime":"2022-11-30T00:00:00+00:00"},"request":{"method":"POST","url":"Condition"}},{"fullUrl":"Observation/130ba06f-74c1-4850-91ff-54c87a5f7277","resource":{"resourceType":"Observation","id":"130ba06f-74c1-4850-91ff-54c87a5f7277","meta":{"profile":["http://hl7.org/fhir/us/core/StructureDefinition/us-core-observation-lab"]},"status":"final","category":[{"coding":[{"system":"http://terminology.hl7.org/CodeSystem/observation-category","code":"laboratory","display":"Laboratory"}]}],"code":{"coding":[{"system":"http://loinc.org","code":"6690-2"}]},"subject":{"reference":"Patient/fefa593b-8961-433a-ad9b-2937039c872e"},"effectiveDateTime":"2022-05-21T00:00:00+00:00","valueQuantity":{"value":10.2}},"request":{"method":"POST","url":"Observation"}},{"fullUrl":"Observation/c1aaaf9f-0c6f-41b4-b0c7-73ca1f16d030","resource":{"resourceType":"Observation","id":"c1aaaf9f-0c6f-41b4-b0c7-73ca1f16d030","meta":{"profile":["http://hl7.org/fhir/us/core/StructureDefinition/us-core-observation-lab"]},"status":"final","category":[{"coding":[{"system":"http://terminology.hl7.org/CodeSystem/observation-category","code":"laboratory","display":"Laboratory"}]}],"code":{"coding":[{"system":"http://loinc.org","code":"6690-2"}]},"subject":{"reference":"Patient/fefa593b-8961-433a-ad9b-2937039c872e"},"effectiveDateTime":"2022-12-25T00:00:00+00:00","valueQuantity":{"value":4.3}},"request":{"method":"POST","url":"Observation"}},{"fullUrl":"Observation/133aeacf-d121-464e-85dc-971aed07b53f","resource":{"resourceType":"Observation","id":"133aeacf-d121-464e-85dc-971aed07b53f","meta":{"profile":["http://hl7.org/fhir/us/core/StructureDefinition/us-core-bmi"]},"status":"final","category":[{"coding":[{"system":"http://terminology.hl7.org/CodeSystem/observation-category","code":"vital-signs","display":"Vital Signs"}]}],"code":{"coding":[{"system":"http://loinc.org","code":"39156-5"}]},"subject":{"reference":"Patient/fefa593b-8961-433a-ad9b-2937039c872e"},"effectiveDateTime":"2022-04-25T00:00:00+00:00","valueQuantity":{"value":10.27,"unit":"kg/m2","system":"http://unitsofmeasure.org","code":"kg/m2"}},"request":{"method":"POST","url":"Observation"}},{"fullUrl":"Observation/21d3381e-ae51-43dc-ab54-721511b4a716","resource":{"resourceType":"Observation","id":"21d3381e-ae51-43dc-ab54-721511b4a716","meta":{"profile":["http://hl7.org/fhir/us/core/StructureDefinition/us-core-bmi"]},"status":"final","category":[{"coding":[{"system":"http://terminology.hl7.org/CodeSystem/observation-category","code":"vital-signs","display":"Vital Signs"}]}],"code":{"coding":[{"system":"http://loinc.org","code":"39156-5"}]},"subject":{"reference":"Patient/fefa593b-8961-433a-ad9b-2937039c872e"},"effectiveDateTime":"2022-10-13T00:00:00+00:00","valueQuantity":{"value":29.29,"unit":"kg/m2","system":"http://unitsofmeasure.org","code":"kg/m2"}},"request":{"method":"POST","url":"Observation"}},{"fullUrl":"Observation/5546f638-9583-4f58-ac9f-7a15e1b9f5e6","resource":{"resourceType":"Observation","id":"5546f638-9583-4f58-ac9f-7a15e1b9f5e6","meta":{"profile":["http://hl7.org/fhir/us/core/StructureDefinition/us-core-head-circumference"]},"status":"final","category":[{"coding":[{"system":"http://terminology.hl7.org/CodeSystem/observation-category","code":"vital-signs","display":"Vital Signs"}]}],"code":{"coding":[{"system":"http://loinc.org","code":"9843-4"}]},"subject":{"reference":"Patient/fefa593b-8961-433a-ad9b-2937039c872e"},"effectiveDateTime":"2022-07-25T00:00:00+00:00","valueQuantity":{"value":7.4,"unit":"Inch","system":"http://unitsofmeasure.org","code":"[in_i]"}},"request":{"method":"POST","url":"Observation"}},{"fullUrl":"Observation/ec13db49-6070-4c9d-9b7e-dc801e65d7a5","resource":{"resourceType":"Observation","id":"ec13db49-6070-4c9d-9b7e-dc801e65d7a5","meta":{"profile":["http://hl7.org/fhir/us/core/StructureDefinition/us-core-head-circumference"]},"status":"final","category":[{"coding":[{"system":"http://terminology.hl7.org/CodeSystem/observation-category","code":"vital-signs","display":"Vital Signs"}]}],"code":{"coding":[{"system":"http://loinc.org","code":"9843-4"}]},"subject":{"reference":"Patient/fefa593b-8961-433a-ad9b-2937039c872e"},"effectiveDateTime":"2022-05-13T00:00:00+00:00","valueQuantity":{"value":7.8,"unit":"Inch","system":"http://unitsofmeasure.org","code":"[in_i]"}},"request":{"method":"POST","url":"Observation"}},{"fullUrl":"Observation/a1c4767f-c370-4124-a77f-0fe4734011f1","resource":{"resourceType":"Observation","id":"a1c4767f-c370-4124-a77f-0fe4734011f1","meta":{"profile":["http://hl7.org/fhir/us/core/StructureDefinition/us-core-body-height"]},"status":"final","category":[{"coding":[{"system":"http://terminology.hl7.org/CodeSystem/observation-category","code":"vital-signs","display":"Vital Signs"}]}],"code":{"coding":[{"system":"http://loinc.org","code":"8302-2"}]},"subject":{"reference":"Patient/fefa593b-8961-433a-ad9b-2937039c872e"},"effectiveDateTime":"2022-11-24T00:00:00+00:00","valueQuantity":{"value":69.2,"unit":"Inch","system":"http://unitsofmeasure.org","code":"[in_i]"}},"request":{"method":"POST","url":"Observation"}},{"fullUrl":"Observation/ec017ddf-4c6e-478b-863c-c222a53c82b5","resource":{"resourceType":"Observation","id":"ec017ddf-4c6e-478b-863c-c222a53c82b5","meta":{"profile":["http://hl7.org/fhir/us/core/StructureDefinition/us-core-body-height"]},"status":"final","category":[{"coding":[{"system":"http://terminology.hl7.org/CodeSystem/observation-category","code":"vital-signs","display":"Vital Signs"}]}],"code":{"coding":[{"system":"http://loinc.org","code":"8302-2"}]},"subject":{"reference":"Patient/fefa593b-8961-433a-ad9b-2937039c872e"},"effectiveDateTime":"2022-07-02T00:00:00+00:00","valueQuantity":{"value":78.4,"unit":"Inch","system":"http://unitsofmeasure.org","code":"[in_i]"}},"request":{"method":"POST","url":"Observation"}},{"fullUrl":"Observation/1998fcb1-0584-4071-9157-c877130a9944","resource":{"resourceType":"Observation","id":"1998fcb1-0584-4071-9157-c877130a9944","meta":{"profile":["http://hl7.org/fhir/us/core/StructureDefinition/us-core-body-weight"]},"status":"final","category":[{"coding":[{"system":"http://terminology.hl7.org/CodeSystem/observation-category","code":"vital-signs","display":"Vital Signs"}]}],"code":{"coding":[{"system":"http://loinc.org","code":"29463-7"}]},"subject":{"reference":"Patient/fefa593b-8961-433a-ad9b-2937039c872e"},"effectiveDateTime":"2022-05-14T00:00:00+00:00","valueQuantity":{"value":30.06,"unit":"kilogram","system":"http://unitsofmeasure.org","code":"kg"}},"request":{"method":"POST","url":"Observation"}},{"fullUrl":"Observation/a89d30d3-fbc4-43c5-99ee-5561f29310e5","resource":{"resourceType":"Observation","id":"a89d30d3-fbc4-43c5-99ee-5561f29310e5","meta":{"profile":["http://hl7.org/fhir/us/core/StructureDefinition/us-core-body-temperature"]},"status":"final","category":[{"coding":[{"system":"http://terminology.hl7.org/CodeSystem/observation-category","code":"vital-signs","display":"Vital Signs"}]}],"code":{"coding":[{"system":"http://loinc.org","code":"8310-5"}]},"subject":{"reference":"Patient/fefa593b-8961-433a-ad9b-2937039c872e"},"effectiveDateTime":"2022-06-03T00:00:00+00:00","valueQuantity":{"value":145.51,"unit":"Degrees Fahrenheit","system":"http://unitsofmeasure.org","code":"[degF]"}},"request":{"method":"POST","url":"Observation"}},{"fullUrl":"Observation/3469d07c-7856-49d5-83c9-8dd235d20d47","resource":{"resourceType":"Observation","id":"3469d07c-7856-49d5-83c9-8dd235d20d47","meta":{"profile":["http://hl7.org/fhir/us/core/StructureDefinition/us-core-body-temperature"]},"status":"final","category":[{"coding":[{"system":"http://terminology.hl7.org/CodeSystem/observation-category","code":"vital-signs","display":"Vital Signs"}]}],"code":{"coding":[{"system":"http://loinc.org","code":"8310-5"}]},"subject":{"reference":"Patient/fefa593b-8961-433a-ad9b-2937039c872e"},"effectiveDateTime":"2022-02-12T00:00:00+00:00","valueQuantity":{"value":120.42,"unit":"Degrees Fahrenheit","system":"http://unitsofmeasure.org","code":"[degF]"}},"request":{"method":"POST","url":"Observation"}},{"fullUrl":"Observation/a0ffe969-c1e3-42a0-b265-877c9a616089","resource":{"resourceType":"Observation","id":"a0ffe969-c1e3-42a0-b265-877c9a616089","meta":{"profile":["http://hl7.org/fhir/us/core/StructureDefinition/us-core-heart-rate"]},"status":"final","category":[{"coding":[{"system":"http://terminology.hl7.org/CodeSystem/observation-category","code":"vital-signs","display":"Vital Signs"}]}],"code":{"coding":[{"system":"http://loinc.org","code":"8867-4"}]},"subject":{"reference":"Patient/fefa593b-8961-433a-ad9b-2937039c872e"},"effectiveDateTime":"2022-10-31T00:00:00+00:00","valueQuantity":{"value":100.1,"unit":"Per Minute","system":"http://unitsofmeasure.org","code":"/min"}},"request":{"method":"POST","url":"Observation"}},{"fullUrl":"Patient/6c427ca1-4cd1-4b58-8649-877f373146b8","resource":{"resourceType":"Patient","id":"6c427ca1-4cd1-4b58-8649-877f373146b8","meta":{"profile":["http://hl7.org/fhir/us/core/StructureDefinition/us-core-patient"]},"extension":[{"extension":[{"url":"ombCategory","valueCoding":{"system":"urn:oid:2.16.840.1.113883.6.238","code":"2028-9","display":"Asian"}},{"url":"text","valueString":"Asian"}],"url":"http://hl7.org/fhir/us/core/StructureDefinition/us-core-race"},{"extension":[{"url":"ombCategory","valueCoding":{"system":"urn:oid:2.16.840.1.113883.6.238","code":"2135-2","display":"Hispanic or Latino"}},{"url":"text","valueString":"Hispanic or Latino"}],"url":"http://hl7.org/fhir/us/core/StructureDefinition/us-core-ethnicity"}],"identifier":[{"type":{"coding":[{"system":"http://terminology.hl7.org/CodeSystem/v2-0203","code":"MR"}]},"system":"urn:fhirgen:mrn","value":"064-49-4039"}],"name":[{"use":"official","family":"Lee","given":["Marc"]},{"use":"maiden","family":"Villarreal"}],"telecom":[{"system":"phone","value":"086-379-4129","use":"home"},{"system":"email","value":"pperkins@hotmail.com","use":"mobile"}],"gender":"other","birthDate":"1967-02-17","address":[{"use":"home","line":["353 Taylor Field"],"city":"Sparksfurt","state":"PA","postalCode":"30329"},{"use":"old","line":["573 Kayla Bridge Suite 781"],"city":"Sergioview","state":"TX","postalCode":"62499"}]},"request":{"method":"POST","url":"Patient"}},{"fullUrl":"Observation/ee8b502d-377e-4fe9-88d5-360623507c77","resource":{"resourceType":"Observation","id":"ee8b502d-377e-4fe9-88d5-360623507c77","meta":{"profile":["http://hl7.org/fhir/us/core/StructureDefinition/us-core-observation-lab"]},"status":"final","category":[{"coding":[{"system":"http://terminology.hl7.org/CodeSystem/observation-category","code":"laboratory","display":"Laboratory"}]}],"code":{"coding":[{"system":"http://loinc.org","code":"50690-7"}]},"subject":{"reference":"Patient/6c427ca1-4cd1-4b58-8649-877f373146b8"},"effectiveDateTime":"2022-08-26T00:00:00+00:00","valueRatio":{"numerator":{"value":1},"denominator":{"value":32}}},"request":{"method":"POST","url":"Observation"}},{"fullUrl":"Observation/c5c7eafd-5928-4149-8915-86adcc9e7eb7","resource":{"resourceType":"Observation","id":"c5c7eafd-5928-4149-8915-86adcc9e7eb7","meta":{"profile":["http://hl7.org/fhir/us/core/StructureDefinition/us-core-observation-lab"]},"status":"final","category":[{"coding":[{"system":"http://terminology.hl7.org/CodeSystem/observation-category","code":"laboratory","display":"Laboratory"}]}],"code":{"coding":[{"system":"http://loinc.org","code":"46203-6"}]},"subject":{"reference":"Patient/6c427ca1-4cd1-4b58-8649-877f373146b8"},"effectiveDateTime":"2022-09-25T00:00:00+00:00","valueRatio":{"numerator":{"value":1},"denominator":{"value":32}}},"request":{"method":"POST","url":"Observation"}},{"fullUrl":"Condition/80bca3f3-9c90-42cb-a331-e2fe9c81c432","resource":{"resourceType":"Condition","id":"80bca3f3-9c90-42cb-a331-e2fe9c81c432","meta":{"profile":["http://hl7.org/fhir/us/core/StructureDefinition/us-core-condition"]},"clinicalStatus":{"coding":[{"system":"http://terminology.hl7.org/CodeSystem/condition-clinical","code":"active","display":"Active"}]},"category":[{"coding":[{"system":"http://terminology.hl7.org/CodeSystem/condition-category","code":"problem-list-item"}]}],"code":{"coding":[{"system":"http://snomed.info/sct","code":"91554004"}]},"subject":{"reference":"Patient/6c427ca1-4cd1-4b58-8649-877f373146b8"},"onsetDateTime":"2022-06-30T00:00:00+00:00"},"request":{"method":"POST","url":"Condition"}},{"fullUrl":"Condition/f02a4828-cbe6-45fe-a800-20e6c473f7ac","resource":{"resourceType":"Condition","id":"f02a4828-cbe6-45fe-a800-20e6c473f7ac","meta":{"profile":["http://hl7.org/fhir/us/core/StructureDefinition/us-core-condition"]},"clinicalStatus":{"coding":[{"system":"http://terminology.hl7.org/CodeSystem/condition-clinical","code":"active","display":"Active"}]},"category":[{"coding":[{"system":"http://terminology.hl7.org/CodeSystem/condition-category","code":"problem-list-item"}]}],"code":{"coding":[{"system":"http://snomed.info/sct","code":"44882003"}]},"subject":{"reference":"Patient/6c427ca1-4cd1-4b58-8649-877f373146b8"},"onsetDateTime":"2022-06-15T00:00:00+00:00"},"request":{"method":"POST","url":"Condition"}},{"fullUrl":"Condition/00a6d394-5cc6-47ca-9009-12560eebec7d","resource":{"resourceType":"Condition","id":"00a6d394-5cc6-47ca-9009-12560eebec7d","meta":{"profile":["http://hl7.org/fhir/us/core/StructureDefinition/us-core-condition"]},"clinicalStatus":{"coding":[{"system":"http://terminology.hl7.org/CodeSystem/condition-clinical","code":"active","display":"Active"}]},"category":[{"coding":[{"system":"http://terminology.hl7.org/CodeSystem/condition-category","code":"problem-list-item"}]}],"code":{"coding":[{"system":"http://snomed.info/sct","code":"709977002"}]},"subject":{"reference":"Patient/6c427ca1-4cd1-4b58-8649-877f373146b8"},"onsetDateTime":"2022-01-03T00:00:00+00:00"},"request":{"method":"POST","url":"Condition"}},{"fullUrl":"Condition/8916d88d-0e5b-4775-ace9-9c4b3f49bd6a","resource":{"resourceType":"Condition","id":"8916d88d-0e5b-4775-ace9-9c4b3f49bd6a","meta":{"profile":["http://hl7.org/fhir/us/core/StructureDefinition/us-core-condition"]},"clinicalStatus":{"coding":[{"system":"http://terminology.hl7.org/CodeSystem/condition-clinical","code":"active","display":"Active"}]},"category":[{"coding":[{"system":"http://terminology.hl7.org/CodeSystem/condition-category","code":"problem-list-item"}]}],"code":{"coding":[{"system":"http://snomed.info/sct","code":"418290006"}]},"subject":{"reference":"Patient/6c427ca1-4cd1-4b58-8649-877f373146b8"},"onsetDateTime":"2022-03-12T00:00:00+00:00"},"request":{"method":"POST","url":"Condition"}},{"fullUrl":"Condition/b4fd067b-f5a5-4f6c-8c85-74faabe28de9","resource":{"resourceType":"Condition","id":"b4fd067b-f5a5-4f6c-8c85-74faabe28de9","meta":{"profile":["http://hl7.org/fhir/us/core/StructureDefinition/us-core-condition"]},"clinicalStatus":{"coding":[{"system":"http://terminology.hl7.org/CodeSystem/condition-clinical","code":"active","display":"Active"}]},"category":[{"coding":[{"system":"http://terminology.hl7.org/CodeSystem/condition-category","code":"problem-list-item"}]}],"code":{"coding":[{"system":"http://snomed.info/sct","code":"418290006"}]},"subject":{"reference":"Patient/6c427ca1-4cd1-4b58-8649-877f373146b8"},"onsetDateTime":"2022-03-20T00:00:00+00:00"},"request":{"method":"POST","url":"Condition"}},{"fullUrl":"Condition/7dec5a2b-ee76-4dd2-8a12-a1db1571bed8","resource":{"resourceType":"Condition","id":"7dec5a2b-ee76-4dd2-8a12-a1db1571bed8","meta":{"profile":["http://hl7.org/fhir/us/core/StructureDefinition/us-core-condition"]},"clinicalStatus":{"coding":[{"system":"http://terminology.hl7.org/CodeSystem/condition-clinical","code":"active","display":"Active"}]},"category":[{"coding":[{"system":"http://terminology.hl7.org/CodeSystem/condition-category","code":"problem-list-item"}]}],"code":{"coding":[{"system":"http://snomed.info/sct","code":"736686006"}]},"subject":{"reference":"Patient/6c427ca1-4cd1-4b58-8649-877f373146b8"},"onsetDateTime":"2022-06-29T00:00:00+00:00"},"request":{"method":"POST","url":"Condition"}},{"fullUrl":"Condition/c09266b7-7679-4f58-b7ee-82eb569da643","resource":{"resourceType":"Condition","id":"c09266b7-7679-4f58-b7ee-82eb569da643","meta":{"profile":["http://hl7.org/fhir/us/core/StructureDefinition/us-core-condition"]},"clinicalStatus":{"coding":[{"system":"http://terminology.hl7.org/CodeSystem/condition-clinical","code":"active","display":"Active"}]},"category":[{"coding":[{"system":"http://terminology.hl7.org/CodeSystem/condition-category","code":"problem-list-item"}]}],"code":{"coding":[{"system":"http://snomed.info/sct","code":"44882003"}]},"subject":{"reference":"Patient/6c427ca1-4cd1-4b58-8649-877f373146b8"},"onsetDateTime":"2022-02-15T00:00:00+00:00"},"request":{"method":"POST","url":"Condition"}},{"fullUrl":"Observation/a10ba88c-699e-4eeb-98e9-89f1c145abc7","resource":{"resourceType":"Observation","id":"a10ba88c-699e-4eeb-98e9-89f1c145abc7","meta":{"profile":["http://hl7.org/fhir/us/core/StructureDefinition/us-core-observation-lab"]},"status":"final","category":[{"coding":[{"system":"http://terminology.hl7.org/CodeSystem/observation-category","code":"laboratory","display":"Laboratory"}]}],"code":{"coding":[{"system":"http://loinc.org","code":"26464-8"}]},"subject":{"reference":"Patient/6c427ca1-4cd1-4b58-8649-877f373146b8"},"effectiveDateTime":"2022-05-06T00:00:00+00:00","valueQuantity":{"value":6.4}},"request":{"method":"POST","url":"Observation"}},{"fullUrl":"Observation/0eca0c4b-6726-4557-b32a-c4336839e137","resource":{"resourceType":"Observation","id":"0eca0c4b-6726-4557-b32a-c4336839e137","meta":{"profile":["http://hl7.org/fhir/us/core/StructureDefinition/us-core-observation-lab"]},"status":"final","category":[{"coding":[{"system":"http://terminology.hl7.org/CodeSystem/observation-category","code":"laboratory","display":"Laboratory"}]}],"code":{"coding":[{"system":"http://loinc.org","code":"6690-2"}]},"subject":{"reference":"Patient/6c427ca1-4cd1-4b58-8649-877f373146b8"},"effectiveDateTime":"2022-06-08T00:00:00+00:00","valueQuantity":{"value":10.5}},"request":{"method":"POST","url":"Observation"}},{"fullUrl":"Observation/aeb596cc-30ff-498d-b5d5-2c8855791a2d","resource":{"resourceType":"Observation","id":"aeb596cc-30ff-498d-b5d5-2c8855791a2d","meta":{"profile":["http://hl7.org/fhir/us/core/StructureDefinition/us-core-bmi"]},"status":"final","category":[{"coding":[{"system":"http://terminology.hl7.org/CodeSystem/observation-category","code":"vital-signs","display":"Vital Signs"}]}],"code":{"coding":[{"system":"http://loinc.org","code":"39156-5"}]},"subject":{"reference":"Patient/6c427ca1-4cd1-4b58-8649-877f373146b8"},"effectiveDateTime":"2022-02-02T00:00:00+00:00","valueQuantity":{"value":12.31,"unit":"kg/m2","system":"http://unitsofmeasure.org","code":"kg/m2"}},"request":{"method":"POST","url":"Observation"}},{"fullUrl":"Observation/e92aa844-42b2-4e4e-b0e7-4c677b43941c","resource":{"resourceType":"Observation","id":"e92aa844-42b2-4e4e-b0e7-4c677b43941c","meta":{"profile":["http://hl7.org/fhir/us/core/StructureDefinition/us-core-bmi"]},"status":"final","category":[{"coding":[{"system":"http://terminology.hl7.org/CodeSystem/observation-category","code":"vital-signs","display":"Vital Signs"}]}],"code":{"coding":[{"system":"http://loinc.org","code":"39156-5"}]},"subject":{"reference":"Patient/6c427ca1-4cd1-4b58-8649-877f373146b8"},"effectiveDateTime":"2022-04-19T00:00:00+00:00","valueQuantity":{"value":14.07,"unit":"kg/m2","system":"http://unitsofmeasure.org","code":"kg/m2"}},"request":{"method":"POST","url":"Observation"}},{"fullUrl":"Observation/395922bb-1676-432f-bcef-d791878d0869","resource":{"resourceType":"Observation","id":"395922bb-1676-432f-bcef-d791878d0869","meta":{"profile":["http://hl7.org/fhir/us/core/StructureDefinition/us-core-head-circumference"]},"status":"final","category":[{"coding":[{"system":"http://terminology.hl7.org/CodeSystem/observation-category","code":"vital-signs","display":"Vital Signs"}]}],"code":{"coding":[{"system":"http://loinc.org","code":"9843-4"}]},"subject":{"reference":"Patient/6c427ca1-4cd1-4b58-8649-877f373146b8"},"effectiveDateTime":"2022-08-16T00:00:00+00:00","valueQuantity":{"value":7.5,"unit":"Inch","system":"http://unitsofmeasure.org","code":"[in_i]"}},"request":{"method":"POST","url":"Observation"}},{"fullUrl":"Observation/5279ac9d-1a92-4d4c-b2ed-5f34b83b494c","resource":{"resourceType":"Observation","id":"5279ac9d-1a92-4d4c-b2ed-5f34b83b494c","meta":{"profile":["http://hl7.org/fhir/us/core/StructureDefinition/us-core-head-circumference"]},"status":"final","category":[{"coding":[{"system":"http://terminology.hl7.org/CodeSystem/observation-category","code":"vital-signs","display":"Vital Signs"}]}],"code":{"coding":[{"system":"http://loinc.org","code":"9843-4"}]},"subject":{"reference":"Patient/6c427ca1-4cd1-4b58-8649-877f373146b8"},"effectiveDateTime":"2022-06-04T00:00:00+00:00","valueQuantity":{"value":2.3,"unit":"Inch","system":"http://unitsofmeasure.org","code":"[in_i]"}},"request":{"method":"POST","url":"Observation"}},{"fullUrl":"Observation/5ad3070b-8944-4e28-9104-1b7b9013794b","resource":{"resourceType":"Observation","id":"5ad3070b-8944-4e28-9104-1b7b9013794b","meta":{"profile":["http://hl7.org/fhir/us/core/StructureDefinition/us-core-body-height"]},"status":"final","category":[{"coding":[{"system":"http://terminology.hl7.org/CodeSystem/observation-category","code":"vital-signs","display":"Vital Signs"}]}],"code":{"coding":[{"system":"http://loinc.org","code":"8302-2"}]},"subject":{"reference":"Patient/6c427ca1-4cd1-4b58-8649-877f373146b8"},"effectiveDateTime":"2022-09-29T00:00:00+00:00","valueQuantity":{"value":72.9,"unit":"Inch","system":"http://unitsofmeasure.org","code":"[in_i]"}},"request":{"method":"POST","url":"Observation"}},{"fullUrl":"Observation/6ed31f7c-4aec-4cd3-87e1-f70933fae7b5","resource":{"resourceType":"Observation","id":"6ed31f7c-4aec-4cd3-87e1-f70933fae7b5","meta":{"profile":["http://hl7.org/fhir/us/core/StructureDefinition/us-core-body-weight"]},"status":"final","category":[{"coding":[{"system":"http://terminology.hl7.org/CodeSystem/observation-category","code":"vital-signs","display":"Vital Signs"}]}],"code":{"coding":[{"system":"http://loinc.org","code":"29463-7"}]},"subject":{"reference":"Patient/6c427ca1-4cd1-4b58-8649-877f373146b8"},"effectiveDateTime":"2022-03-18T00:00:00+00:00","valueQuantity":{"value":113.97,"unit":"kilogram","system":"http://unitsofmeasure.org","code":"kg"}},"request":{"method":"POST","url":"Observation"}},{"fullUrl":"Observation/1fda1e84-4abc-494b-9912-770a275ffb70","resource":{"resourceType":"Observation","id":"1fda1e84-4abc-494b-9912-770a275ffb70","meta":{"profile":["http://hl7.org/fhir/us/core/StructureDefinition/us-core-body-temperature"]},"status":"final","category":[{"coding":[{"system":"http://terminology.hl7.org/CodeSystem/observation-category","code":"vital-signs","display":"Vital Signs"}]}],"code":{"coding":[{"system":"http://loinc.org","code":"8310-5"}]},"subject":{"reference":"Patient/6c427ca1-4cd1-4b58-8649-877f373146b8"},"effectiveDateTime":"2022-06-29T00:00:00+00:00","valueQuantity":{"value":31.79,"unit":"Degrees Fahrenheit","system":"http://unitsofmeasure.org","code":"[degF]"}},"request":{"method":"POST","url":"Observation"}},{"fullUrl":"Observation/badcaf13-015f-43f8-ac2e-fe4ac5a3916d","resource":{"resourceType":"Observation","id":"badcaf13-015f-43f8-ac2e-fe4ac5a3916d","meta":{"profile":["http://hl7.org/fhir/us/core/StructureDefinition/us-core-body-temperature"]},"status":"final","category":[{"coding":[{"system":"http://terminology.hl7.org/CodeSystem/observation-category","code":"vital-signs","display":"Vital Signs"}]}],"code":{"coding":[{"system":"http://loinc.org","code":"8310-5"}]},"subject":{"reference":"Patient/6c427ca1-4cd1-4b58-8649-877f373146b8"},"effectiveDateTime":"2022-09-11T00:00:00+00:00","valueQuantity":{"value":57.91,"unit":"Degrees Fahrenheit","system":"http://unitsofmeasure.org","code":"[degF]"}},"request":{"method":"POST","url":"Observation"}},{"fullUrl":"Observation/ee009c29-3bc0-4920-9a90-1d2a80b62cbd","resource":{"resourceType":"Observation","id":"ee009c29-3bc0-4920-9a90-1d2a80b62cbd","meta":{"profile":["http://hl7.org/fhir/us/core/StructureDefinition/us-core-heart-rate"]},"status":"final","category":[{"coding":[{"system":"http://terminology.hl7.org/CodeSystem/observation-category","code":"vital-signs","display":"Vital Signs"}]}],"code":{"coding":[{"system":"http://loinc.org","code":"8867-4"}]},"subject":{"reference":"Patient/6c427ca1-4cd1-4b58-8649-877f373146b8"},"effectiveDateTime":"2022-07-13T00:00:00+00:00","valueQuantity":{"value":100.4,"unit":"Per Minute","system":"http://unitsofmeasure.org","code":"/min"}},"request":{"method":"POST","url":"Observation"}}]}