{"resourceType":"Bundle","id":"92cf17ce-4813-49ae-977b-ea7cd13b272b","type":"transaction","entry":[{"fullUrl":"Patient/44d6163c-bccf-49d0-b8c6-b2b77ed8e860","resource":{"resourceType":"Patient","id":"44d6163c-bccf-49d0-b8c6-b2b77ed8e860","meta":{"profile":["http://hl7.org/fhir/us/core/StructureDefinition/us-core-patient"]},"identifier":[{"type":{"coding":[{"system":"http://terminology.hl7.org/CodeSystem/v2-0203","code":"MR"}]},"system":"urn:fhirgen:mrn","value":"193-98-0311"}],"name":[{"family":"Morris","given":["Craig"]}],"gender":"male","birthDate":"1988-03-31","address":[{"line":["00845 Thompson Meadow Suite 833"],"city":"Ritaland","state":"Georgia"}]},"request":{"method":"POST","url":"Patient"}},{"fullUrl":"Observation/37ba68aa-01d2-4287-b5c3-0aa69de8eee4","resource":{"resourceType":"Observation","id":"37ba68aa-01d2-4287-b5c3-0aa69de8eee4","meta":{"profile":["http://hl7.org/fhir/us/core/StructureDefinition/us-core-observation-lab"]},"status":"final","category":[{"coding":[{"system":"http://terminology.hl7.org/CodeSystem/observation-category","code":"laboratory","display":"Laboratory"}]}],"code":{"coding":[{"system":"http://loinc.org","code":"26009-1"}]},"subject":{"reference":"Patient/44d6163c-bccf-49d0-b8c6-b2b77ed8e860"},"effectiveDateTime":"2022-12-19T00:00:00+00:00","valueRatio":{"numerator":{"value":1.0},"denominator":{"value":64.0}}},"request":{"method":"POST","url":"Observation"}},{"fullUrl":"Observation/1cc00e3c-1e91-4414-af8e-4d3382fad6c7","resource":{"resourceType":"Observation","id":"1cc00e3c-1e91-4414-af8e-4d3382fad6c7","meta":{"profile":["http://hl7.org/fhir/us/core/StructureDefinition/us-core-observation-lab"]},"status":"final","category":[{"coding":[{"system":"http://terminology.hl7.org/CodeSystem/observation-category","code":"laboratory","display":"Laboratory"}]}],"code":{"coding":[{"system":"http://loinc.org","code":"34382-2"}]},"subject":{"reference":"Patient/44d6163c-bccf-49d0-b8c6-b2b77ed8e860"},"effectiveDateTime":"2022-01-09T00:00:00+00:00","valueRatio":{"numerator":{"value":1.0},"denominator":{"value":32.0}}},"request":{"method":"POST","url":"Observation"}},{"fullUrl":"Condition/9fa28f7c-227b-474b-8f29-a5d56cc26651","resource":{"resourceType":"Condition","id":"9fa28f7c-227b-474b-8f29-a5d56cc26651","meta":{"profile":["http://hl7.org/fhir/us/core/StructureDefinition/us-core-condition"]},"clinicalStatus":{"coding":[{"system":"http://terminology.hl7.org/CodeSystem/condition-clinical","code":"active","display":"Active"}]},"category":[{"coding":[{"system":"http://terminology.hl7.org/CodeSystem/condition-ver-status","code":"confirmed"}]}],"code":{"coding":[{"system":"http://snomed.info/sct","code":"44882003"}]},"subject":{"reference":"Patient/44d6163c-bccf-49d0-b8c6-b2b77ed8e860"},"onsetDateTime":"2022-04-01T00:00:00+00:00"},"request":{"method":"POST","url":"Condition"}},{"fullUrl":"Condition/bfb7a91e-031a-4f42-9012-6e89eb613ce5","resource":{"resourceType":"Condition","id":"bfb7a91e-031a-4f42-9012-6e89eb613ce5","meta":{"profile":["http://hl7.org/fhir/us/core/StructureDefinition/us-core-condition"]},"clinicalStatus":{"coding":[{"system":"http://terminology.hl7.org/CodeSystem/condition-clinical","code":"active","display":"Active"}]},"category":[{"coding":[{"system":"http://terminology.hl7.org/CodeSystem/condition-ver-status","code":"confirmed"}]}],"code":{"coding":[{"system":"http://snomed.info/sct","code":"44882003"}]},"subject":{"reference":"Patient/44d6163c-bccf-49d0-b8c6-b2b77ed8e860"},"onsetDateTime":"2022-04-06T00:00:00+00:00"},"request":{"method":"POST","url":"Condition"}},{"fullUrl":"Condition/07a95e5e-86c4-4113-a16e-c2becd24bafa","resource":{"resourceType":"Condition","id":"07a95e5e-86c4-4113-a16e-c2becd24bafa","meta":{"profile":["http://hl7.org/fhir/us/core/StructureDefinition/us-core-condition"]},"clinicalStatus":{"coding":[{"system":"http://terminology.hl7.org/CodeSystem/condition-clinical","code":"active","display":"Active"}]},"category":[{"coding":[{"system":"http://terminology.hl7.org/CodeSystem/condition-ver-status","code":"confirmed"}]}],"code":{"coding":[{"system":"http://snomed.info/sct","code":"44882003"}]},"subject":{"reference":"Patient/44d6163c-bccf-49d0-b8c6-b2b77ed8e860"},"onsetDateTime":"2022-01-27T00:00:00+00:00"},"request":{"method":"POST","url":"Condition"}},{"fullUrl":"Condition/5963ab70-29bd-419c-822c-a1349640acba","resource":{"resourceType":"Condition","id":"5963ab70-29bd-419c-822c-a1349640acba","meta":{"profile":["http://hl7.org/fhir/us/core/StructureDefinition/us-core-condition"]},"clinicalStatus":{"coding":[{"system":"http://terminology.hl7.org/CodeSystem/condition-clinical","code":"active","display":"Active"}]},"category":[{"coding":[{"system":"http://terminology.hl7.org/CodeSystem/condition-ver-status","code":"confirmed"}]}],"code":{"coding":[{"system":"http://snomed.info/sct","code":"91554004"}]},"subject":{"reference":"Patient/44d6163c-bccf-49d0-b8c6-b2b77ed8e860"},"onsetDateTime":"2022-12-20T00:00:00+00:00"},"request":{"method":"POST","url":"Condition"}},{"fullUrl":"Condition/b5a1d23f-ec29-48f8-b2ea-69ed5a5b8911","resource":{"resourceType":"Condition","id":"b5a1d23f-ec29-48f8-b2ea-69ed5a5b8911","meta":{"profile":["http://hl7.org/fhir/us/core/StructureDefinition/us-core-condition"]},"clinicalStatus":{"coding":[{"system":"http://terminology.hl7.org/CodeSystem/condition-clinical","code":"active","display":"Active"}]},"category":[{"coding":[{"system":"http://terminology.hl7.org/CodeSystem/condition-ver-status","code":"confirmed"}]}],"code":{"coding":[{"system":"http://snomed.info/sct","code":"44882003"}]},"subject":{"reference":"Patient/44d6163c-bccf-49d0-b8c6-b2b77ed8e860"},"onsetDateTime":"2022-09-11T00:00:00+00:00"},"request":{"method":"POST","url":"Condition"}},{"fullUrl":"Observation/5f61ad57-b41c-4f22-a74d-e9fc2f9b5f32","resource":{"resourceType":"Observation","id":"5f61ad57-b41c-4f22-a74d-e9fc2f9b5f32","meta":{"profile":["http://hl7.org/fhir/us/core/StructureDefinition/us-core-observation-lab"]},"status":"final","category":[{"coding":[{"system":"http://terminology.hl7.org/CodeSystem/observation-category","code":"laboratory","display":"Laboratory"}]}],"code":{"coding":[{"system":"http://loinc.org","code":"6690-2"}]},"subject":{"reference":"Patient/44d6163c-bccf-49d0-b8c6-b2b77ed8e860"},"effectiveDateTime":"2022-12-07T00:00:00+00:00","valueQuantity":{"value":7.2}},"request":{"method":"POST","url":"Observation"}},{"fullUrl":"Observation/62430cd2-2ec3-417b-a6ed-3be2641d7f89","resource":{"resourceType":"Observation","id":"62430cd2-2ec3-417b-a6ed-3be2641d7f89","meta":{"profile":["http://hl7.org/fhir/us/core/StructureDefinition/us-core-observation-lab"]},"status":"final","category":[{"coding":[{"system":"http://terminology.hl7.org/CodeSystem/observation-category","code":"laboratory","display":"Laboratory"}]}],"code":{"coding":[{"system":"http://loinc.org","code":"26464-8"}]},"subject":{"reference":"Patient/44d6163c-bccf-49d0-b8c6-b2b77ed8e860"},"effectiveDateTime":"2022-04-24T00:00:00+00:00","valueQuantity":{"value":10.4}},"request":{"method":"POST","url":"Observation"}},{"fullUrl":"Observation/bcbffff6-aced-4530-a77c-0afa0f1e4990","resource":{"resourceType":"Observation","id":"bcbffff6-aced-4530-a77c-0afa0f1e4990","meta":{"profile":["http://hl7.org/fhir/us/core/StructureDefinition/us-core-bmi"]},"status":"final","category":[{"coding":[{"system":"http://terminology.hl7.org/CodeSystem/observation-category","code":"vital-signs","display":"Vital Signs"}]}],"code":{"coding":[{"system":"http://loinc.org","code":"39156-5"}]},"subject":{"reference":"Patient/44d6163c-bccf-49d0-b8c6-b2b77ed8e860"},"effectiveDateTime":"2022-04-06T00:00:00+00:00","valueQuantity":{"value":27.69,"unit":"kg/m2","system":"http://unitsofmeasure.org","code":"kg/m2"}},"request":{"method":"POST","url":"Observation"}},{"fullUrl":"Observation/63d4fa57-f419-4bc8-a3b5-590d375a4359","resource":{"resourceType":"Observation","id":"63d4fa57-f419-4bc8-a3b5-590d375a4359","meta":{"profile":["http://hl7.org/fhir/us/core/StructureDefinition/us-core-head-circumference"]},"status":"final","category":[{"coding":[{"system":"http://terminology.hl7.org/CodeSystem/observation-category","code":"vital-signs","display":"Vital Signs"}]}],"code":{"coding":[{"system":"http://loinc.org","code":"9843-4"}]},"subject":{"reference":"Patient/44d6163c-bccf-49d0-b8c6-b2b77ed8e860"},"effectiveDateTime":"2022-09-29T00:00:00+00:00","valueQuantity":{"value":7.1,"unit":"Inch","system":"http://unitsofmeasure.org","code":"[in_i]"}},"request":{"method":"POST","url":"Observation"}},{"fullUrl":"Observation/cf0dda31-c1d4-4464-a2eb-33c2f36c4195","resource":{"resourceType":"Observation","id":"cf0dda31-c1d4-4464-a2eb-33c2f36c4195","meta":{"profile":["http://hl7.org/fhir/us/core/StructureDefinition/us-core-head-circumference"]},"status":"final","category":[{"coding":[{"system":"http://terminology.hl7.org/CodeSystem/observation-category","code":"vital-signs","display":"Vital Signs"}]}],"code":{"coding":[{"system":"http://loinc.org","code":"9843-4"}]},"subject":{"reference":"Patient/44d6163c-bccf-49d0-b8c6-b2b77ed8e860"},"effectiveDateTime":"2022-07-25T00:00:00+00:00","valueQuantity":{"value":3.2,"unit":"Inch","system":"http://unitsofmeasure.org","code":"[in_i]"}},"request":{"method":"POST","url":"Observation"}},{"fullUrl":"Observation/65c31984-acbe-42be-baa2-6cc73e197e60","resource":{"resourceType":"Observation","id":"65c31984-acbe-42be-baa2-6cc73e197e60","meta":{"profile":["http://hl7.org/fhir/us/core/StructureDefinition/us-core-body-height"]},"status":"final","category":[{"coding":[{"system":"http://terminology.hl7.org/CodeSystem/observation-category","code":"vital-signs","display":"Vital Signs"}]}],"code":{"coding":[{"system":"http://loinc.org","code":"8302-2"}]},"subject":{"reference":"Patient/44d6163c-bccf-49d0-b8c6-b2b77ed8e860"},"effectiveDateTime":"2022-11-24T00:00:00+00:00","valueQuantity":{"value":75.8,"unit":"Inch","system":"http://unitsofmeasure.org","code":"[in_i]"}},"request":{"method":"POST","url":"Observation"}},{"fullUrl":"Observation/f74fdad9-e412-4e78-b500-e4ead8716fc6","resource":{"resourceType":"Observation","id":"f74fdad9-e412-4e78-b500-e4ead8716fc6","meta":{"profile":["http://hl7.org/fhir/us/core/StructureDefinition/us-core-body-weight"]},"status":"final","category":[{"coding":[{"system":"http://terminology.hl7.org/CodeSystem/observation-category","code":"vital-signs","display":"Vital Signs"}]}],"code":{"coding":[{"system":"http://loinc.org","code":"29463-7"}]},"subject":{"reference":"Patient/44d6163c-bccf-49d0-b8c6-b2b77ed8e860"},"effectiveDateTime":"2022-05-12T00:00:00+00:00","valueQuantity":{"value":31.64,"unit":"kilogram","system":"http://unitsofmeasure.org","code":"kg"}},"request":{"method":"POST","url":"Observation"}},{"fullUrl":"Observation/0aa0b81c-17d6-4e03-85b3-9ecbba4d9ff9","resource":{"resourceType":"Observation","id":"0aa0b81c-17d6-4e03-85b3-9ecbba4d9ff9","meta":{"profile":["http://hl7.org/fhir/us/core/StructureDefinition/us-core-body-weight"]},"status":"final","category":[{"coding":[{"system":"http://terminology.hl7.org/CodeSystem/observation-category","code":"vital-signs","display":"Vital Signs"}]}],"code":{"coding":[{"system":"http://loinc.org","code":"29463-7"}]},"subject":{"reference":"Patient/44d6163c-bccf-49d0-b8c6-b2b77ed8e860"},"effectiveDateTime":"2022-09-27T00:00:00+00:00","valueQuantity":{"value":67.06,"unit":"kilogram","system":"http://unitsofmeasure.org","code":"kg"}},"request":{"method":"POST","url":"Observation"}},{"fullUrl":"Observation/6b8693a8-fdd2-43ce-9c5e-7f0c84b92fc8","resource":{"resourceType":"Observation","id":"6b8693a8-fdd2-43ce-9c5e-7f0c84b92fc8","meta":{"profile":["http://hl7.org/fhir/us/core/StructureDefinition/us-core-body-temperature"]},"status":"final","category":[{"coding":[{"system":"http://terminology.hl7.org/CodeSystem/observation-category","code":"vital-signs","display":"Vital Signs"}]}],"code":{"coding":[{"system":"http://loinc.org","code":"8310-5"}]},"subject":{"reference":"Patient/44d6163c-bccf-49d0-b8c6-b2b77ed8e860"},"effectiveDateTime":"2022-07-12T00:00:00+00:00","valueQuantity":{"value":135.95,"unit":"kilogram","system":"http://unitsofmeasure.org","code":"kg"}},"request":{"method":"POST","url":"Observation"}},{"fullUrl":"Observation/6996e4b5-37c3-49ca-ba4f-9000bfe444a3","resource":{"resourceType":"Observation","id":"6996e4b5-37c3-49ca-ba4f-9000bfe444a3","meta":{"profile":["http://hl7.org/fhir/us/core/StructureDefinition/us-core-heart-rate"]},"status":"final","category":[{"coding":[{"system":"http://terminology.hl7.org/CodeSystem/observation-category","code":"vital-signs","display":"Vital Signs"}]}],"code":{"coding":[{"system":"http://loinc.org","code":"8867-4"}]},"subject":{"reference":"Patient/44d6163c-bccf-49d0-b8c6-b2b77ed8e860"},"effectiveDateTime":"2022-02-01T00:00:00+00:00","valueQuantity":{"value":96.6,"unit":"Degrees Fahrenheit","system":"http://unitsofmeasure.org","code":"[degF]"}},"request":{"method":"POST","url":"Observation"}},{"fullUrl":"Patient/2c14fb83-67df-4268-962e-25c38a705c3c","resource":{"resourceType":"Patient","id":"2c14fb83-67df-4268-962e-25c38a705c3c","meta":{"profile":["http://hl7.org/fhir/us/core/StructureDefinition/us-core-patient"]},"identifier":[{"type":{"coding":[{"system":"http://terminology.hl7.org/CodeSystem/v2-0203","code":"MR"}]},"system":"urn:fhirgen:mrn","value":"670-56-3196"}],"name":[{"family":"Harris","given":["Tyler"]}],"gender":"male","birthDate":"1964-01-09","address":[{"line":["5018 Austin Fields Apt. 100"],"city":"West Russell","state":"Tennessee"}]},"request":{"method":"POST","url":"Patient"}},{"fullUrl":"Observation/11c6a0e8-cff3-4e39-8897-7a9530745331","resource":{"resourceType":"Observation","id":"11c6a0e8-cff3-4e39-8897-7a9530745331","meta":{"profile":["http://hl7.org/fhir/us/core/StructureDefinition/us-core-observation-lab"]},"status":"final","category":[{"coding":[{"system":"http://terminology.hl7.org/CodeSystem/observation-category","code":"laboratory","display":"Laboratory"}]}],"code":{"coding":[{"system":"http://loinc.org","code":"5394-2"}]},"subject":{"reference":"Patient/2c14fb83-67df-4268-962e-25c38a705c3c"},"effectiveDateTime":"2022-02-19T00:00:00+00:00","valueRatio":{"numerator":{"value":1.0},"denominator":{"value":64.0}}},"request":{"method":"POST","url":"Observation"}},{"fullUrl":"Observation/f5ce1f23-3301-4d6e-a8f7-7052fb9a911b","resource":{"resourceType":"Observation","id":"f5ce1f23-3301-4d6e-a8f7-7052fb9a911b","meta":{"profile":["http://hl7.org/fhir/us/core/StructureDefinition/us-core-observation-lab"]},"status":"final","category":[{"coding":[{"system":"http://terminology.hl7.org/CodeSystem/observation-category","code":"laboratory","display":"Laboratory"}]}],"code":{"coding":[{"system":"http://loinc.org","code":"34382-2"}]},"subject":{"reference":"Patient/2c14fb83-67df-4268-962e-25c38a705c3c"},"effectiveDateTime":"2022-09-12T00:00:00+00:00","valueRatio":{"numerator":{"value":1.0},"denominator":{"value":64.0}}},"request":{"method":"POST","url":"Observation"}},{"fullUrl":"Observation/b646672d-922c-4fe3-afdb-d3ca2cc5e17d","resource":{"resourceType":"Observation","id":"b646672d-922c-4fe3-afdb-d3ca2cc5e17d","meta":{"profile":["http://hl7.org/fhir/us/core/StructureDefinition/us-core-observation-lab"]},"status":"final","category":[{"coding":[{"system":"http://terminology.hl7.org/CodeSystem/observation-category","code":"laboratory","display":"Laboratory"}]}],"code":{"coding":[{"system":"http://loinc.org","code":"71793-4"}]},"subject":{"reference":"Patient/2c14fb83-67df-4268-962e-25c38a705c3c"},"effectiveDateTime":"2022-04-11T00:00:00+00:00","valueRatio":{"numerator":{"value":1.0},"denominator":{"value":32.0}}},"request":{"method":"POST","url":"Observation"}},{"fullUrl":"Condition/5d5b98cc-c981-4cb2-87f9-d073a1894066","resource":{"resourceType":"Condition","id":"5d5b98cc-c981-4cb2-87f9-d073a1894066","meta":{"profile":["http://hl7.org/fhir/us/core/StructureDefinition/us-core-condition"]},"clinicalStatus":{"coding":[{"system":"http://terminology.hl7.org/CodeSystem/condition-clinical","code":"active","display":"Active"}]},"category":[{"coding":[{"system":"http://terminology.hl7.org/CodeSystem/condition-ver-status","code":"confirmed"}]}],"code":{"coding":[{"system":"http://snomed.info/sct","code":"418290006"}]},"subject":{"reference":"Patient/2c14fb83-67df-4268-962e-25c38a705c3c"},"onsetDateTime":"2022-01-09T00:00:00+00:00"},"request":{"method":"POST","url":"Condition"}},{"fullUrl":"Condition/5fe4d9ca-2f79-435d-be94-b7384a278c5e","resource":{"resourceType":"Condition","id":"5fe4d9ca-2f79-435d-be94-b7384a278c5e","meta":{"profile":["http://hl7.org/fhir/us/core/StructureDefinition/us-core-condition"]},"clinicalStatus":{"coding":[{"system":"http://terminology.hl7.org/CodeSystem/condition-clinical","code":"active","display":"Active"}]},"category":[{"coding":[{"system":"http://terminology.hl7.org/CodeSystem/condition-ver-status","code":"confirmed"}]}],"code":{"coding":[{"system":"http://snomed.info/sct","code":"709977002"}]},"subject":{"reference":"Patient/2c14fb83-67df-4268-962e-25c38a705c3c"},"onsetDateTime":"2022-04-04T00:00:00+00:00"},"request":{"method":"POST","url":"Condition"}},{"fullUrl":"Condition/ff8a10bd-d5bb-4e70-83c0-6186e00fdbfa","resource":{"resourceType":"Condition","id":"ff8a10bd-d5bb-4e70-83c0-6186e00fdbfa","meta":{"profile":["http://hl7.org/fhir/us/core/StructureDefinition/us-core-condition"]},"clinicalStatus":{"coding":[{"system":"http://terminology.hl7.org/CodeSystem/condition-clinical","code":"active","display":"Active"}]},"category":[{"coding":[{"system":"http://terminology.hl7.org/CodeSystem/condition-ver-status","code":"confirmed"}]}],"code":{"coding":[{"system":"http://snomed.info/sct","code":"91554004"}]},"subject":{"reference":"Patient/2c14fb83-67df-4268-962e-25c38a705c3c"},"onsetDateTime":"2022-04-25T00:00:00+00:00"},"request":{"method":"POST","url":"Condition"}},{"fullUrl":"Observation/95422a02-954a-41a5-87df-fbc9bc4a148e","resource":{"resourceType":"Observation","id":"95422a02-954a-41a5-87df-fbc9bc4a148e","meta":{"profile":["http://hl7.org/fhir/us/core/StructureDefinition/us-core-observation-lab"]},"status":"final","category":[{"coding":[{"system":"http://terminology.hl7.org/CodeSystem/observation-category","code":"laboratory","display":"Laboratory"}]}],"code":{"coding":[{"system":"http://loinc.org","code":"6690-2"}]},"subject":{"reference":"Patient/2c14fb83-67df-4268-962e-25c38a705c3c"},"effectiveDateTime":"2022-11-09T00:00:00+00:00","valueQuantity":{"value":7.4}},"request":{"method":"POST","url":"Observation"}},{"fullUrl":"Observation/6e7d55cb-ab6f-47c6-8e64-4d1f0fcf7703","resource":{"resourceType":"Observation","id":"6e7d55cb-ab6f-47c6-8e64-4d1f0fcf7703","meta":{"profile":["http://hl7.org/fhir/us/core/StructureDefinition/us-core-observation-lab"]},"status":"final","category":[{"coding":[{"system":"http://terminology.hl7.org/CodeSystem/observation-category","code":"laboratory","display":"Laboratory"}]}],"code":{"coding":[{"system":"http://loinc.org","code":"6690-2"}]},"subject":{"reference":"Patient/2c14fb83-67df-4268-962e-25c38a705c3c"},"effectiveDateTime":"2022-01-04T00:00:00+00:00","valueQuantity":{"value":5.0}},"request":{"method":"POST","url":"Observation"}},{"fullUrl":"Observation/9a76f139-fa3b-443a-87a9-7945ec1acc12","resource":{"resourceType":"Observation","id":"9a76f139-fa3b-443a-87a9-7945ec1acc12","meta":{"profile":["http://hl7.org/fhir/us/core/StructureDefinition/us-core-bmi"]},"status":"final","category":[{"coding":[{"system":"http://terminology.hl7.org/CodeSystem/observation-category","code":"vital-signs","display":"Vital Signs"}]}],"code":{"coding":[{"system":"http://loinc.org","code":"39156-5"}]},"subject":{"reference":"Patient/2c14fb83-67df-4268-962e-25c38a705c3c"},"effectiveDateTime":"2022-03-28T00:00:00+00:00","valueQuantity":{"value":26.05,"unit":"kg/m2","system":"http://unitsofmeasure.org","code":"kg/m2"}},"request":{"method":"POST","url":"Observation"}},{"fullUrl":"Observation/95f9989a-f92c-4e0a-8221-2843b3f22ba5","resource":{"resourceType":"Observation","id":"95f9989a-f92c-4e0a-8221-2843b3f22ba5","meta":{"profile":["http://hl7.org/fhir/us/core/StructureDefinition/us-core-head-circumference"]},"status":"final","category":[{"coding":[{"system":"http://terminology.hl7.org/CodeSystem/observation-category","code":"vital-signs","display":"Vital Signs"}]}],"code":{"coding":[{"system":"http://loinc.org","code":"9843-4"}]},"subject":{"reference":"Patient/2c14fb83-67df-4268-962e-25c38a705c3c"},"effectiveDateTime":"2022-11-05T00:00:00+00:00","valueQuantity":{"value":6.8,"unit":"Inch","system":"http://unitsofmeasure.org","code":"[in_i]"}},"request":{"method":"POST","url":"Observation"}},{"fullUrl":"Observation/b974d66e-9f4b-4a2f-92d6-3504efda78eb","resource":{"resourceType":"Observation","id":"b974d66e-9f4b-4a2f-92d6-3504efda78eb","meta":{"profile":["http://hl7.org/fhir/us/core/StructureDefinition/us-core-body-height"]},"status":"final","category":[{"coding":[{"system":"http://terminology.hl7.org/CodeSystem/observation-category","code":"vital-signs","display":"Vital Signs"}]}],"code":{"coding":[{"system":"http://loinc.org","code":"8302-2"}]},"subject":{"reference":"Patient/2c14fb83-67df-4268-962e-25c38a705c3c"},"effectiveDateTime":"2022-02-24T00:00:00+00:00","valueQuantity":{"value":83.5,"unit":"Inch","system":"http://unitsofmeasure.org","code":"[in_i]"}},"request":{"method":"POST","url":"Observation"}},{"fullUrl":"Observation/0cd790e4-2e6e-4110-a4dd-557bd6747ff0","resource":{"resourceType":"Observation","id":"0cd790e4-2e6e-4110-a4dd-557bd6747ff0","meta":{"profile":["http://hl7.org/fhir/us/core/StructureDefinition/us-core-body-height"]},"status":"final","category":[{"coding":[{"system":"http://terminology.hl7.org/CodeSystem/observation-category","code":"vital-signs","display":"Vital Signs"}]}],"code":{"coding":[{"system":"http://loinc.org","code":"8302-2"}]},"subject":{"reference":"Patient/2c14fb83-67df-4268-962e-25c38a705c3c"},"effectiveDateTime":"2022-10-10T00:00:00+00:00","valueQuantity":{"value":63.2,"unit":"Inch","system":"http://unitsofmeasure.org","code":"[in_i]"}},"request":{"method":"POST","url":"Observation"}},{"fullUrl":"Observation/5fdb81fb-ff5c-4dfe-9600-637f488df1de","resource":{"resourceType":"Observation","id":"5fdb81fb-ff5c-4dfe-9600-637f488df1de","meta":{"profile":["http://hl7.org/fhir/us/core/StructureDefinition/us-core-body-weight"]},"status":"final","category":[{"coding":[{"system":"http://terminology.hl7.org/CodeSystem/observation-category","code":"vital-signs","display":"Vital Signs"}]}],"code":{"coding":[{"system":"http://loinc.org","code":"29463-7"}]},"subject":{"reference":"Patient/2c14fb83-67df-4268-962e-25c38a705c3c"},"effectiveDateTime":"2022-09-12T00:00:00+00:00","valueQuantity":{"value":49.13,"unit":"kilogram","system":"http://unitsofmeasure.org","code":"kg"}},"request":{"method":"POST","url":"Observation"}},{"fullUrl":"Observation/ce0f66cf-d7f5-4a10-b583-7716380f22f5","resource":{"resourceType":"Observation","id":"ce0f66cf-d7f5-4a10-b583-7716380f22f5","meta":{"profile":["http://hl7.org/fhir/us/core/StructureDefinition/us-core-body-temperature"]},"status":"final","category":[{"coding":[{"system":"http://terminology.hl7.org/CodeSystem/observation-category","code":"vital-signs","display":"Vital Signs"}]}],"code":{"coding":[{"system":"http://loinc.org","code":"8310-5"}]},"subject":{"reference":"Patient/2c14fb83-67df-4268-962e-25c38a705c3c"},"effectiveDateTime":"2022-12-31T00:00:00+00:00","valueQuantity":{"value":91.6,"unit":"kilogram","system":"http://unitsofmeasure.org","code":"kg"}},"request":{"method":"POST","url":"Observation"}},{"fullUrl":"Observation/38091d9e-e1c1-4c66-8a04-fa1e4ac6fdbd","resource":{"resourceType":"Observation","id":"38091d9e-e1c1-4c66-8a04-fa1e4ac6fdbd","meta":{"profile":["http://hl7.org/fhir/us/core/StructureDefinition/us-core-heart-rate"]},"status":"final","category":[{"coding":[{"system":"http://terminology.hl7.org/CodeSystem/observation-category","code":"vital-signs","display":"Vital Signs"}]}],"code":{"coding":[{"system":"http://loinc.org","code":"8867-4"}]},"subject":{"reference":"Patient/2c14fb83-67df-4268-962e-25c38a705c3c"},"effectiveDateTime":"2022-02-27T00:00:00+00:00","valueQuantity":{"value":95.4,"unit":"Degrees Fahrenheit","system":"http://unitsofmeasure.org","code":"[degF]"}},"request":{"method":"POST","url":"Observation"}},{"fullUrl":"Patient/9ba4fcc4-04ac-4d2b-bcba-e51e6b3871a4","resource":{"resourceType":"Patient","id":"9ba4fcc4-04ac-4d2b-bcba-e51e6b3871a4","meta":{"profile":["http://hl7.org/fhir/us/core/StructureDefinition/us-core-patient"]},"identifier":[{"type":{"coding":[{"system":"http://terminology.hl7.org/CodeSystem/v2-0203","code":"MR"}]},"system":"urn:fhirgen:mrn","value":"051-54-9563"}],"name":[{"family":"Williams","given":["Karen"]}],"gender":"female","birthDate":"1982-11-25","address":[{"line":["94914 Jessica Field"],"city":"South Elizabeth","state":"Connecticut"}]},"request":{"method":"POST","url":"Patient"}},{"fullUrl":"Observation/b7fd8fe0-a63f-4813-998c-ec3d6f9b2751","resource":{"resourceType":"Observation","id":"b7fd8fe0-a63f-4813-998c-ec3d6f9b2751","meta":{"profile":["http://hl7.org/fhir/us/core/StructureDefinition/us-core-observation-lab"]},"status":"final","category":[{"coding":[{"system":"http://terminology.hl7.org/CodeSystem/observation-category","code":"laboratory","display":"Laboratory"}]}],"code":{"coding":[{"system":"http://loinc.org","code":"47235-7"}]},"subject":{"reference":"Patient/9ba4fcc4-04ac-4d2b-bcba-e51e6b3871a4"},"effectiveDateTime":"2022-08-26T00:00:00+00:00","valueRatio":{"numerator":{"value":1.0},"denominator":{"value":32.0}}},"request":{"method":"POST","url":"Observation"}},{"fullUrl":"Observation/268ba59b-175a-4328-896f-f484adce3d83","resource":{"resourceType":"Observation","id":"268ba59b-175a-4328-896f-f484adce3d83","meta":{"profile":["http://hl7.org/fhir/us/core/StructureDefinition/us-core-observation-lab"]},"status":"final","category":[{"coding":[{"system":"http://terminology.hl7.org/CodeSystem/observation-category","code":"laboratory","display":"Laboratory"}]}],"code":{"coding":[{"system":"http://loinc.org","code":"31147-2"}]},"subject":{"reference":"Patient/9ba4fcc4-04ac-4d2b-bcba-e51e6b3871a4"},"effectiveDateTime":"2022-08-11T00:00:00+00:00","valueRatio":{"numerator":{"value":1.0},"denominator":{"value":32.0}}},"request":{"method":"POST","url":"Observation"}},{"fullUrl":"Observation/0d789262-9d33-45a5-aabb-2fc2aad6518d","resource":{"resourceType":"Observation","id":"0d789262-9d33-45a5-aabb-2fc2aad6518d","meta":{"profile":["http://hl7.org/fhir/us/core/StructureDefinition/us-core-observation-lab"]},"status":"final","category":[{"coding":[{"system":"http://terminology.hl7.org/CodeSystem/observation-category","code":"laboratory","display":"Laboratory"}]}],"code":{"coding":[{"system":"http://loinc.org","code":"22590-4"}]},"subject":{"reference":"Patient/9ba4fcc4-04ac-4d2b-bcba-e51e6b3871a4"},"effectiveDateTime":"2022-04-21T00:00:00+00:00","valueRatio":{"numerator":{"value":1.0},"denominator":{"value":4.0}}},"request":{"method":"POST","url":"Observation"}},{"fullUrl":"Condition/44c2ff66-cf6a-4dce-9699-72f33773d19e","resource":{"resourceType":"Condition","id":"44c2ff66-cf6a-4dce-9699-72f33773d19e","meta":{"profile":["http://hl7.org/fhir/us/core/StructureDefinition/us-core-condition"]},"clinicalStatus":{"coding":[{"system":"http://terminology.hl7.org/CodeSystem/condition-clinical","code":"active","display":"Active"}]},"category":[{"coding":[{"system":"http://terminology.hl7.org/CodeSystem/condition-ver-status","code":"confirmed"}]}],"code":{"coding":[{"system":"http://snomed.info/sct","code":"91554004"}]},"subject":{"reference":"Patient/9ba4fcc4-04ac-4d2b-bcba-e51e6b3871a4"},"onsetDateTime":"2022-03-12T00:00:00+00:00"},"request":{"method":"POST","url":"Condition"}},{"fullUrl":"Condition/4ccc4d1b-c267-4f77-ae1d-db9884558416","resource":{"resourceType":"Condition","id":"4ccc4d1b-c267-4f77-ae1d-db9884558416","meta":{"profile":["http://hl7.org/fhir/us/core/StructureDefinition/us-core-condition"]},"clinicalStatus":{"coding":[{"system":"http://terminology.hl7.org/CodeSystem/condition-clinical","code":"active","display":"Active"}]},"category":[{"coding":[{"system":"http://terminology.hl7.org/CodeSystem/condition-ver-status","code":"confirmed"}]}],"code":{"coding":[{"system":"http://snomed.info/sct","code":"736686006"}]},"subject":{"reference":"Patient/9ba4fcc4-04ac-4d2b-bcba-e51e6b3871a4"},"onsetDateTime":"2022-02-27T00:00:00+00:00"},"request":{"method":"POST","url":"Condition"}},{"fullUrl":"Condition/d763fada-f0d0-4096-83f7-0f45b600d660","resource":{"resourceType":"Condition","id":"d763fada-f0d0-4096-83f7-0f45b600d660","meta":{"profile":["http://hl7.org/fhir/us/core/StructureDefinition/us-core-condition"]},"clinicalStatus":{"coding":[{"system":"http://terminology.hl7.org/CodeSystem/condition-clinical","code":"active","display":"Active"}]},"category":[{"coding":[{"system":"http://terminology.hl7.org/CodeSystem/condition-ver-status","code":"confirmed"}]}],"code":{"coding":[{"system":"http://snomed.info/sct","code":"736686006"}]},"subject":{"reference":"Patient/9ba4fcc4-04ac-4d2b-bcba-e51e6b3871a4"},"onsetDateTime":"2022-08-05T00:00:00+00:00"},"request":{"method":"POST","url":"Condition"}},{"fullUrl":"Condition/8767c3a7-5b27-4cbc-a958-619ebb6da1dd","resource":{"resourceType":"Condition","id":"8767c3a7-5b27-4cbc-a958-619ebb6da1dd","meta":{"profile":["http://hl7.org/fhir/us/core/StructureDefinition/us-core-condition"]},"clinicalStatus":{"coding":[{"system":"http://terminology.hl7.org/CodeSystem/condition-clinical","code":"active","display":"Active"}]},"category":[{"coding":[{"system":"http://terminology.hl7.org/CodeSystem/condition-ver-status","code":"confirmed"}]}],"code":{"coding":[{"system":"http://snomed.info/sct","code":"44882003"}]},"subject":{"reference":"Patient/9ba4fcc4-04ac-4d2b-bcba-e51e6b3871a4"},"onsetDateTime":"2022-02-03T00:00:00+00:00"},"request":{"method":"POST","url":"Condition"}},{"fullUrl":"Condition/4502b8b7-1cc0-41b8-ad35-f058cef0c89e","resource":{"resourceType":"Condition","id":"4502b8b7-1cc0-41b8-ad35-f058cef0c89e","meta":{"profile":["http://hl7.org/fhir/us/core/StructureDefinition/us-core-condition"]},"clinicalStatus":{"coding":[{"system":"http://terminology.hl7.org/CodeSystem/condition-clinical","code":"active","display":"Active"}]},"category":[{"coding":[{"system":"http://terminology.hl7.org/CodeSystem/condition-ver-status","code":"confirmed"}]}],"code":{"coding":[{"system":"http://snomed.info/sct","code":"44882003"}]},"subject":{"reference":"Patient/9ba4fcc4-04ac-4d2b-bcba-e51e6b3871a4"},"onsetDateTime":"2022-01-03T00:00:00+00:00"},"request":{"method":"POST","url":"Condition"}},{"fullUrl":"Condition/dadd8516-a96c-4fef-aa98-220d2a59b34b","resource":{"resourceType":"Condition","id":"dadd8516-a96c-4fef-aa98-220d2a59b34b","meta":{"profile":["http://hl7.org/fhir/us/core/StructureDefinition/us-core-condition"]},"clinicalStatus":{"coding":[{"system":"http://terminology.hl7.org/CodeSystem/condition-clinical","code":"active","display":"Active"}]},"category":[{"coding":[{"system":"http://terminology.hl7.org/CodeSystem/condition-ver-status","code":"confirmed"}]}],"code":{"coding":[{"system":"http://snomed.info/sct","code":"418290006"}]},"subject":{"reference":"Patient/9ba4fcc4-04ac-4d2b-bcba-e51e6b3871a4"},"onsetDateTime":"2022-09-22T00:00:00+00:00"},"request":{"method":"POST","url":"Condition"}},{"fullUrl":"Observation/1ae6fa77-3db2-473e-9958-7eee291efb9e","resource":{"resourceType":"Observation","id":"1ae6fa77-3db2-473e-9958-7eee291efb9e","meta":{"profile":["http://hl7.org/fhir/us/core/StructureDefinition/us-core-observation-lab"]},"status":"final","category":[{"coding":[{"system":"http://terminology.hl7.org/CodeSystem/observation-category","code":"laboratory","display":"Laboratory"}]}],"code":{"coding":[{"system":"http://loinc.org","code":"49498-9"}]},"subject":{"reference":"Patient/9ba4fcc4-04ac-4d2b-bcba-e51e6b3871a4"},"effectiveDateTime":"2022-11-18T00:00:00+00:00","valueQuantity":{"value":5.8}},"request":{"method":"POST","url":"Observation"}},{"fullUrl":"Observation/d0bed27c-2c78-40fe-a7f9-cb7feb39a7a5","resource":{"resourceType":"Observation","id":"d0bed27c-2c78-40fe-a7f9-cb7feb39a7a5","meta":{"profile":["http://hl7.org/fhir/us/core/StructureDefinition/us-core-observation-lab"]},"status":"final","category":[{"coding":[{"system":"http://terminology.hl7.org/CodeSystem/observation-category","code":"laboratory","display":"Laboratory"}]}],"code":{"coding":[{"system":"http://loinc.org","code":"6690-2"}]},"subject":{"reference":"Patient/9ba4fcc4-04ac-4d2b-bcba-e51e6b3871a4"},"effectiveDateTime":"2022-09-29T00:00:00+00:00","valueQuantity":{"value":9.1}},"request":{"method":"POST","url":"Observation"}},{"fullUrl":"Observation/dd7bd563-cb19-4275-b508-1a6c320df820","resource":{"resourceType":"Observation","id":"dd7bd563-cb19-4275-b508-1a6c320df820","meta":{"profile":["http://hl7.org/fhir/us/core/StructureDefinition/us-core-bmi"]},"status":"final","category":[{"coding":[{"system":"http://terminology.hl7.org/CodeSystem/observation-category","code":"vital-signs","display":"Vital Signs"}]}],"code":{"coding":[{"system":"http://loinc.org","code":"39156-5"}]},"subject":{"reference":"Patient/9ba4fcc4-04ac-4d2b-bcba-e51e6b3871a4"},"effectiveDateTime":"2022-11-25T00:00:00+00:00","valueQuantity":{"value":24.85,"unit":"kg/m2","system":"http://unitsofmeasure.org","code":"kg/m2"}},"request":{"method":"POST","url":"Observation"}},{"fullUrl":"Observation/e83134f3-8298-412b-a19c-f2a5d5c12439","resource":{"resourceType":"Observation","id":"e83134f3-8298-412b-a19c-f2a5d5c12439","meta":{"profile":["http://hl7.org/fhir/us/core/StructureDefinition/us-core-head-circumference"]},"status":"final","category":[{"coding":[{"system":"http://terminology.hl7.org/CodeSystem/observation-category","code":"vital-signs","display":"Vital Signs"}]}],"code":{"coding":[{"system":"http://loinc.org","code":"9843-4"}]},"subject":{"reference":"Patient/9ba4fcc4-04ac-4d2b-bcba-e51e6b3871a4"},"effectiveDateTime":"2022-04-03T00:00:00+00:00","valueQuantity":{"value":9.8,"unit":"Inch","system":"http://unitsofmeasure.org","code":"[in_i]"}},"request":{"method":"POST","url":"Observation"}},{"fullUrl":"Observation/d239c27f-030a-4dc2-8546-9cb02b6953ca","resource":{"resourceType":"Observation","id":"d239c27f-030a-4dc2-8546-9cb02b6953ca","meta":{"profile":["http://hl7.org/fhir/us/core/StructureDefinition/us-core-body-height"]},"status":"final","category":[{"coding":[{"system":"http://terminology.hl7.org/CodeSystem/observation-category","code":"vital-signs","display":"Vital Signs"}]}],"code":{"coding":[{"system":"http://loinc.org","code":"8302-2"}]},"subject":{"reference":"Patient/9ba4fcc4-04ac-4d2b-bcba-e51e6b3871a4"},"effectiveDateTime":"2022-11-10T00:00:00+00:00","valueQuantity":{"value":61.3,"unit":"Inch","system":"http://unitsofmeasure.org","code":"[in_i]"}},"request":{"method":"POST","url":"Observation"}},{"fullUrl":"Observation/631b7424-1a0c-408a-b03b-7f36c88a3b19","resource":{"resourceType":"Observation","id":"631b7424-1a0c-408a-b03b-7f36c88a3b19","meta":{"profile":["http://hl7.org/fhir/us/core/StructureDefinition/us-core-body-height"]},"status":"final","category":[{"coding":[{"system":"http://terminology.hl7.org/CodeSystem/observation-category","code":"vital-signs","display":"Vital Signs"}]}],"code":{"coding":[{"system":"http://loinc.org","code":"8302-2"}]},"subject":{"reference":"Patient/9ba4fcc4-04ac-4d2b-bcba-e51e6b3871a4"},"effectiveDateTime":"2022-09-24T00:00:00+00:00","valueQuantity":{"value":65.2,"unit":"Inch","system":"http://unitsofmeasure.org","code":"[in_i]"}},"request":{"method":"POST","url":"Observation"}},{"fullUrl":"Observation/31d73b18-000e-4724-af1c-4f40153f131d","resource":{"resourceType":"Observation","id":"31d73b18-000e-4724-af1c-4f40153f131d","meta":{"profile":["http://hl7.org/fhir/us/core/StructureDefinition/us-core-body-weight"]},"status":"final","category":[{"coding":[{"system":"http://terminology.hl7.org/CodeSystem/observation-category","code":"vital-signs","display":"Vital Signs"}]}],"code":{"coding":[{"system":"http://loinc.org","code":"29463-7"}]},"subject":{"reference":"Patient/9ba4fcc4-04ac-4d2b-bcba-e51e6b3871a4"},"effectiveDateTime":"2022-06-20T00:00:00+00:00","valueQuantity":{"value":117.39,"unit":"kilogram","system":"http://unitsofmeasure.org","code":"kg"}},"request":{"method":"POST","url":"Observation"}},{"fullUrl":"Observation/2ad5f31f-801c-49f5-a67f-3a7229b2faff","resource":{"resourceType":"Observation","id":"2ad5f31f-801c-49f5-a67f-3a7229b2faff","meta":{"profile":["http://hl7.org/fhir/us/core/StructureDefinition/us-core-body-temperature"]},"status":"final","category":[{"coding":[{"system":"http://terminology.hl7.org/CodeSystem/observation-category","code":"vital-signs","display":"Vital Signs"}]}],"code":{"coding":[{"system":"http://loinc.org","code":"8310-5"}]},"subject":{"reference":"Patient/9ba4fcc4-04ac-4d2b-bcba-e51e6b3871a4"},"effectiveDateTime":"2022-03-02T00:00:00+00:00","valueQuantity":{"value":142.84,"unit":"kilogram","system":"http://unitsofmeasure.org","code":"kg"}},"request":{"method":"POST","url":"Observation"}},{"fullUrl":"Observation/8047e4e2-2953-4054-9975-284a3dc01028","resource":{"resourceType":"Observation","id":"8047e4e2-2953-4054-9975-284a3dc01028","meta":{"profile":["http://hl7.org/fhir/us/core/StructureDefinition/us-core-body-temperature"]},"status":"final","category":[{"coding":[{"system":"http://terminology.hl7.org/CodeSystem/observation-category","code":"vital-signs","display":"Vital Signs"}]}],"code":{"coding":[{"system":"http://loinc.org","code":"8310-5"}]},"subject":{"reference":"Patient/9ba4fcc4-04ac-4d2b-bcba-e51e6b3871a4"},"effectiveDateTime":"2022-06-29T00:00:00+00:00","valueQuantity":{"value":45.37,"unit":"kilogram","system":"http://unitsofmeasure.org","code":"kg"}},"request":{"method":"POST","url":"Observation"}},{"fullUrl":"Observation/df66d72b-4d9b-4649-b57f-fdf05f75537d","resource":{"resourceType":"Observation","id":"df66d72b-4d9b-4649-b57f-fdf05f75537d","meta":{"profile":["http://hl7.org/fhir/us/core/StructureDefinition/us-core-heart-rate"]},"status":"final","category":[{"coding":[{"system":"http://terminology.hl7.org/CodeSystem/observation-category","code":"vital-signs","display":"Vital Signs"}]}],"code":{"coding":[{"system":"http://loinc.org","code":"8867-4"}]},"subject":{"reference":"Patient/9ba4fcc4-04ac-4d2b-bcba-e51e6b3871a4"},"effectiveDateTime":"2022-06-22T00:00:00+00:00","valueQuantity":{"value":100.1,"unit":"Degrees Fahrenheit","system":"http://unitsofmeasure.org","code":"[degF]"}},"request":{"method":"POST","url":"Observation"}},{"fullUrl":"Observation/e88caf32-07d3-47d7-a758-89ceda37d825","resource":{"resourceType":"Observation","id":"e88caf32-07d3-47d7-a758-89ceda37d825","meta":{"profile":["http://hl7.org/fhir/us/core/StructureDefinition/us-core-heart-rate"]},"status":"final","category":[{"coding":[{"system":"http://terminology.hl7.org/CodeSystem/observation-category","code":"vital-signs","display":"Vital Signs"}]}],"code":{"coding":[{"system":"http://loinc.org","code":"8867-4"}]},"subject":{"reference":"Patient/9ba4fcc4-04ac-4d2b-bcba-e51e6b3871a4"},"effectiveDateTime":"2022-12-25T00:00:00+00:00","valueQuantity":{"value":96.0,"unit":"Degrees Fahrenheit","system":"http://unitsofmeasure.org","code":"[degF]"}},"request":{"method":"POST","url":"Observation"}},{"fullUrl":"Patient/9af4c57a-0e41-4a7f-9aca-6713435131c7","resource":{"resourceType":"Patient","id":"9af4c57a-0e41-4a7f-9aca-6713435131c7","meta":{"profile":["http://hl7.org/fhir/us/core/StructureDefinition/us-core-patient"]},"identifier":[{"type":{"coding":[{"system":"http://terminology.hl7.org/CodeSystem/v2-0203","code":"MR"}]},"system":"urn:fhirgen:mrn","value":"559-64-5847"}],"name":[{"family":"Jones","given":["Donna"]}],"gender":"female","birthDate":"1945-09-13","address":[{"line":["910 Tiffany Plains"],"city":"Port Jasmine","state":"Utah"}]},"request":{"method":"POST","url":"Patient"}},{"fullUrl":"Observation/b1b7a5b7-8593-4b0a-b640-34d3c4635b39","resource":{"resourceType":"Observation","id":"b1b7a5b7-8593-4b0a-b640-34d3c4635b39","meta":{"profile":["http://hl7.org/fhir/us/core/StructureDefinition/us-core-observation-lab"]},"status":"final","category":[{"coding":[{"system":"http://terminology.hl7.org/CodeSystem/observation-category","code":"laboratory","display":"Laboratory"}]}],"code":{"coding":[{"system":"http://loinc.org","code":"22590-4"}]},"subject":{"reference":"Patient/9af4c57a-0e41-4a7f-9aca-6713435131c7"},"effectiveDateTime":"2022-11-05T00:00:00+00:00","valueRatio":{"numerator":{"value":1.0},"denominator":{"value":64.0}}},"request":{"method":"POST","url":"Observation"}},{"fullUrl":"Observation/e28c3a62-f4cb-4815-9c3f-7924e9ad86a1","resource":{"resourceType":"Observation","id":"e28c3a62-f4cb-4815-9c3f-7924e9ad86a1","meta":{"profile":["http://hl7.org/fhir/us/core/StructureDefinition/us-core-observation-lab"]},"status":"final","category":[{"coding":[{"system":"http://terminology.hl7.org/CodeSystem/observation-category","code":"laboratory","display":"Laboratory"}]}],"code":{"coding":[{"system":"http://loinc.org","code":"87925-4"}]},"subject":{"reference":"Patient/9af4c57a-0e41-4a7f-9aca-6713435131c7"},"effectiveDateTime":"2022-06-28T00:00:00+00:00","valueRatio":{"numerator":{"value":1.0},"denominator":{"value":32.0}}},"request":{"method":"POST","url":"Observation"}},{"fullUrl":"Observation/267ab430-035d-434a-85e0-502a0e70a5a0","resource":{"resourceType":"Observation","id":"267ab430-035d-434a-85e0-502a0e70a5a0","meta":{"profile":["http://hl7.org/fhir/us/core/StructureDefinition/us-core-observation-lab"]},"status":"final","category":[{"coding":[{"system":"http://terminology.hl7.org/CodeSystem/observation-category","code":"laboratory","display":"Laboratory"}]}],"code":{"coding":[{"system":"http://loinc.org","code":"47235-7"}]},"subject":{"reference":"Patient/9af4c57a-0e41-4a7f-9aca-6713435131c7"},"effectiveDateTime":"2022-02-13T00:00:00+00:00","valueRatio":{"numerator":{"value":1.0},"denominator":{"value":32.0}}},"request":{"method":"POST","url":"Observation"}},{"fullUrl":"Condition/9d0c768f-c4a2-4ee8-8649-e4747db09703","resource":{"resourceType":"Condition","id":"9d0c768f-c4a2-4ee8-8649-e4747db09703","meta":{"profile":["http://hl7.org/fhir/us/core/StructureDefinition/us-core-condition"]},"clinicalStatus":{"coding":[{"system":"http://terminology.hl7.org/CodeSystem/condition-clinical","code":"active","display":"Active"}]},"category":[{"coding":[{"system":"http://terminology.hl7.org/CodeSystem/condition-ver-status","code":"confirmed"}]}],"code":{"coding":[{"system":"http://snomed.info/sct","code":"709977002"}]},"subject":{"reference":"Patient/9af4c57a-0e41-4a7f-9aca-6713435131c7"},"onsetDateTime":"2022-05-31T00:00:00+00:00"},"request":{"method":"POST","url":"Condition"}},{"fullUrl":"Condition/120b9d87-ca9b-4d10-8305-169643436f5d","resource":{"resourceType":"Condition","id":"120b9d87-ca9b-4d10-8305-169643436f5d","meta":{"profile":["http://hl7.org/fhir/us/core/StructureDefinition/us-core-condition"]},"clinicalStatus":{"coding":[{"system":"http://terminology.hl7.org/CodeSystem/condition-clinical","code":"active","display":"Active"}]},"category":[{"coding":[{"system":"http://terminology.hl7.org/CodeSystem/condition-ver-status","code":"confirmed"}]}],"code":{"coding":[{"system":"http://snomed.info/sct","code":"709977002"}]},"subject":{"reference":"Patient/9af4c57a-0e41-4a7f-9aca-6713435131c7"},"onsetDateTime":"2022-11-18T00:00:00+00:00"},"request":{"method":"POST","url":"Condition"}},{"fullUrl":"Condition/6bfe39a3-77ae-400c-846c-c924eec8c8e4","resource":{"resourceType":"Condition","id":"6bfe39a3-77ae-400c-846c-c924eec8c8e4","meta":{"profile":["http://hl7.org/fhir/us/core/StructureDefinition/us-core-condition"]},"clinicalStatus":{"coding":[{"system":"http://terminology.hl7.org/CodeSystem/condition-clinical","code":"active","display":"Active"}]},"category":[{"coding":[{"system":"http://terminology.hl7.org/CodeSystem/condition-ver-status","code":"confirmed"}]}],"code":{"coding":[{"system":"http://snomed.info/sct","code":"418290006"}]},"subject":{"reference":"Patient/9af4c57a-0e41-4a7f-9aca-6713435131c7"},"onsetDateTime":"2022-12-08T00:00:00+00:00"},"request":{"method":"POST","url":"Condition"}},{"fullUrl":"Observation/bc1c2f9c-20db-4e14-afc8-777cfbdd90f6","resource":{"resourceType":"Observation","id":"bc1c2f9c-20db-4e14-afc8-777cfbdd90f6","meta":{"profile":["http://hl7.org/fhir/us/core/StructureDefinition/us-core-observation-lab"]},"status":"final","category":[{"coding":[{"system":"http://terminology.hl7.org/CodeSystem/observation-category","code":"laboratory","display":"Laboratory"}]}],"code":{"coding":[{"system":"http://loinc.org","code":"49498-9"}]},"subject":{"reference":"Patient/9af4c57a-0e41-4a7f-9aca-6713435131c7"},"effectiveDateTime":"2022-01-04T00:00:00+00:00","valueQuantity":{"value":5.8}},"request":{"method":"POST","url":"Observation"}},{"fullUrl":"Observation/a4146d3d-83eb-4bf7-a9c3-4f18c3f26729","resource":{"resourceType":"Observation","id":"a4146d3d-83eb-4bf7-a9c3-4f18c3f26729","meta":{"profile":["http://hl7.org/fhir/us/core/StructureDefinition/us-core-observation-lab"]},"status":"final","category":[{"coding":[{"system":"http://terminology.hl7.org/CodeSystem/observation-category","code":"laboratory","display":"Laboratory"}]}],"code":{"coding":[{"system":"http://loinc.org","code":"804-5"}]},"subject":{"reference":"Patient/9af4c57a-0e41-4a7f-9aca-6713435131c7"},"effectiveDateTime":"2022-12-17T00:00:00+00:00","valueQuantity":{"value":4.7}},"request":{"method":"POST","url":"Observation"}},{"fullUrl":"Observation/28e7b8b1-873f-47b5-99aa-7894415e122f","resource":{"resourceType":"Observation","id":"28e7b8b1-873f-47b5-99aa-7894415e122f","meta":{"profile":["http://hl7.org/fhir/us/core/StructureDefinition/us-core-observation-lab"]},"status":"final","category":[{"coding":[{"system":"http://terminology.hl7.org/CodeSystem/observation-category","code":"laboratory","display":"Laboratory"}]}],"code":{"coding":[{"system":"http://www.ama-assn.org/go/cpt","code":"85048"}]},"subject":{"reference":"Patient/9af4c57a-0e41-4a7f-9aca-6713435131c7"},"effectiveDateTime":"2022-01-14T00:00:00+00:00","valueQuantity":{"value":8.1}},"request":{"method":"POST","url":"Observation"}},{"fullUrl":"Observation/dc370fd4-796a-4cb8-912d-85497aa54fd3","resource":{"resourceType":"Observation","id":"dc370fd4-796a-4cb8-912d-85497aa54fd3","meta":{"profile":["http://hl7.org/fhir/us/core/StructureDefinition/us-core-bmi"]},"status":"final","category":[{"coding":[{"system":"http://terminology.hl7.org/CodeSystem/observation-category","code":"vital-signs","display":"Vital Signs"}]}],"code":{"coding":[{"system":"http://loinc.org","code":"39156-5"}]},"subject":{"reference":"Patient/9af4c57a-0e41-4a7f-9aca-6713435131c7"},"effectiveDateTime":"2022-07-03T00:00:00+00:00","valueQuantity":{"value":25.53,"unit":"kg/m2","system":"http://unitsofmeasure.org","code":"kg/m2"}},"request":{"method":"POST","url":"Observation"}},{"fullUrl":"Observation/f78b0b3c-4ee0-46d2-ac09-32bdcde6a0d9","resource":{"resourceType":"Observation","id":"f78b0b3c-4ee0-46d2-ac09-32bdcde6a0d9","meta":{"profile":["http://hl7.org/fhir/us/core/StructureDefinition/us-core-head-circumference"]},"status":"final","category":[{"coding":[{"system":"http://terminology.hl7.org/CodeSystem/observation-category","code":"vital-signs","display":"Vital Signs"}]}],"code":{"coding":[{"system":"http://loinc.org","code":"9843-4"}]},"subject":{"reference":"Patient/9af4c57a-0e41-4a7f-9aca-6713435131c7"},"effectiveDateTime":"2022-02-08T00:00:00+00:00","valueQuantity":{"value":7.7,"unit":"Inch","system":"http://unitsofmeasure.org","code":"[in_i]"}},"request":{"method":"POST","url":"Observation"}},{"fullUrl":"Observation/5c8d069b-9a14-4aa4-ae06-760b1672f5c8","resource":{"resourceType":"Observation","id":"5c8d069b-9a14-4aa4-ae06-760b1672f5c8","meta":{"profile":["http://hl7.org/fhir/us/core/StructureDefinition/us-core-body-height"]},"status":"final","category":[{"coding":[{"system":"http://terminology.hl7.org/CodeSystem/observation-category","code":"vital-signs","display":"Vital Signs"}]}],"code":{"coding":[{"system":"http://loinc.org","code":"8302-2"}]},"subject":{"reference":"Patient/9af4c57a-0e41-4a7f-9aca-6713435131c7"},"effectiveDateTime":"2022-11-07T00:00:00+00:00","valueQuantity":{"value":62.5,"unit":"Inch","system":"http://unitsofmeasure.org","code":"[in_i]"}},"request":{"method":"POST","url":"Observation"}},{"fullUrl":"Observation/007587fe-d71b-4c6c-9ffd-b486a0a850fe","resource":{"resourceType":"Observation","id":"007587fe-d71b-4c6c-9ffd-b486a0a850fe","meta":{"profile":["http://hl7.org/fhir/us/core/StructureDefinition/us-core-body-height"]},"status":"final","category":[{"coding":[{"system":"http://terminology.hl7.org/CodeSystem/observation-category","code":"vital-signs","display":"Vital Signs"}]}],"code":{"coding":[{"system":"http://loinc.org","code":"8302-2"}]},"subject":{"reference":"Patient/9af4c57a-0e41-4a7f-9aca-6713435131c7"},"effectiveDateTime":"2022-04-18T00:00:00+00:00","valueQuantity":{"value":79.0,"unit":"Inch","system":"http://unitsofmeasure.org","code":"[in_i]"}},"request":{"method":"POST","url":"Observation"}},{"fullUrl":"Observation/58850941-0315-4a79-9b5e-56ca6b594431","resource":{"resourceType":"Observation","id":"58850941-0315-4a79-9b5e-56ca6b594431","meta":{"profile":["http://hl7.org/fhir/us/core/StructureDefinition/us-core-body-weight"]},"status":"final","category":[{"coding":[{"system":"http://terminology.hl7.org/CodeSystem/observation-category","code":"vital-signs","display":"Vital Signs"}]}],"code":{"coding":[{"system":"http://loinc.org","code":"29463-7"}]},"subject":{"reference":"Patient/9af4c57a-0e41-4a7f-9aca-6713435131c7"},"effectiveDateTime":"2022-08-04T00:00:00+00:00","valueQuantity":{"value":133.34,"unit":"kilogram","system":"http://unitsofmeasure.org","code":"kg"}},"request":{"method":"POST","url":"Observation"}},{"fullUrl":"Observation/6cea2b4b-34f3-4f82-9265-834fdefe5806","resource":{"resourceType":"Observation","id":"6cea2b4b-34f3-4f82-9265-834fdefe5806","meta":{"profile":["http://hl7.org/fhir/us/core/StructureDefinition/us-core-body-weight"]},"status":"final","category":[{"coding":[{"system":"http://terminology.hl7.org/CodeSystem/observation-category","code":"vital-signs","display":"Vital Signs"}]}],"code":{"coding":[{"system":"http://loinc.org","code":"29463-7"}]},"subject":{"reference":"Patient/9af4c57a-0e41-4a7f-9aca-6713435131c7"},"effectiveDateTime":"2022-03-18T00:00:00+00:00","valueQuantity":{"value":88.08,"unit":"kilogram","system":"http://unitsofmeasure.org","code":"kg"}},"request":{"method":"POST","url":"Observation"}},{"fullUrl":"Observation/4ced089e-cbf1-4e90-b6da-759c53783b59","resource":{"resourceType":"Observation","id":"4ced089e-cbf1-4e90-b6da-759c53783b59","meta":{"profile":["http://hl7.org/fhir/us/core/StructureDefinition/us-core-body-temperature"]},"status":"final","category":[{"coding":[{"system":"http://terminology.hl7.org/CodeSystem/observation-category","code":"vital-signs","display":"Vital Signs"}]}],"code":{"coding":[{"system":"http://loinc.org","code":"8310-5"}]},"subject":{"reference":"Patient/9af4c57a-0e41-4a7f-9aca-6713435131c7"},"effectiveDateTime":"2022-05-01T00:00:00+00:00","valueQuantity":{"value":142.43,"unit":"kilogram","system":"http://unitsofmeasure.org","code":"kg"}},"request":{"method":"POST","url":"Observation"}},{"fullUrl":"Observation/b4b14dd9-28d0-4160-90de-a33baca1dcfa","resource":{"resourceType":"Observation","id":"b4b14dd9-28d0-4160-90de-a33baca1dcfa","meta":{"profile":["http://hl7.org/fhir/us/core/StructureDefinition/us-core-heart-rate"]},"status":"final","category":[{"coding":[{"system":"http://terminology.hl7.org/CodeSystem/observation-category","code":"vital-signs","display":"Vital Signs"}]}],"code":{"coding":[{"system":"http://loinc.org","code":"8867-4"}]},"subject":{"reference":"Patient/9af4c57a-0e41-4a7f-9aca-6713435131c7"},"effectiveDateTime":"2022-08-26T00:00:00+00:00","valueQuantity":{"value":99.0,"unit":"Degrees Fahrenheit","system":"http://unitsofmeasure.org","code":"[degF]"}},"request":{"method":"POST","url":"Observation"}},{"fullUrl":"Patient/198daad7-476f-405d-803c-e70e1b7f2baa","resource":{"resourceType":"Patient","id":"198daad7-476f-405d-803c-e70e1b7f2baa","meta":{"profile":["http://hl7.org/fhir/us/core/StructureDefinition/us-core-patient"]},"identifier":[{"type":{"coding":[{"system":"http://terminology.hl7.org/CodeSystem/v2-0203","code":"MR"}]},"system":"urn:fhirgen:mrn","value":"760-02-2559"}],"name":[{"family":"Anderson","given":["Monique"]}],"gender":"other","birthDate":"1977-09-12","address":[{"line":["66323 Vaughn Ramp Apt. 888"],"city":"Alberthaven","state":"Washington"}]},"request":{"method":"POST","url":"Patient"}},{"fullUrl":"Observation/e9174f44-53b1-458e-a6dd-374821be4d97","resource":{"resourceType":"Observation","id":"e9174f44-53b1-458e-a6dd-374821be4d97","meta":{"profile":["http://hl7.org/fhir/us/core/StructureDefinition/us-core-observation-lab"]},"status":"final","category":[{"coding":[{"system":"http://terminology.hl7.org/CodeSystem/observation-category","code":"laboratory","display":"Laboratory"}]}],"code":{"coding":[{"system":"http://loinc.org","code":"47476-7"}]},"subject":{"reference":"Patient/198daad7-476f-405d-803c-e70e1b7f2baa"},"effectiveDateTime":"2022-01-27T00:00:00+00:00","valueRatio":{"numerator":{"value":1.0},"denominator":{"value":64.0}}},"request":{"method":"POST","url":"Observation"}},{"fullUrl":"Observation/79c10825-a603-4923-9363-5d12de920cec","resource":{"resourceType":"Observation","id":"79c10825-a603-4923-9363-5d12de920cec","meta":{"profile":["http://hl7.org/fhir/us/core/StructureDefinition/us-core-observation-lab"]},"status":"final","category":[{"coding":[{"system":"http://terminology.hl7.org/CodeSystem/observation-category","code":"laboratory","display":"Laboratory"}]}],"code":{"coding":[{"system":"http://loinc.org","code":"5394-2"}]},"subject":{"reference":"Patient/198daad7-476f-405d-803c-e70e1b7f2baa"},"effectiveDateTime":"2022-04-16T00:00:00+00:00","valueRatio":{"numerator":{"value":1.0},"denominator":{"value":32.0}}},"request":{"method":"POST","url":"Observation"}},{"fullUrl":"Condition/19133b47-8930-43fd-909b-147bbb55085c","resource":{"resourceType":"Condition","id":"19133b47-8930-43fd-909b-147bbb55085c","meta":{"profile":["http://hl7.org/fhir/us/core/StructureDefinition/us-core-condition"]},"clinicalStatus":{"coding":[{"system":"http://terminology.hl7.org/CodeSystem/condition-clinical","code":"active","display":"Active"}]},"category":[{"coding":[{"system":"http://terminology.hl7.org/CodeSystem/condition-ver-status","code":"confirmed"}]}],"code":{"coding":[{"system":"http://snomed.info/sct","code":"44882003"}]},"subject":{"reference":"Patient/198daad7-476f-405d-803c-e70e1b7f2baa"},"onsetDateTime":"2022-12-30T00:00:00+00:00"},"request":{"method":"POST","url":"Condition"}},{"fullUrl":"Condition/453eb989-070a-4343-b57b-c47b15225430","resource":{"resourceType":"Condition","id":"453eb989-070a-4343-b57b-c47b15225430","meta":{"profile":["http://hl7.org/fhir/us/core/StructureDefinition/us-core-condition"]},"clinicalStatus":{"coding":[{"system":"http://terminology.hl7.org/CodeSystem/condition-clinical","code":"active","display":"Active"}]},"category":[{"coding":[{"system":"http://terminology.hl7.org/CodeSystem/condition-ver-status","code":"confirmed"}]}],"code":{"coding":[{"system":"http://snomed.info/sct","code":"44882003"}]},"subject":{"reference":"Patient/198daad7-476f-405d-803c-e70e1b7f2baa"},"onsetDateTime":"2022-11-02T00:00:00+00:00"},"request":{"method":"POST","url":"Condition"}},{"fullUrl":"Condition/a2ec8936-4ab8-4cc9-a952-4af082544843","resource":{"resourceType":"Condition","id":"a2ec8936-4ab8-4cc9-a952-4af082544843","meta":{"profile":["http://hl7.org/fhir/us/core/StructureDefinition/us-core-condition"]},"clinicalStatus":{"coding":[{"system":"http://terminology.hl7.org/CodeSystem/condition-clinical","code":"active","display":"Active"}]},"category":[{"coding":[{"system":"http://terminology.hl7.org/CodeSystem/condition-ver-status","code":"confirmed"}]}],"code":{"coding":[{"system":"http://snomed.info/sct","code":"736686006"}]},"subject":{"reference":"Patient/198daad7-476f-405d-803c-e70e1b7f2baa"},"onsetDateTime":"2022-03-24T00:00:00+00:00"},"request":{"method":"POST","url":"Condition"}},{"fullUrl":"Condition/5a580cfb-6a4e-4a22-997e-6905381fbfc3","resource":{"resourceType":"Condition","id":"5a580cfb-6a4e-4a22-997e-6905381fbfc3","meta":{"profile":["http://hl7.org/fhir/us/core/StructureDefinition/us-core-condition"]},"clinicalStatus":{"coding":[{"system":"http://terminology.hl7.org/CodeSystem/condition-clinical","code":"active","display":"Active"}]},"category":[{"coding":[{"system":"http://terminology.hl7.org/CodeSystem/condition-ver-status","code":"confirmed"}]}],"code":{"coding":[{"system":"http://snomed.info/sct","code":"709977002"}]},"subject":{"reference":"Patient/198daad7-476f-405d-803c-e70e1b7f2baa"},"onsetDateTime":"2022-08-25T00:00:00+00:00"},"request":{"method":"POST","url":"Condition"}},{"fullUrl":"Condition/84d47104-9705-441a-a0f7-b951b7c70ede","resource":{"resourceType":"Condition","id":"84d47104-9705-441a-a0f7-b951b7c70ede","meta":{"profile":["http://hl7.org/fhir/us/core/StructureDefinition/us-core-condition"]},"clinicalStatus":{"coding":[{"system":"http://terminology.hl7.org/CodeSystem/condition-clinical","code":"active","display":"Active"}]},"category":[{"coding":[{"system":"http://terminology.hl7.org/CodeSystem/condition-ver-status","code":"confirmed"}]}],"code":{"coding":[{"system":"http://snomed.info/sct","code":"91554004"}]},"subject":{"reference":"Patient/198daad7-476f-405d-803c-e70e1b7f2baa"},"onsetDateTime":"2022-09-30T00:00:00+00:00"},"request":{"method":"POST","url":"Condition"}},{"fullUrl":"Condition/9b02f20e-6b97-43f4-861f-313612b63fe2","resource":{"resourceType":"Condition","id":"9b02f20e-6b97-43f4-861f-313612b63fe2","meta":{"profile":["http://hl7.org/fhir/us/core/StructureDefinition/us-core-condition"]},"clinicalStatus":{"coding":[{"system":"http://terminology.hl7.org/CodeSystem/condition-clinical","code":"active","display":"Active"}]},"category":[{"coding":[{"system":"http://terminology.hl7.org/CodeSystem/condition-ver-status","code":"confirmed"}]}],"code":{"coding":[{"system":"http://snomed.info/sct","code":"709977002"}]},"subject":{"reference":"Patient/198daad7-476f-405d-803c-e70e1b7f2baa"},"onsetDateTime":"2022-04-01T00:00:00+00:00"},"request":{"method":"POST","url":"Condition"}},{"fullUrl":"Condition/ff11294d-08cf-4c8e-a1ed-4fa54509c880","resource":{"resourceType":"Condition","id":"ff11294d-08cf-4c8e-a1ed-4fa54509c880","meta":{"profile":["http://hl7.org/fhir/us/core/StructureDefinition/us-core-condition"]},"clinicalStatus":{"coding":[{"system":"http://terminology.hl7.org/CodeSystem/condition-clinical","code":"active","display":"Active"}]},"category":[{"coding":[{"system":"http://terminology.hl7.org/CodeSystem/condition-ver-status","code":"confirmed"}]}],"code":{"coding":[{"system":"http://snomed.info/sct","code":"709977002"}]},"subject":{"reference":"Patient/198daad7-476f-405d-803c-e70e1b7f2baa"},"onsetDateTime":"2022-07-16T00:00:00+00:00"},"request":{"method":"POST","url":"Condition"}},{"fullUrl":"Condition/0b57c09c-a0ce-4310-a4f0-8644bd74655f","resource":{"resourceType":"Condition","id":"0b57c09c-a0ce-4310-a4f0-8644bd74655f","meta":{"profile":["http://hl7.org/fhir/us/core/StructureDefinition/us-core-condition"]},"clinicalStatus":{"coding":[{"system":"http://terminology.hl7.org/CodeSystem/condition-clinical","code":"active","display":"Active"}]},"category":[{"coding":[{"system":"http://terminology.hl7.org/CodeSystem/condition-ver-status","code":"confirmed"}]}],"code":{"coding":[{"system":"http://snomed.info/sct","code":"44882003"}]},"subject":{"reference":"Patient/198daad7-476f-405d-803c-e70e1b7f2baa"},"onsetDateTime":"2022-09-16T00:00:00+00:00"},"request":{"method":"POST","url":"Condition"}},{"fullUrl":"Observation/0d651ef6-7887-4146-9fa8-a582f04b9b23","resource":{"resourceType":"Observation","id":"0d651ef6-7887-4146-9fa8-a582f04b9b23","meta":{"profile":["http://hl7.org/fhir/us/core/StructureDefinition/us-core-observation-lab"]},"status":"final","category":[{"coding":[{"system":"http://terminology.hl7.org/CodeSystem/observation-category","code":"laboratory","display":"Laboratory"}]}],"code":{"coding":[{"system":"http://www.ama-assn.org/go/cpt","code":"85048"}]},"subject":{"reference":"Patient/198daad7-476f-405d-803c-e70e1b7f2baa"},"effectiveDateTime":"2022-05-31T00:00:00+00:00","valueQuantity":{"value":5.6}},"request":{"method":"POST","url":"Observation"}},{"fullUrl":"Observation/e61b3375-2e53-432f-aedb-ff5d0d6354cc","resource":{"resourceType":"Observation","id":"e61b3375-2e53-432f-aedb-ff5d0d6354cc","meta":{"profile":["http://hl7.org/fhir/us/core/StructureDefinition/us-core-observation-lab"]},"status":"final","category":[{"coding":[{"system":"http://terminology.hl7.org/CodeSystem/observation-category","code":"laboratory","display":"Laboratory"}]}],"code":{"coding":[{"system":"http://loinc.org","code":"26464-8"}]},"subject":{"reference":"Patient/198daad7-476f-405d-803c-e70e1b7f2baa"},"effectiveDateTime":"2022-01-03T00:00:00+00:00","valueQuantity":{"value":8.9}},"request":{"method":"POST","url":"Observation"}},{"fullUrl":"Observation/70c0c898-d972-4bc5-a2d9-eda8177145ec","resource":{"resourceType":"Observation","id":"70c0c898-d972-4bc5-a2d9-eda8177145ec","meta":{"profile":["http://hl7.org/fhir/us/core/StructureDefinition/us-core-observation-lab"]},"status":"final","category":[{"coding":[{"system":"http://terminology.hl7.org/CodeSystem/observation-category","code":"laboratory","display":"Laboratory"}]}],"code":{"coding":[{"system":"http://www.ama-assn.org/go/cpt","code":"85048"}]},"subject":{"reference":"Patient/198daad7-476f-405d-803c-e70e1b7f2baa"},"effectiveDateTime":"2022-07-15T00:00:00+00:00","valueQuantity":{"value":8.3}},"request":{"method":"POST","url":"Observation"}},{"fullUrl":"Observation/53bc8ba8-7af2-404f-9baa-f7f88a30643e","resource":{"resourceType":"Observation","id":"53bc8ba8-7af2-404f-9baa-f7f88a30643e","meta":{"profile":["http://hl7.org/fhir/us/core/StructureDefinition/us-core-bmi"]},"status":"final","category":[{"coding":[{"system":"http://terminology.hl7.org/CodeSystem/observation-category","code":"vital-signs","display":"Vital Signs"}]}],"code":{"coding":[{"system":"http://loinc.org","code":"39156-5"}]},"subject":{"reference":"Patient/198daad7-476f-405d-803c-e70e1b7f2baa"},"effectiveDateTime":"2022-07-17T00:00:00+00:00","valueQuantity":{"value":15.82,"unit":"kg/m2","system":"http://unitsofmeasure.org","code":"kg/m2"}},"request":{"method":"POST","url":"Observation"}},{"fullUrl":"Observation/1546d964-cb4d-459f-b569-83b7c2be700b","resource":{"resourceType":"Observation","id":"1546d964-cb4d-459f-b569-83b7c2be700b","meta":{"profile":["http://hl7.org/fhir/us/core/StructureDefinition/us-core-head-circumference"]},"status":"final","category":[{"coding":[{"system":"http://terminology.hl7.org/CodeSystem/observation-category","code":"vital-signs","display":"Vital Signs"}]}],"code":{"coding":[{"system":"http://loinc.org","code":"9843-4"}]},"subject":{"reference":"Patient/198daad7-476f-405d-803c-e70e1b7f2baa"},"effectiveDateTime":"2022-06-04T00:00:00+00:00","valueQuantity":{"value":6.8,"unit":"Inch","system":"http://unitsofmeasure.org","code":"[in_i]"}},"request":{"method":"POST","url":"Observation"}},{"fullUrl":"Observation/75e1e1c3-3c0b-4542-a23c-9602134870ac","resource":{"resourceType":"Observation","id":"75e1e1c3-3c0b-4542-a23c-9602134870ac","meta":{"profile":["http://hl7.org/fhir/us/core/StructureDefinition/us-core-body-height"]},"status":"final","category":[{"coding":[{"system":"http://terminology.hl7.org/CodeSystem/observation-category","code":"vital-signs","display":"Vital Signs"}]}],"code":{"coding":[{"system":"http://loinc.org","code":"8302-2"}]},"subject":{"reference":"Patient/198daad7-476f-405d-803c-e70e1b7f2baa"},"effectiveDateTime":"2022-03-13T00:00:00+00:00","valueQuantity":{"value":80.6,"unit":"Inch","system":"http://unitsofmeasure.org","code":"[in_i]"}},"request":{"method":"POST","url":"Observation"}},{"fullUrl":"Observation/e19765a3-be2d-496c-911e-2732dcc4c4fa","resource":{"resourceType":"Observation","id":"e19765a3-be2d-496c-911e-2732dcc4c4fa","meta":{"profile":["http://hl7.org/fhir/us/core/StructureDefinition/us-core-body-height"]},"status":"final","category":[{"coding":[{"system":"http://terminology.hl7.org/CodeSystem/observation-category","code":"vital-signs","display":"Vital Signs"}]}],"code":{"coding":[{"system":"http://loinc.org","code":"8302-2"}]},"subject":{"reference":"Patient/198daad7-476f-405d-803c-e70e1b7f2baa"},"effectiveDateTime":"2022-07-30T00:00:00+00:00","valueQuantity":{"value":68.3,"unit":"Inch","system":"http://unitsofmeasure.org","code":"[in_i]"}},"request":{"method":"POST","url":"Observation"}},{"fullUrl":"Observation/fb0a149c-8276-428d-a0e8-be1e4a72f55f","resource":{"resourceType":"Observation","id":"fb0a149c-8276-428d-a0e8-be1e4a72f55f","meta":{"profile":["http://hl7.org/fhir/us/core/StructureDefinition/us-core-body-weight"]},"status":"final","category":[{"coding":[{"system":"http://terminology.hl7.org/CodeSystem/observation-category","code":"vital-signs","display":"Vital Signs"}]}],"code":{"coding":[{"system":"http://loinc.org","code":"29463-7"}]},"subject":{"reference":"Patient/198daad7-476f-405d-803c-e70e1b7f2baa"},"effectiveDateTime":"2022-09-01T00:00:00+00:00","valueQuantity":{"value":128.2,"unit":"kilogram","system":"http://unitsofmeasure.org","code":"kg"}},"request":{"method":"POST","url":"Observation"}},{"fullUrl":"Observation/c33a3f53-6146-475d-89b1-da17363b7b23","resource":{"resourceType":"Observation","id":"c33a3f53-6146-475d-89b1-da17363b7b23","meta":{"profile":["http://hl7.org/fhir/us/core/StructureDefinition/us-core-body-temperature"]},"status":"final","category":[{"coding":[{"system":"http://terminology.hl7.org/CodeSystem/observation-category","code":"vital-signs","display":"Vital Signs"}]}],"code":{"coding":[{"system":"http://loinc.org","code":"8310-5"}]},"subject":{"reference":"Patient/198daad7-476f-405d-803c-e70e1b7f2baa"},"effectiveDateTime":"2022-09-11T00:00:00+00:00","valueQuantity":{"value":121.51,"unit":"kilogram","system":"http://unitsofmeasure.org","code":"kg"}},"request":{"method":"POST","url":"Observation"}},{"fullUrl":"Observation/59667098-e7f9-42cd-a0ba-f260cfa52000","resource":{"resourceType":"Observation","id":"59667098-e7f9-42cd-a0ba-f260cfa52000","meta":{"profile":["http://hl7.org/fhir/us/core/StructureDefinition/us-core-heart-rate"]},"status":"final","category":[{"coding":[{"system":"http://terminology.hl7.org/CodeSystem/observation-category","code":"vital-signs","display":"Vital Signs"}]}],"code":{"coding":[{"system":"http://loinc.org","code":"8867-4"}]},"subject":{"reference":"Patient/198daad7-476f-405d-803c-e70e1b7f2baa"},"effectiveDateTime":"2022-09-01T00:00:00+00:00","valueQuantity":{"value":97.5,"unit":"Degrees Fahrenheit","system":"http://unitsofmeasure.org","code":"[degF]"}},"request":{"method":"POST","url":"Observation"}},{"fullUrl":"Observation/462e4b70-a30b-4f3e-89b0-12561697f5ad","resource":{"resourceType":"Observation","id":"462e4b70-a30b-4f3e-89b0-12561697f5ad","meta":{"profile":["http://hl7.org/fhir/us/core/StructureDefinition/us-core-heart-rate"]},"status":"final","category":[{"coding":[{"system":"http://terminology.hl7.org/CodeSystem/observation-category","code":"vital-signs","display":"Vital Signs"}]}],"code":{"coding":[{"system":"http://loinc.org","code":"8867-4"}]},"subject":{"reference":"Patient/198daad7-476f-405d-803c-e70e1b7f2baa"},"effectiveDateTime":"2022-10-28T00:00:00+00:00","valueQuantity":{"value":100.0,"unit":"Degrees Fahrenheit","system":"http://unitsofmeasure.org","code":"[degF]"}},"request":{"method":"POST","url":"Observation"}}]}