{"resourceType":"Bundle","id":"7f169c8b-0b06-45ff-9e44-89322df4ae5b","type":"transaction","entry":[{"fullUrl":"Patient/a0030695-5241-4d24-ba57-65c5d79e3570","resource":{"resourceType":"Patient","id":"a0030695-5241-4d24-ba57-65c5d79e3570","identifier":[{"type":{"coding":[{"system":"http://terminology.hl7.org/CodeSystem/v2-0203","code":"MR"}]},"system":"urn:fhirgen:mrn","value":"122-63-0046"},{"system":"http://hl7.org/fhir/sid/us-ssn","value":"867-64-5074"}],"name":[{"use":"official","family":"Kim","given":["Michael"]},{"use":"maiden","family":"Roberts"}],"telecom":[{"system":"phone","value":"3697935715","use":"work"},{"system":"email","value":"charleshill@hotmail.com","use":"home"}],"gender":"male","birthDate":"1980-09-09","address":[{"use":"home","line":["14359 Mccullough Creek"],"city":"Maldonadotown","state":"WV","postalCode":"96191"},{"use":"old","line":["90846 Singleton Canyon"],"city":"Teresaside","state":"MN","postalCode":"50371"}],"maritalStatus":{"coding":[{"system":"http://terminology.hl7.org/CodeSystem/v3-MaritalStatus","code":"L","display":"Legally Separated"}]}},"request":{"method":"POST","url":"Patient"}},{"fullUrl":"Observation/55250697-6ada-486b-ab8f-a568c12cdbab","resource":{"resourceType":"Observation","id":"55250697-6ada-486b-ab8f-a568c12cdbab","status":"final","code":{"coding":[{"system":"http://loinc.org","code":"50695-6"}]},"subject":{"reference":"Patient/a0030695-5241-4d24-ba57-65c5d79e3570"},"effectiveDateTime":"2022-03-07T00:00:00+00:00","valueRatio":{"numerator":{"value":1},"denominator":{"value":32}}},"request":{"method":"POST","url":"Observation"}},{"fullUrl":"Observation/d19fb001-bdec-4572-8ee3-c3bd19248d63","resource":{"resourceType":"Observation","id":"d19fb001-bdec-4572-8ee3-c3bd19248d63","status":"final","code":{"coding":[{"system":"http://loinc.org","code":"11084-1"}]},"subject":{"reference":"Patient/a0030695-5241-4d24-ba57-65c5d79e3570"},"effectiveDateTime":"2022-05-22T00:00:00+00:00","valueRatio":{"numerator":{"value":1},"denominator":{"value":32}}},"request":{"method":"POST","url":"Observation"}},{"fullUrl":"Observation/f6c20145-074b-40b6-ac8d-b793c31011cd","resource":{"resourceType":"Observation","id":"f6c20145-074b-40b6-ac8d-b793c31011cd","status":"final","code":{"coding":[{"system":"http://loinc.org","code":"50695-6"}]},"subject":{"reference":"Patient/a0030695-5241-4d24-ba57-65c5d79e3570"},"effectiveDateTime":"2022-08-22T00:00:00+00:00","valueRatio":{"numerator":{"value":1},"denominator":{"value":4}}},"request":{"method":"POST","url":"Observation"}},{"fullUrl":"Condition/74d4a7b7-e54a-4d5a-88e7-e9b53f14a015","resource":{"resourceType":"Condition","id":"74d4a7b7-e54a-4d5a-88e7-e9b53f14a015","code":{"coding":[{"system":"http://snomed.info/sct","code":"297123002"}]},"subject":{"reference":"Patient/a0030695-5241-4d24-ba57-65c5d79e3570"},"onsetDateTime":"2022-11-01T00:00:00+00:00"},"request":{"method":"POST","url":"Condition"}},{"fullUrl":"Condition/af048a87-b79a-4342-bb16-27b36df2dbf0","resource":{"resourceType":"Condition","id":"af048a87-b79a-4342-bb16-27b36df2dbf0","code":{"coding":[{"system":"http://snomed.info/sct","code":"71315007"}]},"subject":{"reference":"Patient/a0030695-5241-4d24-ba57-65c5d79e3570"},"onsetDateTime":"2022-12-02T00:00:00+00:00"},"request":{"method":"POST","url":"Condition"}},{"fullUrl":"Condition/54ac4a36-e10f-4494-83c0-d46791f34a49","resource":{"resourceType":"Condition","id":"54ac4a36-e10f-4494-83c0-d46791f34a49","code":{"coding":[{"system":"http://snomed.info/sct","code":"91554004"}]},"subject":{"reference":"Patient/a0030695-5241-4d24-ba57-65c5d79e3570"},"onsetDateTime":"2022-04-05T00:00:00+00:00"},"request":{"method":"POST","url":"Condition"}},{"fullUrl":"Condition/065ee513-783d-4df7-a35e-65a3cd783d3c","resource":{"resourceType":"Condition","id":"065ee513-783d-4df7-a35e-65a3cd783d3c","code":{"coding":[{"system":"http://snomed.info/sct","code":"71315007"}]},"subject":{"reference":"Patient/a0030695-5241-4d24-ba57-65c5d79e3570"},"onsetDateTime":"2022-09-24T00:00:00+00:00"},"request":{"method":"POST","url":"Condition"}},{"fullUrl":"Condition/24a1eff5-4792-4985-885d-8fce594367d7","resource":{"resourceType":"Condition","id":"24a1eff5-4792-4985-885d-8fce594367d7","code":{"coding":[{"system":"http://snomed.info/sct","code":"31070006"}]},"subject":{"reference":"Patient/a0030695-5241-4d24-ba57-65c5d79e3570"},"onsetDateTime":"2022-01-25T00:00:00+00:00"},"request":{"method":"POST","url":"Condition"}},{"fullUrl":"Condition/9f504571-c8c7-4943-a2bf-9b28bd92b6fc","resource":{"resourceType":"Condition","id":"9f504571-c8c7-4943-a2bf-9b28bd92b6fc","code":{"coding":[{"system":"http://snomed.info/sct","code":"79342006"}]},"subject":{"reference":"Patient/a0030695-5241-4d24-ba57-65c5d79e3570"},"onsetDateTime":"2022-07-30T00:00:00+00:00"},"request":{"method":"POST","url":"Condition"}},{"fullUrl":"Condition/653770be-9281-4e58-972a-c25a66311179","resource":{"resourceType":"Condition","id":"653770be-9281-4e58-972a-c25a66311179","code":{"coding":[{"system":"http://snomed.info/sct","code":"405737000"}]},"subject":{"reference":"Patient/a0030695-5241-4d24-ba57-65c5d79e3570"},"onsetDateTime":"2022-04-20T00:00:00+00:00"},"request":{"method":"POST","url":"Condition"}},{"fullUrl":"Condition/e5a934a8-0626-4359-93e7-01dbb8074195","resource":{"resourceType":"Condition","id":"e5a934a8-0626-4359-93e7-01dbb8074195","code":{"coding":[{"system":"http://snomed.info/sct","code":"709977002"}]},"subject":{"reference":"Patient/a0030695-5241-4d24-ba57-65c5d79e3570"},"onsetDateTime":"2022-11-10T00:00:00+00:00"},"request":{"method":"POST","url":"Condition"}},{"fullUrl":"Observation/b0478b12-c999-4ba6-8615-fd43d9671deb","resource":{"resourceType":"Observation","id":"b0478b12-c999-4ba6-8615-fd43d9671deb","status":"final","code":{"coding":[{"system":"http://www.ama-assn.org/go/cpt","code":"85048"}]},"subject":{"reference":"Patient/a0030695-5241-4d24-ba57-65c5d79e3570"},"effectiveDateTime":"2022-08-04T00:00:00+00:00","valueQuantity":{"value":8.4}},"request":{"method":"POST","url":"Observation"}},{"fullUrl":"Observation/046ad902-a612-4354-9d63-6ebc59031c07","resource":{"resourceType":"Observation","id":"046ad902-a612-4354-9d63-6ebc59031c07","status":"final","code":{"coding":[{"system":"http://loinc.org","code":"26464-8"}]},"subject":{"reference":"Patient/a0030695-5241-4d24-ba57-65c5d79e3570"},"effectiveDateTime":"2022-04-25T00:00:00+00:00","valueQuantity":{"value":4.5}},"request":{"method":"POST","url":"Observation"}},{"fullUrl":"Observation/b464b77d-e5d2-4090-a16a-c6c82a6bea38","resource":{"resourceType":"Observation","id":"b464b77d-e5d2-4090-a16a-c6c82a6bea38","status":"final","code":{"coding":[{"system":"http://loinc.org","code":"26464-8"}]},"subject":{"reference":"Patient/a0030695-5241-4d24-ba57-65c5d79e3570"},"effectiveDateTime":"2022-03-11T00:00:00+00:00","valueCodeableConcept":{"coding":[{"system":"snomed","code":"123456","display":"fake snomed"}]}},"request":{"method":"POST","url":"Observation"}},{"fullUrl":"Observation/65accaf2-6f87-41f9-afe2-c2436e159862","resource":{"resourceType":"Observation","id":"65accaf2-6f87-41f9-afe2-c2436e159862","status":"final","code":{"coding":[{"system":"http://www.ama-assn.org/go/cpt","code":"85048"}]},"subject":{"reference":"Patient/a0030695-5241-4d24-ba57-65c5d79e3570"},"effectiveDateTime":"2022-04-12T00:00:00+00:00","valueCodeableConcept":{"coding":[{"system":"snomed","code":"123456","display":"fake snomed"}]}},"request":{"method":"POST","url":"Observation"}},{"fullUrl":"Observation/b2197218-4f16-4172-b1dc-24d40893909c","resource":{"resourceType":"Observation","id":"b2197218-4f16-4172-b1dc-24d40893909c","status":"final","code":{"coding":[{"system":"http://loinc.org","code":"49498-9"}]},"subject":{"reference":"Patient/a0030695-5241-4d24-ba57-65c5d79e3570"},"effectiveDateTime":"2022-10-26T00:00:00+00:00"},"request":{"method":"POST","url":"Observation"}},{"fullUrl":"Observation/8e375747-f4cf-4f95-aed0-4d4a91e0e1e9","resource":{"resourceType":"Observation","id":"8e375747-f4cf-4f95-aed0-4d4a91e0e1e9","status":"final","code":{"coding":[{"system":"http://loinc.org","code":"49498-9"}]},"subject":{"reference":"Patient/a0030695-5241-4d24-ba57-65c5d79e3570"},"effectiveDateTime":"2022-07-08T00:00:00+00:00"},"request":{"method":"POST","url":"Observation"}},{"fullUrl":"Observation/eea1f4b2-ba11-47e2-a161-a49bba22376b","resource":{"resourceType":"Observation","id":"eea1f4b2-ba11-47e2-a161-a49bba22376b","status":"final","code":{"coding":[{"system":"http://loinc.org","code":"49498-9"}]},"subject":{"reference":"Patient/a0030695-5241-4d24-ba57-65c5d79e3570"},"effectiveDateTime":"2022-05-26T00:00:00+00:00"},"request":{"method":"POST","url":"Observation"}},{"fullUrl":"Procedure/9701a567-7003-4312-a406-8a40d9eef565","resource":{"resourceType":"Procedure","id":"9701a567-7003-4312-a406-8a40d9eef565","status":"completed","code":{"coding":[{"system":"http://snomed.info/sct","code":"647000"}]},"subject":{"reference":"Patient/a0030695-5241-4d24-ba57-65c5d79e3570"},"performedDateTime":"2022-11-08T00:00:00+00:00"},"request":{"method":"POST","url":"Procedure"}},{"fullUrl":"Procedure/6cb83b9c-de19-48fc-8c50-63aaf1faad00","resource":{"resourceType":"Procedure","id":"6cb83b9c-de19-48fc-8c50-63aaf1faad00","status":"completed","code":{"coding":[{"system":"http://snomed.info/sct","code":"115006"}]},"subject":{"reference":"Patient/a0030695-5241-4d24-ba57-65c5d79e3570"},"performedDateTime":"2022-06-12T00:00:00+00:00"},"request":{"method":"POST","url":"Procedure"}},{"fullUrl":"Procedure/849f0bd9-be91-4da6-8351-d62d084d70ce","resource":{"resourceType":"Procedure","id":"849f0bd9-be91-4da6-8351-d62d084d70ce","status":"completed","code":{"coding":[{"system":"http://snomed.info/sct","code":"104001"}]},"subject":{"reference":"Patient/a0030695-5241-4d24-ba57-65c5d79e3570"},"performedDateTime":"2022-01-21T00:00:00+00:00"},"request":{"method":"POST","url":"Procedure"}},{"fullUrl":"MedicationStatement/63e6b6f6-bed4-42a0-ab79-596775dd4a78","resource":{"resourceType":"MedicationStatement","id":"63e6b6f6-bed4-42a0-ab79-596775dd4a78","status":"completed","medicationCodeableConcept":{"coding":[{"system":"http://www.nlm.nih.gov/research/umls/rxnorm","code":"10395"}]},"subject":{"reference":"Patient/a0030695-5241-4d24-ba57-65c5d79e3570"},"effectiveDateTime":"2022-09-16T00:00:00+00:00","dosage":[{"doseAndRate":[{"doseQuantity":{"value":2,"unit":"TAB","system":"http://terminology.hl7.org/CodeSystem/v3-orderableDrugForm","code":"TAB"}}]}]},"request":{"method":"POST","url":"MedicationStatement"}},{"fullUrl":"MedicationStatement/3868b6d1-5c2e-4724-9b39-a398446ff04a","resource":{"resourceType":"MedicationStatement","id":"3868b6d1-5c2e-4724-9b39-a398446ff04a","status":"completed","medicationCodeableConcept":{"coding":[{"system":"http://www.nlm.nih.gov/research/umls/rxnorm","code":"8698"}]},"subject":{"reference":"Patient/a0030695-5241-4d24-ba57-65c5d79e3570"},"effectiveDateTime":"2022-09-18T00:00:00+00:00","dosage":[{"doseAndRate":[{"doseQuantity":{"value":1,"unit":"TAB","system":"http://terminology.hl7.org/CodeSystem/v3-orderableDrugForm","code":"TAB"}}]}]},"request":{"method":"POST","url":"MedicationStatement"}},{"fullUrl":"MedicationStatement/d8015c63-c71d-4fe3-93b0-62716a049e81","resource":{"resourceType":"MedicationStatement","id":"d8015c63-c71d-4fe3-93b0-62716a049e81","status":"completed","medicationCodeableConcept":{"coding":[{"system":"http://www.nlm.nih.gov/research/umls/rxnorm","code":"8698"}]},"subject":{"reference":"Patient/a0030695-5241-4d24-ba57-65c5d79e3570"},"effectiveDateTime":"2022-03-15T00:00:00+00:00","dosage":[{"doseAndRate":[{"doseQuantity":{"value":2,"unit":"TAB","system":"http://terminology.hl7.org/CodeSystem/v3-orderableDrugForm","code":"TAB"}}]}]},"request":{"method":"POST","url":"MedicationStatement"}},{"fullUrl":"MedicationStatement/bac3162e-a30c-41b8-97cf-58be008c810e","resource":{"resourceType":"MedicationStatement","id":"bac3162e-a30c-41b8-97cf-58be008c810e","status":"completed","medicationCodeableConcept":{"coding":[{"system":"http://www.nlm.nih.gov/research/umls/rxnorm","code":"18631"}]},"subject":{"reference":"Patient/a0030695-5241-4d24-ba57-65c5d79e3570"},"effectiveDateTime":"2022-03-01T00:00:00+00:00","dosage":[{"doseAndRate":[{"doseQuantity":{"value":1,"unit":"TAB","system":"http://terminology.hl7.org/CodeSystem/v3-orderableDrugForm","code":"TAB"}}]}]},"request":{"method":"POST","url":"MedicationStatement"}},{"fullUrl":"MedicationStatement/7288b459-c196-42f4-a48a-06d25222e087","resource":{"resourceType":"MedicationStatement","id":"7288b459-c196-42f4-a48a-06d25222e087","status":"completed","medicationCodeableConcept":{"coding":[{"system":"http://www.nlm.nih.gov/research/umls/rxnorm","code":"2193"}]},"subject":{"reference":"Patient/a0030695-5241-4d24-ba57-65c5d79e3570"},"effectiveDateTime":"2022-08-03T00:00:00+00:00","dosage":[{"doseAndRate":[{"doseQuantity":{"value":4.1,"unit":"TAB","system":"http://terminology.hl7.org/CodeSystem/v3-orderableDrugForm","code":"TAB"}}]}]},"request":{"method":"POST","url":"MedicationStatement"}},{"fullUrl":"MedicationStatement/0ab0da6b-3fc2-4aa7-ba5b-568196430b80","resource":{"resourceType":"MedicationStatement","id":"0ab0da6b-3fc2-4aa7-ba5b-568196430b80","status":"completed","medicationCodeableConcept":{"coding":[{"system":"http://www.nlm.nih.gov/research/umls/rxnorm","code":"7980"}]},"subject":{"reference":"Patient/a0030695-5241-4d24-ba57-65c5d79e3570"},"effectiveDateTime":"2022-09-04T00:00:00+00:00","dosage":[{"doseAndRate":[{"doseQuantity":{"value":3.3,"unit":"TAB","system":"http://terminology.hl7.org/CodeSystem/v3-orderableDrugForm","code":"TAB"}}]}]},"request":{"method":"POST","url":"MedicationStatement"}},{"fullUrl":"MedicationStatement/fb4e0c96-608d-412d-b067-2ff97842a967","resource":{"resourceType":"MedicationStatement","id":"fb4e0c96-608d-412d-b067-2ff97842a967","status":"completed","medicationCodeableConcept":{"coding":[{"system":"http://www.nlm.nih.gov/research/umls/rxnorm","code":"7980"}]},"subject":{"reference":"Patient/a0030695-5241-4d24-ba57-65c5d79e3570"},"effectiveDateTime":"2022-04-21T00:00:00+00:00","dosage":[{"doseAndRate":[{"doseQuantity":{"value":6.9,"unit":"TAB","system":"http://terminology.hl7.org/CodeSystem/v3-orderableDrugForm","code":"TAB"}}]}]},"request":{"method":"POST","url":"MedicationStatement"}},{"fullUrl":"Encounter/e9bd3055-87fd-45bb-9357-c261b01b7fbc","resource":{"resourceType":"Encounter","id":"e9bd3055-87fd-45bb-9357-c261b01b7fbc","status":"finished","class":{"system":"http://terminology.hl7.org/CodeSystem/v3-ActCode","code":"IMP","display":"inpatient encounter"},"type":[{"coding":[{"system":"http://terminology.hl7.org/CodeSystem/encounter-type","code":"BD/BM-clin"}]}],"subject":{"reference":"Patient/a0030695-5241-4d24-ba57-65c5d79e3570"},"period":{"start":"2022-06-17T00:00:00+00:00","end":"2022-06-23T00:00:00+00:00"}},"request":{"method":"POST","url":"Encounter"}},{"fullUrl":"Encounter/1c0dcbe3-50e3-4e45-baed-fc543310972d","resource":{"resourceType":"Encounter","id":"1c0dcbe3-50e3-4e45-baed-fc543310972d","status":"finished","class":{"system":"http://terminology.hl7.org/CodeSystem/v3-ActCode","code":"IMP","display":"inpatient encounter"},"type":[{"coding":[{"system":"http://terminology.hl7.org/CodeSystem/encounter-type","code":"CCS60"}]}],"subject":{"reference":"Patient/a0030695-5241-4d24-ba57-65c5d79e3570"},"period":{"start":"2022-11-26T00:00:00+00:00","end":"2022-12-02T00:00:00+00:00"}},"request":{"method":"POST","url":"Encounter"}},{"fullUrl":"Encounter/9cbdd48c-09d4-4d9a-8f42-fc97c10d01e5","resource":{"resourceType":"Encounter","id":"9cbdd48c-09d4-4d9a-8f42-fc97c10d01e5","status":"finished","class":{"system":"http://terminology.hl7.org/CodeSystem/v3-ActCode","code":"IMP","display":"inpatient encounter"},"type":[{"coding":[{"system":"http://terminology.hl7.org/CodeSystem/encounter-type","code":"CCS60"}]}],"subject":{"reference":"Patient/a0030695-5241-4d24-ba57-65c5d79e3570"},"period":{"start":"2022-02-12T00:00:00+00:00","end":"2022-02-21T00:00:00+00:00"}},"request":{"method":"POST","url":"Encounter"}},{"fullUrl":"Encounter/398c9013-33d9-4b3a-a252-c0d2258f9921","resource":{"resourceType":"Encounter","id":"398c9013-33d9-4b3a-a252-c0d2258f9921","status":"finished","class":{"system":"http://terminology.hl7.org/CodeSystem/v3-ActCode","code":"IMP","display":"inpatient encounter"},"type":[{"coding":[{"system":"http://terminology.hl7.org/CodeSystem/encounter-type","code":"CCS60"}]}],"subject":{"reference":"Patient/a0030695-5241-4d24-ba57-65c5d79e3570"},"period":{"start":"2022-11-04T00:00:00+00:00","end":"2022-11-10T00:00:00+00:00"}},"request":{"method":"POST","url":"Encounter"}},{"fullUrl":"Encounter/6921ded0-f125-4a4e-b080-5ebd554ea728","resource":{"resourceType":"Encounter","id":"6921ded0-f125-4a4e-b080-5ebd554ea728","status":"finished","class":{"system":"http://terminology.hl7.org/CodeSystem/v3-ActCode","code":"FLD","display":"field"},"type":[{"coding":[{"system":"http://terminology.hl7.org/CodeSystem/encounter-type","code":"ADMS"}]}],"subject":{"reference":"Patient/a0030695-5241-4d24-ba57-65c5d79e3570"},"period":{"start":"2022-11-28T00:00:00+00:00","end":"2022-11-29T00:00:00+00:00"}},"request":{"method":"POST","url":"Encounter"}},{"fullUrl":"Location/37585207-d399-4284-9bd2-4102dfb6a030","resource":{"resourceType":"Location","id":"37585207-d399-4284-9bd2-4102dfb6a030","status":"active","name":"Richard-Wright","telecom":[{"system":"phone","value":"224.641.2872","use":"mobile"}],"address":{"use":"work","line":["852 Brian Lakes"],"city":"Jacobsville","state":"ID","postalCode":"64522"}},"request":{"method":"POST","url":"Location"}},{"fullUrl":"Observation/7a202271-083f-4d93-a7ff-7301e411b67f","resource":{"resourceType":"Observation","id":"7a202271-083f-4d93-a7ff-7301e411b67f","status":"final","code":{"coding":[{"system":"http://loinc.org","code":"81956-5"}]},"subject":{"reference":"Patient/a0030695-5241-4d24-ba57-65c5d79e3570"},"effectiveDateTime":"2022-08-04T00:00:00+00:00","valueDateTime":"2022-06-04T00:00:00+00:00"},"request":{"method":"POST","url":"Observation"}},{"fullUrl":"Patient/30cb6d49-3aa9-4bb6-a6ba-61d3fa085b62","resource":{"resourceType":"Patient","id":"30cb6d49-3aa9-4bb6-a6ba-61d3fa085b62","identifier":[{"type":{"coding":[{"system":"http://terminology.hl7.org/CodeSystem/v2-0203","code":"MR"}]},"system":"urn:fhirgen:mrn","value":"578-60-9027"},{"system":"http://hl7.org/fhir/sid/us-ssn","value":"539-90-0387"}],"name":[{"use":"official","family":"Taylor","given":["Billy"]},{"use":"maiden","family":"Lester"}],"telecom":[{"system":"phone","value":"230.309.6076x55461","use":"mobile"},{"system":"email","value":"jennifer54@gmail.com","use":"mobile"}],"gender":"male","birthDate":"1991-02-08","address":[{"use":"home","line":["3330 Romero Prairie"],"city":"Port Aprilland","state":"CO","postalCode":"00824"},{"use":"old","line":["624 Norris Track"],"city":"Mannchester","state":"IN","postalCode":"45382"}],"maritalStatus":{"coding":[{"system":"http://terminology.hl7.org/CodeSystem/v3-MaritalStatus","code":"M","display":"Married"}]}},"request":{"method":"POST","url":"Patient"}},{"fullUrl":"Observation/e8141a78-afa2-4eef-8274-08e40ecb2f4c","resource":{"resourceType":"Observation","id":"e8141a78-afa2-4eef-8274-08e40ecb2f4c","status":"final","code":{"coding":[{"system":"http://loinc.org","code":"46203-6"}]},"subject":{"reference":"Patient/30cb6d49-3aa9-4bb6-a6ba-61d3fa085b62"},"effectiveDateTime":"2022-11-25T00:00:00+00:00","valueRatio":{"numerator":{"value":1},"denominator":{"value":4}}},"request":{"method":"POST","url":"Observation"}},{"fullUrl":"Observation/f19d4bf3-4c0e-438c-a36f-4d13d19d6233","resource":{"resourceType":"Observation","id":"f19d4bf3-4c0e-438c-a36f-4d13d19d6233","status":"final","code":{"coding":[{"system":"http://loinc.org","code":"47235-7"}]},"subject":{"reference":"Patient/30cb6d49-3aa9-4bb6-a6ba-61d3fa085b62"},"effectiveDateTime":"2022-12-30T00:00:00+00:00","valueRatio":{"numerator":{"value":1},"denominator":{"value":4}}},"request":{"method":"POST","url":"Observation"}},{"fullUrl":"Condition/c99026b3-7910-49ac-b1b9-e602f5cc3a2d","resource":{"resourceType":"Condition","id":"c99026b3-7910-49ac-b1b9-e602f5cc3a2d","code":{"coding":[{"system":"http://snomed.info/sct","code":"31070006"}]},"subject":{"reference":"Patient/30cb6d49-3aa9-4bb6-a6ba-61d3fa085b62"},"onsetDateTime":"2022-09-19T00:00:00+00:00"},"request":{"method":"POST","url":"Condition"}},{"fullUrl":"Condition/87b2cf9c-8784-4578-a480-ee0d2c0e35df","resource":{"resourceType":"Condition","id":"87b2cf9c-8784-4578-a480-ee0d2c0e35df","code":{"coding":[{"system":"http://snomed.info/sct","code":"418290006"}]},"subject":{"reference":"Patient/30cb6d49-3aa9-4bb6-a6ba-61d3fa085b62"},"onsetDateTime":"2022-06-18T00:00:00+00:00"},"request":{"method":"POST","url":"Condition"}},{"fullUrl":"Condition/9703e987-4ea4-4d95-b276-da7cda6531e3","resource":{"resourceType":"Condition","id":"9703e987-4ea4-4d95-b276-da7cda6531e3","code":{"coding":[{"system":"http://snomed.info/sct","code":"31070006"}]},"subject":{"reference":"Patient/30cb6d49-3aa9-4bb6-a6ba-61d3fa085b62"},"onsetDateTime":"2022-09-20T00:00:00+00:00"},"request":{"method":"POST","url":"Condition"}},{"fullUrl":"Condition/fecffbaf-b134-416f-b51e-2d38073b6f2b","resource":{"resourceType":"Condition","id":"fecffbaf-b134-416f-b51e-2d38073b6f2b","code":{"coding":[{"system":"http://snomed.info/sct","code":"31070006"}]},"subject":{"reference":"Patient/30cb6d49-3aa9-4bb6-a6ba-61d3fa085b62"},"onsetDateTime":"2022-09-02T00:00:00+00:00"},"request":{"method":"POST","url":"Condition"}},{"fullUrl":"Observation/2cb89e0a-b59b-4a3e-8edb-3ed0b0b587ae","resource":{"resourceType":"Observation","id":"2cb89e0a-b59b-4a3e-8edb-3ed0b0b587ae","status":"final","code":{"coding":[{"system":"http://loinc.org","code":"49498-9"}]},"subject":{"reference":"Patient/30cb6d49-3aa9-4bb6-a6ba-61d3fa085b62"},"effectiveDateTime":"2022-04-18T00:00:00+00:00","valueQuantity":{"value":8.8}},"request":{"method":"POST","url":"Observation"}},{"fullUrl":"Observation/2767e06c-900d-4364-98be-159a95907b86","resource":{"resourceType":"Observation","id":"2767e06c-900d-4364-98be-159a95907b86","status":"final","code":{"coding":[{"system":"http://loinc.org","code":"804-5"}]},"subject":{"reference":"Patient/30cb6d49-3aa9-4bb6-a6ba-61d3fa085b62"},"effectiveDateTime":"2022-06-08T00:00:00+00:00","valueQuantity":{"value":9.7}},"request":{"method":"POST","url":"Observation"}},{"fullUrl":"Observation/0e37fc61-43e0-4581-b53e-54585ed96468","resource":{"resourceType":"Observation","id":"0e37fc61-43e0-4581-b53e-54585ed96468","status":"final","code":{"coding":[{"system":"http://loinc.org","code":"804-5"}]},"subject":{"reference":"Patient/30cb6d49-3aa9-4bb6-a6ba-61d3fa085b62"},"effectiveDateTime":"2022-07-08T00:00:00+00:00","valueCodeableConcept":{"coding":[{"system":"snomed","code":"123456","display":"fake snomed"}]}},"request":{"method":"POST","url":"Observation"}},{"fullUrl":"Observation/671884fd-ab2d-4da3-8a54-37427789da3d","resource":{"resourceType":"Observation","id":"671884fd-ab2d-4da3-8a54-37427789da3d","status":"final","code":{"coding":[{"system":"http://loinc.org","code":"6690-2"}]},"subject":{"reference":"Patient/30cb6d49-3aa9-4bb6-a6ba-61d3fa085b62"},"effectiveDateTime":"2022-02-10T00:00:00+00:00","valueCodeableConcept":{"coding":[{"system":"snomed","code":"123456","display":"fake snomed"}]}},"request":{"method":"POST","url":"Observation"}},{"fullUrl":"Observation/ecc9d1e1-113a-47af-a8cd-796d9f0de3d1","resource":{"resourceType":"Observation","id":"ecc9d1e1-113a-47af-a8cd-796d9f0de3d1","status":"final","code":{"coding":[{"system":"http://loinc.org","code":"26464-8"}]},"subject":{"reference":"Patient/30cb6d49-3aa9-4bb6-a6ba-61d3fa085b62"},"effectiveDateTime":"2022-06-20T00:00:00+00:00","valueCodeableConcept":{"coding":[{"system":"snomed","code":"123456","display":"fake snomed"}]}},"request":{"method":"POST","url":"Observation"}},{"fullUrl":"Observation/59e956b4-a2af-4a74-b94e-3a9647ee8c30","resource":{"resourceType":"Observation","id":"59e956b4-a2af-4a74-b94e-3a9647ee8c30","status":"final","code":{"coding":[{"system":"http://loinc.org","code":"49498-9"}]},"subject":{"reference":"Patient/30cb6d49-3aa9-4bb6-a6ba-61d3fa085b62"},"effectiveDateTime":"2022-11-10T00:00:00+00:00"},"request":{"method":"POST","url":"Observation"}},{"fullUrl":"Observation/a8410c31-8dbe-4bfe-9192-062d4c98c225","resource":{"resourceType":"Observation","id":"a8410c31-8dbe-4bfe-9192-062d4c98c225","status":"final","code":{"coding":[{"system":"http://loinc.org","code":"49498-9"}]},"subject":{"reference":"Patient/30cb6d49-3aa9-4bb6-a6ba-61d3fa085b62"},"effectiveDateTime":"2022-01-23T00:00:00+00:00"},"request":{"method":"POST","url":"Observation"}},{"fullUrl":"Procedure/94c70eba-7c79-4249-84ca-befe187ddcf6","resource":{"resourceType":"Procedure","id":"94c70eba-7c79-4249-84ca-befe187ddcf6","status":"completed","code":{"coding":[{"system":"http://snomed.info/sct","code":"189009"}]},"subject":{"reference":"Patient/30cb6d49-3aa9-4bb6-a6ba-61d3fa085b62"},"performedDateTime":"2022-09-17T00:00:00+00:00"},"request":{"method":"POST","url":"Procedure"}},{"fullUrl":"Procedure/71c5981c-4b46-4daa-bdbc-d0654b2d1071","resource":{"resourceType":"Procedure","id":"71c5981c-4b46-4daa-bdbc-d0654b2d1071","status":"completed","code":{"coding":[{"system":"http://snomed.info/sct","code":"647000"}]},"subject":{"reference":"Patient/30cb6d49-3aa9-4bb6-a6ba-61d3fa085b62"},"performedDateTime":"2022-11-14T00:00:00+00:00"},"request":{"method":"POST","url":"Procedure"}},{"fullUrl":"Procedure/2931fcfa-17ab-47be-ae58-7c7d0d56a47e","resource":{"resourceType":"Procedure","id":"2931fcfa-17ab-47be-ae58-7c7d0d56a47e","status":"completed","code":{"coding":[{"system":"http://snomed.info/sct","code":"104001"}]},"subject":{"reference":"Patient/30cb6d49-3aa9-4bb6-a6ba-61d3fa085b62"},"performedDateTime":"2022-04-08T00:00:00+00:00"},"request":{"method":"POST","url":"Procedure"}},{"fullUrl":"MedicationStatement/064d78cf-1dac-4e78-a9db-9cfc5a95e1e3","resource":{"resourceType":"MedicationStatement","id":"064d78cf-1dac-4e78-a9db-9cfc5a95e1e3","status":"completed","medicationCodeableConcept":{"coding":[{"system":"http://www.nlm.nih.gov/research/umls/rxnorm","code":"3640"}]},"subject":{"reference":"Patient/30cb6d49-3aa9-4bb6-a6ba-61d3fa085b62"},"effectiveDateTime":"2022-05-27T00:00:00+00:00","dosage":[{"doseAndRate":[{"doseQuantity":{"value":2,"unit":"TAB","system":"http://terminology.hl7.org/CodeSystem/v3-orderableDrugForm","code":"TAB"}}]}]},"request":{"method":"POST","url":"MedicationStatement"}},{"fullUrl":"MedicationStatement/fc088eb9-6c69-426c-9f9d-ec967d9e577d","resource":{"resourceType":"MedicationStatement","id":"fc088eb9-6c69-426c-9f9d-ec967d9e577d","status":"completed","medicationCodeableConcept":{"coding":[{"system":"http://www.nlm.nih.gov/research/umls/rxnorm","code":"18631"}]},"subject":{"reference":"Patient/30cb6d49-3aa9-4bb6-a6ba-61d3fa085b62"},"effectiveDateTime":"2022-09-30T00:00:00+00:00","dosage":[{"doseAndRate":[{"doseQuantity":{"value":1,"unit":"TAB","system":"http://terminology.hl7.org/CodeSystem/v3-orderableDrugForm","code":"TAB"}}]}]},"request":{"method":"POST","url":"MedicationStatement"}},{"fullUrl":"MedicationStatement/964e2bfb-88cb-428c-add3-bc1e574a7348","resource":{"resourceType":"MedicationStatement","id":"964e2bfb-88cb-428c-add3-bc1e574a7348","status":"completed","medicationCodeableConcept":{"coding":[{"system":"http://www.nlm.nih.gov/research/umls/rxnorm","code":"3640"}]},"subject":{"reference":"Patient/30cb6d49-3aa9-4bb6-a6ba-61d3fa085b62"},"effectiveDateTime":"2022-04-05T00:00:00+00:00","dosage":[{"doseAndRate":[{"doseQuantity":{"value":2,"unit":"TAB","system":"http://terminology.hl7.org/CodeSystem/v3-orderableDrugForm","code":"TAB"}}]}]},"request":{"method":"POST","url":"MedicationStatement"}},{"fullUrl":"MedicationStatement/7e556a29-a16c-4eb5-8a99-a48d86742cbe","resource":{"resourceType":"MedicationStatement","id":"7e556a29-a16c-4eb5-8a99-a48d86742cbe","status":"completed","medicationCodeableConcept":{"coding":[{"system":"http://www.nlm.nih.gov/research/umls/rxnorm","code":"18631"}]},"subject":{"reference":"Patient/30cb6d49-3aa9-4bb6-a6ba-61d3fa085b62"},"effectiveDateTime":"2022-07-10T00:00:00+00:00","dosage":[{"doseAndRate":[{"doseQuantity":{"value":1,"unit":"TAB","system":"http://terminology.hl7.org/CodeSystem/v3-orderableDrugForm","code":"TAB"}}]}]},"request":{"method":"POST","url":"MedicationStatement"}},{"fullUrl":"MedicationStatement/00333e8f-2b77-4a2a-b916-81a07335b44d","resource":{"resourceType":"MedicationStatement","id":"00333e8f-2b77-4a2a-b916-81a07335b44d","status":"completed","medicationCodeableConcept":{"coding":[{"system":"http://www.nlm.nih.gov/research/umls/rxnorm","code":"8698"}]},"subject":{"reference":"Patient/30cb6d49-3aa9-4bb6-a6ba-61d3fa085b62"},"effectiveDateTime":"2022-05-09T00:00:00+00:00","dosage":[{"doseAndRate":[{"doseQuantity":{"value":5.4,"unit":"TAB","system":"http://terminology.hl7.org/CodeSystem/v3-orderableDrugForm","code":"TAB"}}]}]},"request":{"method":"POST","url":"MedicationStatement"}},{"fullUrl":"MedicationStatement/453cabdf-aa4a-4a26-815b-5a6650c5c713","resource":{"resourceType":"MedicationStatement","id":"453cabdf-aa4a-4a26-815b-5a6650c5c713","status":"completed","medicationCodeableConcept":{"coding":[{"system":"http://www.nlm.nih.gov/research/umls/rxnorm","code":"10395"}]},"subject":{"reference":"Patient/30cb6d49-3aa9-4bb6-a6ba-61d3fa085b62"},"effectiveDateTime":"2022-07-09T00:00:00+00:00","dosage":[{"doseAndRate":[{"doseQuantity":{"value":3.3,"unit":"TAB","system":"http://terminology.hl7.org/CodeSystem/v3-orderableDrugForm","code":"TAB"}}]}]},"request":{"method":"POST","url":"MedicationStatement"}},{"fullUrl":"MedicationStatement/37c3fb60-ecba-4d55-ade6-9bdae77e25e5","resource":{"resourceType":"MedicationStatement","id":"37c3fb60-ecba-4d55-ade6-9bdae77e25e5","status":"completed","medicationCodeableConcept":{"coding":[{"system":"http://www.nlm.nih.gov/research/umls/rxnorm","code":"8698"}]},"subject":{"reference":"Patient/30cb6d49-3aa9-4bb6-a6ba-61d3fa085b62"},"effectiveDateTime":"2022-03-16T00:00:00+00:00","dosage":[{"doseAndRate":[{"doseQuantity":{"value":3.5,"unit":"TAB","system":"http://terminology.hl7.org/CodeSystem/v3-orderableDrugForm","code":"TAB"}}]}]},"request":{"method":"POST","url":"MedicationStatement"}},{"fullUrl":"MedicationStatement/6b7c8f5e-9a2d-4730-91c4-2cc485dae964","resource":{"resourceType":"MedicationStatement","id":"6b7c8f5e-9a2d-4730-91c4-2cc485dae964","status":"completed","medicationCodeableConcept":{"coding":[{"system":"http://www.nlm.nih.gov/research/umls/rxnorm","code":"3640"}]},"subject":{"reference":"Patient/30cb6d49-3aa9-4bb6-a6ba-61d3fa085b62"},"effectiveDateTime":"2022-06-15T00:00:00+00:00","dosage":[{"doseAndRate":[{"doseQuantity":{"value":6.3,"unit":"TAB","system":"http://terminology.hl7.org/CodeSystem/v3-orderableDrugForm","code":"TAB"}}]}]},"request":{"method":"POST","url":"MedicationStatement"}},{"fullUrl":"Encounter/608b6a7a-4bff-4cc9-8d27-98ebe01f62a1","resource":{"resourceType":"Encounter","id":"608b6a7a-4bff-4cc9-8d27-98ebe01f62a1","status":"finished","class":{"system":"http://terminology.hl7.org/CodeSystem/v3-ActCode","code":"IMP","display":"inpatient encounter"},"type":[{"coding":[{"system":"http://terminology.hl7.org/CodeSystem/encounter-type","code":"OKI"}]}],"subject":{"reference":"Patient/30cb6d49-3aa9-4bb6-a6ba-61d3fa085b62"},"period":{"start":"2022-12-13T00:00:00+00:00","end":"2022-12-17T00:00:00+00:00"}},"request":{"method":"POST","url":"Encounter"}},{"fullUrl":"Encounter/aa306ee1-12fb-40b7-bc93-bcfe2b60a6d7","resource":{"resourceType":"Encounter","id":"aa306ee1-12fb-40b7-bc93-bcfe2b60a6d7","status":"finished","class":{"system":"http://terminology.hl7.org/CodeSystem/v3-ActCode","code":"IMP","display":"inpatient encounter"},"type":[{"coding":[{"system":"http://terminology.hl7.org/CodeSystem/encounter-type","code":"BD/BM-clin"}]}],"subject":{"reference":"Patient/30cb6d49-3aa9-4bb6-a6ba-61d3fa085b62"},"period":{"start":"2022-07-26T00:00:00+00:00","end":"2022-07-28T00:00:00+00:00"}},"request":{"method":"POST","url":"Encounter"}},{"fullUrl":"Encounter/d12c1585-e408-4a16-be2d-02dedbf03958","resource":{"resourceType":"Encounter","id":"d12c1585-e408-4a16-be2d-02dedbf03958","status":"finished","class":{"system":"http://terminology.hl7.org/CodeSystem/v3-ActCode","code":"AMB","display":"ambulatory"},"type":[{"coding":[{"system":"http://terminology.hl7.org/CodeSystem/encounter-type","code":"OKI"}]}],"subject":{"reference":"Patient/30cb6d49-3aa9-4bb6-a6ba-61d3fa085b62"},"period":{"start":"2022-10-21T00:00:00+00:00","end":"2022-10-22T00:00:00+00:00"}},"request":{"method":"POST","url":"Encounter"}},{"fullUrl":"Encounter/edbef13a-328c-4949-a90a-e2d91f3cfa4a","resource":{"resourceType":"Encounter","id":"edbef13a-328c-4949-a90a-e2d91f3cfa4a","status":"finished","class":{"system":"http://terminology.hl7.org/CodeSystem/v3-ActCode","code":"EMER","display":"emergency"},"type":[{"coding":[{"system":"http://terminology.hl7.org/CodeSystem/encounter-type","code":"CCS60"}]}],"subject":{"reference":"Patient/30cb6d49-3aa9-4bb6-a6ba-61d3fa085b62"},"period":{"start":"2022-09-11T00:00:00+00:00","end":"2022-09-13T00:00:00+00:00"}},"request":{"method":"POST","url":"Encounter"}},{"fullUrl":"Location/2d69bf5a-a964-4d78-ad72-891ebc404de2","resource":{"resourceType":"Location","id":"2d69bf5a-a964-4d78-ad72-891ebc404de2","status":"active","name":"Garcia, Smith and Goodwin","telecom":[{"system":"phone","value":"(207)072-4042x72616","use":"home"}],"address":{"use":"work","line":["83555 Teresa Harbors"],"city":"Ashleystad","state":"VA","postalCode":"07064"}},"request":{"method":"POST","url":"Location"}},{"fullUrl":"Observation/63255c52-b7ca-4883-bbe8-f86c135568e3","resource":{"resourceType":"Observation","id":"63255c52-b7ca-4883-bbe8-f86c135568e3","status":"final","code":{"coding":[{"system":"http://loinc.org","code":"81956-5"}]},"subject":{"reference":"Patient/30cb6d49-3aa9-4bb6-a6ba-61d3fa085b62"},"effectiveDateTime":"2022-02-28T00:00:00+00:00","valueDateTime":"2021-12-12T00:00:00+00:00"},"request":{"method":"POST","url":"Observation"}},{"fullUrl":"Patient/5091b03f-c651-4b7b-88b7-d24172244b6e","resource":{"resourceType":"Patient","id":"5091b03f-c651-4b7b-88b7-d24172244b6e","identifier":[{"type":{"coding":[{"system":"http://terminology.hl7.org/CodeSystem/v2-0203","code":"MR"}]},"system":"urn:fhirgen:mrn","value":"527-95-3895"},{"system":"http://hl7.org/fhir/sid/us-ssn","value":"097-87-2832"}],"name":[{"use":"official","family":"Miller","given":["Bianca"]},{"use":"maiden","family":"Burnett"}],"telecom":[{"system":"phone","value":"9293758254","use":"home"},{"system":"email","value":"johnnichols@hotmail.com","use":"mobile"}],"gender":"female","birthDate":"1994-02-20","address":[{"use":"home","line":["481 Joshua River"],"city":"East Brianport","state":"NE","postalCode":"94807"},{"use":"old","line":["32834 Castillo Park"],"city":"Christopherburgh","state":"MI","postalCode":"05114"}],"maritalStatus":{"coding":[{"system":"http://terminology.hl7.org/CodeSystem/v3-MaritalStatus","code":"S","display":"Never Married"}]}},"request":{"method":"POST","url":"Patient"}},{"fullUrl":"Observation/11b219d4-556e-41e9-971c-b224caec0f50","resource":{"resourceType":"Observation","id":"11b219d4-556e-41e9-971c-b224caec0f50","status":"final","code":{"coding":[{"system":"http://loinc.org","code":"46203-6"}]},"subject":{"reference":"Patient/5091b03f-c651-4b7b-88b7-d24172244b6e"},"effectiveDateTime":"2022-11-18T00:00:00+00:00","valueRatio":{"numerator":{"value":1},"denominator":{"value":32}}},"request":{"method":"POST","url":"Observation"}},{"fullUrl":"Observation/d4d34de9-473e-4f61-a6e5-5d5c17223761","resource":{"resourceType":"Observation","id":"d4d34de9-473e-4f61-a6e5-5d5c17223761","status":"final","code":{"coding":[{"system":"http://loinc.org","code":"11084-1"}]},"subject":{"reference":"Patient/5091b03f-c651-4b7b-88b7-d24172244b6e"},"effectiveDateTime":"2022-03-22T00:00:00+00:00","valueRatio":{"numerator":{"value":1},"denominator":{"value":4}}},"request":{"method":"POST","url":"Observation"}},{"fullUrl":"Observation/e924335b-85f4-4284-b0e0-af2fd5ab34ca","resource":{"resourceType":"Observation","id":"e924335b-85f4-4284-b0e0-af2fd5ab34ca","status":"final","code":{"coding":[{"system":"http://loinc.org","code":"11084-1"}]},"subject":{"reference":"Patient/5091b03f-c651-4b7b-88b7-d24172244b6e"},"effectiveDateTime":"2022-11-05T00:00:00+00:00","valueRatio":{"numerator":{"value":1},"denominator":{"value":4}}},"request":{"method":"POST","url":"Observation"}},{"fullUrl":"Condition/393812ec-c4b5-4e36-9492-f10b69a7e8ca","resource":{"resourceType":"Condition","id":"393812ec-c4b5-4e36-9492-f10b69a7e8ca","code":{"coding":[{"system":"http://snomed.info/sct","code":"31070006"}]},"subject":{"reference":"Patient/5091b03f-c651-4b7b-88b7-d24172244b6e"},"onsetDateTime":"2022-01-15T00:00:00+00:00"},"request":{"method":"POST","url":"Condition"}},{"fullUrl":"Condition/46ebd3b9-be53-4108-96a9-2a6085a1b9ac","resource":{"resourceType":"Condition","id":"46ebd3b9-be53-4108-96a9-2a6085a1b9ac","code":{"coding":[{"system":"http://snomed.info/sct","code":"418290006"}]},"subject":{"reference":"Patient/5091b03f-c651-4b7b-88b7-d24172244b6e"},"onsetDateTime":"2022-02-02T00:00:00+00:00"},"request":{"method":"POST","url":"Condition"}},{"fullUrl":"Condition/2b7d41e8-34c2-4d4b-b947-c60f9d74304d","resource":{"resourceType":"Condition","id":"2b7d41e8-34c2-4d4b-b947-c60f9d74304d","code":{"coding":[{"system":"http://snomed.info/sct","code":"386661006"}]},"subject":{"reference":"Patient/5091b03f-c651-4b7b-88b7-d24172244b6e"},"onsetDateTime":"2022-03-12T00:00:00+00:00"},"request":{"method":"POST","url":"Condition"}},{"fullUrl":"Condition/02eee2a2-ed0e-448d-bf9e-8acec858b837","resource":{"resourceType":"Condition","id":"02eee2a2-ed0e-448d-bf9e-8acec858b837","code":{"coding":[{"system":"http://snomed.info/sct","code":"405737000"}]},"subject":{"reference":"Patient/5091b03f-c651-4b7b-88b7-d24172244b6e"},"onsetDateTime":"2022-08-12T00:00:00+00:00"},"request":{"method":"POST","url":"Condition"}},{"fullUrl":"Observation/0e52a5a9-1e27-40b4-89d4-2f2e39ae0a8d","resource":{"resourceType":"Observation","id":"0e52a5a9-1e27-40b4-89d4-2f2e39ae0a8d","status":"final","code":{"coding":[{"system":"http://loinc.org","code":"6690-2"}]},"subject":{"reference":"Patient/5091b03f-c651-4b7b-88b7-d24172244b6e"},"effectiveDateTime":"2022-04-03T00:00:00+00:00","valueQuantity":{"value":4.2}},"request":{"method":"POST","url":"Observation"}},{"fullUrl":"Observation/63e7646a-3397-4804-8c4d-65c87089e838","resource":{"resourceType":"Observation","id":"63e7646a-3397-4804-8c4d-65c87089e838","status":"final","code":{"coding":[{"system":"http://loinc.org","code":"49498-9"}]},"subject":{"reference":"Patient/5091b03f-c651-4b7b-88b7-d24172244b6e"},"effectiveDateTime":"2022-07-10T00:00:00+00:00","valueQuantity":{"value":9.9}},"request":{"method":"POST","url":"Observation"}},{"fullUrl":"Observation/ff6a2bfd-2091-4362-9164-82d91136e86e","resource":{"resourceType":"Observation","id":"ff6a2bfd-2091-4362-9164-82d91136e86e","status":"final","code":{"coding":[{"system":"http://www.ama-assn.org/go/cpt","code":"85048"}]},"subject":{"reference":"Patient/5091b03f-c651-4b7b-88b7-d24172244b6e"},"effectiveDateTime":"2022-01-21T00:00:00+00:00","valueCodeableConcept":{"coding":[{"system":"snomed","code":"123456","display":"fake snomed"}]}},"request":{"method":"POST","url":"Observation"}},{"fullUrl":"Observation/c5b30411-4f86-4530-8496-64d1c04c4210","resource":{"resourceType":"Observation","id":"c5b30411-4f86-4530-8496-64d1c04c4210","status":"final","code":{"coding":[{"system":"http://loinc.org","code":"26464-8"}]},"subject":{"reference":"Patient/5091b03f-c651-4b7b-88b7-d24172244b6e"},"effectiveDateTime":"2022-02-11T00:00:00+00:00","valueCodeableConcept":{"coding":[{"system":"snomed","code":"123456","display":"fake snomed"}]}},"request":{"method":"POST","url":"Observation"}},{"fullUrl":"Observation/765b61c3-087a-422c-aa63-e67190c4a8fc","resource":{"resourceType":"Observation","id":"765b61c3-087a-422c-aa63-e67190c4a8fc","status":"final","code":{"coding":[{"system":"http://loinc.org","code":"6690-2"}]},"subject":{"reference":"Patient/5091b03f-c651-4b7b-88b7-d24172244b6e"},"effectiveDateTime":"2022-01-31T00:00:00+00:00","valueCodeableConcept":{"coding":[{"system":"snomed","code":"123456","display":"fake snomed"}]}},"request":{"method":"POST","url":"Observation"}},{"fullUrl":"Observation/e9eadbf6-80d1-4bde-a749-541b2218ccb0","resource":{"resourceType":"Observation","id":"e9eadbf6-80d1-4bde-a749-541b2218ccb0","status":"final","code":{"coding":[{"system":"http://loinc.org","code":"49498-9"}]},"subject":{"reference":"Patient/5091b03f-c651-4b7b-88b7-d24172244b6e"},"effectiveDateTime":"2022-01-03T00:00:00+00:00"},"request":{"method":"POST","url":"Observation"}},{"fullUrl":"Observation/0e41011d-2d48-4403-a13a-7b211dbc7378","resource":{"resourceType":"Observation","id":"0e41011d-2d48-4403-a13a-7b211dbc7378","status":"final","code":{"coding":[{"system":"http://loinc.org","code":"49498-9"}]},"subject":{"reference":"Patient/5091b03f-c651-4b7b-88b7-d24172244b6e"},"effectiveDateTime":"2022-11-16T00:00:00+00:00"},"request":{"method":"POST","url":"Observation"}},{"fullUrl":"Procedure/2f7d1007-dd15-4c5b-8762-00a500bfeac5","resource":{"resourceType":"Procedure","id":"2f7d1007-dd15-4c5b-8762-00a500bfeac5","status":"completed","code":{"coding":[{"system":"http://snomed.info/sct","code":"146005"}]},"subject":{"reference":"Patient/5091b03f-c651-4b7b-88b7-d24172244b6e"},"performedDateTime":"2022-12-26T00:00:00+00:00"},"request":{"method":"POST","url":"Procedure"}},{"fullUrl":"Procedure/c305e70e-cf0c-4df0-954b-18a73418ccec","resource":{"resourceType":"Procedure","id":"c305e70e-cf0c-4df0-954b-18a73418ccec","status":"completed","code":{"coding":[{"system":"http://snomed.info/sct","code":"115006"}]},"subject":{"reference":"Patient/5091b03f-c651-4b7b-88b7-d24172244b6e"},"performedDateTime":"2022-03-02T00:00:00+00:00"},"request":{"method":"POST","url":"Procedure"}},{"fullUrl":"Procedure/c51069c9-81db-4d62-8822-95715a1e1662","resource":{"resourceType":"Procedure","id":"c51069c9-81db-4d62-8822-95715a1e1662","status":"completed","code":{"coding":[{"system":"http://snomed.info/sct","code":"104001"}]},"subject":{"reference":"Patient/5091b03f-c651-4b7b-88b7-d24172244b6e"},"performedDateTime":"2022-05-07T00:00:00+00:00"},"request":{"method":"POST","url":"Procedure"}},{"fullUrl":"MedicationStatement/9628f993-9b72-4e01-ab39-ac95d1fbabe2","resource":{"resourceType":"MedicationStatement","id":"9628f993-9b72-4e01-ab39-ac95d1fbabe2","status":"completed","medicationCodeableConcept":{"coding":[{"system":"http://www.nlm.nih.gov/research/umls/rxnorm","code":"7984"}]},"subject":{"reference":"Patient/5091b03f-c651-4b7b-88b7-d24172244b6e"},"effectiveDateTime":"2022-11-24T00:00:00+00:00","dosage":[{"doseAndRate":[{"doseQuantity":{"value":1,"unit":"TAB","system":"http://terminology.hl7.org/CodeSystem/v3-orderableDrugForm","code":"TAB"}}]}]},"request":{"method":"POST","url":"MedicationStatement"}},{"fullUrl":"MedicationStatement/720b1bed-1188-4242-a56a-1bd4b50a10bc","resource":{"resourceType":"MedicationStatement","id":"720b1bed-1188-4242-a56a-1bd4b50a10bc","status":"completed","medicationCodeableConcept":{"coding":[{"system":"http://www.nlm.nih.gov/research/umls/rxnorm","code":"8698"}]},"subject":{"reference":"Patient/5091b03f-c651-4b7b-88b7-d24172244b6e"},"effectiveDateTime":"2022-12-12T00:00:00+00:00","dosage":[{"doseAndRate":[{"doseQuantity":{"value":2,"unit":"TAB","system":"http://terminology.hl7.org/CodeSystem/v3-orderableDrugForm","code":"TAB"}}]}]},"request":{"method":"POST","url":"MedicationStatement"}},{"fullUrl":"MedicationStatement/3f91b45f-a4f3-47f4-8d37-446a21b61ded","resource":{"resourceType":"MedicationStatement","id":"3f91b45f-a4f3-47f4-8d37-446a21b61ded","status":"completed","medicationCodeableConcept":{"coding":[{"system":"http://www.nlm.nih.gov/research/umls/rxnorm","code":"2193"}]},"subject":{"reference":"Patient/5091b03f-c651-4b7b-88b7-d24172244b6e"},"effectiveDateTime":"2022-01-13T00:00:00+00:00","dosage":[{"doseAndRate":[{"doseQuantity":{"value":2,"unit":"TAB","system":"http://terminology.hl7.org/CodeSystem/v3-orderableDrugForm","code":"TAB"}}]}]},"request":{"method":"POST","url":"MedicationStatement"}},{"fullUrl":"MedicationStatement/cbb47294-183b-4201-a9b0-d5e0a93592ca","resource":{"resourceType":"MedicationStatement","id":"cbb47294-183b-4201-a9b0-d5e0a93592ca","status":"completed","medicationCodeableConcept":{"coding":[{"system":"http://www.nlm.nih.gov/research/umls/rxnorm","code":"2193"}]},"subject":{"reference":"Patient/5091b03f-c651-4b7b-88b7-d24172244b6e"},"effectiveDateTime":"2022-06-16T00:00:00+00:00","dosage":[{"doseAndRate":[{"doseQuantity":{"value":1,"unit":"TAB","system":"http://terminology.hl7.org/CodeSystem/v3-orderableDrugForm","code":"TAB"}}]}]},"request":{"method":"POST","url":"MedicationStatement"}},{"fullUrl":"MedicationStatement/5ec6b22e-4893-448b-b550-cec998b26573","resource":{"resourceType":"MedicationStatement","id":"5ec6b22e-4893-448b-b550-cec998b26573","status":"completed","medicationCodeableConcept":{"coding":[{"system":"http://www.nlm.nih.gov/research/umls/rxnorm","code":"7980"}]},"subject":{"reference":"Patient/5091b03f-c651-4b7b-88b7-d24172244b6e"},"effectiveDateTime":"2022-09-06T00:00:00+00:00","dosage":[{"doseAndRate":[{"doseQuantity":{"value":2,"unit":"TAB","system":"http://terminology.hl7.org/CodeSystem/v3-orderableDrugForm","code":"TAB"}}]}]},"request":{"method":"POST","url":"MedicationStatement"}},{"fullUrl":"MedicationStatement/a2663b8d-060a-41df-8bc9-d7250ffb602a","resource":{"resourceType":"MedicationStatement","id":"a2663b8d-060a-41df-8bc9-d7250ffb602a","status":"completed","medicationCodeableConcept":{"coding":[{"system":"http://www.nlm.nih.gov/research/umls/rxnorm","code":"8698"}]},"subject":{"reference":"Patient/5091b03f-c651-4b7b-88b7-d24172244b6e"},"effectiveDateTime":"2022-07-30T00:00:00+00:00","dosage":[{"doseAndRate":[{"doseQuantity":{"value":2,"unit":"TAB","system":"http://terminology.hl7.org/CodeSystem/v3-orderableDrugForm","code":"TAB"}}]}]},"request":{"method":"POST","url":"MedicationStatement"}},{"fullUrl":"MedicationStatement/8120b1c0-d401-4e4b-af1e-214e96d9d0b5","resource":{"resourceType":"MedicationStatement","id":"8120b1c0-d401-4e4b-af1e-214e96d9d0b5","status":"completed","medicationCodeableConcept":{"coding":[{"system":"http://www.nlm.nih.gov/research/umls/rxnorm","code":"3640"}]},"subject":{"reference":"Patient/5091b03f-c651-4b7b-88b7-d24172244b6e"},"effectiveDateTime":"2022-05-18T00:00:00+00:00","dosage":[{"doseAndRate":[{"doseQuantity":{"value":6.2,"unit":"TAB","system":"http://terminology.hl7.org/CodeSystem/v3-orderableDrugForm","code":"TAB"}}]}]},"request":{"method":"POST","url":"MedicationStatement"}},{"fullUrl":"MedicationStatement/58b4979f-cb81-44c4-91b4-71cabb1f7028","resource":{"resourceType":"MedicationStatement","id":"58b4979f-cb81-44c4-91b4-71cabb1f7028","status":"completed","medicationCodeableConcept":{"coding":[{"system":"http://www.nlm.nih.gov/research/umls/rxnorm","code":"18631"}]},"subject":{"reference":"Patient/5091b03f-c651-4b7b-88b7-d24172244b6e"},"effectiveDateTime":"2022-04-12T00:00:00+00:00","dosage":[{"doseAndRate":[{"doseQuantity":{"value":5.4,"unit":"TAB","system":"http://terminology.hl7.org/CodeSystem/v3-orderableDrugForm","code":"TAB"}}]}]},"request":{"method":"POST","url":"MedicationStatement"}},{"fullUrl":"MedicationStatement/0aea8d41-850b-4bf2-9b1f-715c5e1e2f91","resource":{"resourceType":"MedicationStatement","id":"0aea8d41-850b-4bf2-9b1f-715c5e1e2f91","status":"completed","medicationCodeableConcept":{"coding":[{"system":"http://www.nlm.nih.gov/research/umls/rxnorm","code":"7980"}]},"subject":{"reference":"Patient/5091b03f-c651-4b7b-88b7-d24172244b6e"},"effectiveDateTime":"2022-05-26T00:00:00+00:00","dosage":[{"doseAndRate":[{"doseQuantity":{"value":5.2,"unit":"TAB","system":"http://terminology.hl7.org/CodeSystem/v3-orderableDrugForm","code":"TAB"}}]}]},"request":{"method":"POST","url":"MedicationStatement"}},{"fullUrl":"MedicationStatement/abe51541-bb41-4c0e-b941-82407abbf570","resource":{"resourceType":"MedicationStatement","id":"abe51541-bb41-4c0e-b941-82407abbf570","status":"completed","medicationCodeableConcept":{"coding":[{"system":"http://www.nlm.nih.gov/research/umls/rxnorm","code":"3640"}]},"subject":{"reference":"Patient/5091b03f-c651-4b7b-88b7-d24172244b6e"},"effectiveDateTime":"2022-02-26T00:00:00+00:00","dosage":[{"doseAndRate":[{"doseQuantity":{"value":5.6,"unit":"TAB","system":"http://terminology.hl7.org/CodeSystem/v3-orderableDrugForm","code":"TAB"}}]}]},"request":{"method":"POST","url":"MedicationStatement"}},{"fullUrl":"MedicationStatement/df850ad5-b706-4a2c-8df1-d361a5a6a27f","resource":{"resourceType":"MedicationStatement","id":"df850ad5-b706-4a2c-8df1-d361a5a6a27f","status":"completed","medicationCodeableConcept":{"coding":[{"system":"http://www.nlm.nih.gov/research/umls/rxnorm","code":"10395"}]},"subject":{"reference":"Patient/5091b03f-c651-4b7b-88b7-d24172244b6e"},"effectiveDateTime":"2022-12-24T00:00:00+00:00","dosage":[{"doseAndRate":[{"doseQuantity":{"value":6,"unit":"TAB","system":"http://terminology.hl7.org/CodeSystem/v3-orderableDrugForm","code":"TAB"}}]}]},"request":{"method":"POST","url":"MedicationStatement"}},{"fullUrl":"MedicationStatement/061cc98d-ba54-495d-87d5-38c91da7d252","resource":{"resourceType":"MedicationStatement","id":"061cc98d-ba54-495d-87d5-38c91da7d252","status":"completed","medicationCodeableConcept":{"coding":[{"system":"http://www.nlm.nih.gov/research/umls/rxnorm","code":"3640"}]},"subject":{"reference":"Patient/5091b03f-c651-4b7b-88b7-d24172244b6e"},"effectiveDateTime":"2022-03-03T00:00:00+00:00","dosage":[{"doseAndRate":[{"doseQuantity":{"value":4,"unit":"TAB","system":"http://terminology.hl7.org/CodeSystem/v3-orderableDrugForm","code":"TAB"}}]}]},"request":{"method":"POST","url":"MedicationStatement"}},{"fullUrl":"MedicationStatement/85c6439b-3bea-4251-836c-da61a66a97ac","resource":{"resourceType":"MedicationStatement","id":"85c6439b-3bea-4251-836c-da61a66a97ac","status":"completed","medicationCodeableConcept":{"coding":[{"system":"http://www.nlm.nih.gov/research/umls/rxnorm","code":"3640"}]},"subject":{"reference":"Patient/5091b03f-c651-4b7b-88b7-d24172244b6e"},"effectiveDateTime":"2022-01-27T00:00:00+00:00","dosage":[{"doseAndRate":[{"doseQuantity":{"value":5.9,"unit":"TAB","system":"http://terminology.hl7.org/CodeSystem/v3-orderableDrugForm","code":"TAB"}}]}]},"request":{"method":"POST","url":"MedicationStatement"}},{"fullUrl":"Encounter/5318c94a-d229-452b-8f44-0e4ce3a433c3","resource":{"resourceType":"Encounter","id":"5318c94a-d229-452b-8f44-0e4ce3a433c3","status":"finished","class":{"system":"http://terminology.hl7.org/CodeSystem/v3-ActCode","code":"IMP","display":"inpatient encounter"},"type":[{"coding":[{"system":"http://terminology.hl7.org/CodeSystem/encounter-type","code":"BD/BM-clin"}]}],"subject":{"reference":"Patient/5091b03f-c651-4b7b-88b7-d24172244b6e"},"period":{"start":"2022-05-05T00:00:00+00:00","end":"2022-05-11T00:00:00+00:00"}},"request":{"method":"POST","url":"Encounter"}},{"fullUrl":"Encounter/475e272d-0c95-4dbf-9665-4bea5be132c0","resource":{"resourceType":"Encounter","id":"475e272d-0c95-4dbf-9665-4bea5be132c0","status":"finished","class":{"system":"http://terminology.hl7.org/CodeSystem/v3-ActCode","code":"IMP","display":"inpatient encounter"},"type":[{"coding":[{"system":"http://terminology.hl7.org/CodeSystem/encounter-type","code":"OKI"}]}],"subject":{"reference":"Patient/5091b03f-c651-4b7b-88b7-d24172244b6e"},"period":{"start":"2022-06-21T00:00:00+00:00","end":"2022-06-28T00:00:00+00:00"}},"request":{"method":"POST","url":"Encounter"}},{"fullUrl":"Encounter/2cb67088-d35e-402b-90e8-2ebf7d927c2b","resource":{"resourceType":"Encounter","id":"2cb67088-d35e-402b-90e8-2ebf7d927c2b","status":"finished","class":{"system":"http://terminology.hl7.org/CodeSystem/v3-ActCode","code":"IMP","display":"inpatient encounter"},"type":[{"coding":[{"system":"http://terminology.hl7.org/CodeSystem/encounter-type","code":"ADMS"}]}],"subject":{"reference":"Patient/5091b03f-c651-4b7b-88b7-d24172244b6e"},"period":{"start":"2022-05-13T00:00:00+00:00","end":"2022-05-14T00:00:00+00:00"}},"request":{"method":"POST","url":"Encounter"}},{"fullUrl":"Encounter/8e77b76a-d058-41a5-962a-5dac0143e2cd","resource":{"resourceType":"Encounter","id":"8e77b76a-d058-41a5-962a-5dac0143e2cd","status":"finished","class":{"system":"http://terminology.hl7.org/CodeSystem/v3-ActCode","code":"VR","display":"virtual"},"type":[{"coding":[{"system":"http://terminology.hl7.org/CodeSystem/encounter-type","code":"OKI"}]}],"subject":{"reference":"Patient/5091b03f-c651-4b7b-88b7-d24172244b6e"},"period":{"start":"2022-01-17T00:00:00+00:00","end":"2022-01-19T00:00:00+00:00"}},"request":{"method":"POST","url":"Encounter"}},{"fullUrl":"Encounter/129f7a58-5c52-45df-8fe1-0b1b1e9a06a5","resource":{"resourceType":"Encounter","id":"129f7a58-5c52-45df-8fe1-0b1b1e9a06a5","status":"finished","class":{"system":"http://terminology.hl7.org/CodeSystem/v3-ActCode","code":"EMER","display":"emergency"},"type":[{"coding":[{"system":"http://terminology.hl7.org/CodeSystem/encounter-type","code":"OKI"}]}],"subject":{"reference":"Patient/5091b03f-c651-4b7b-88b7-d24172244b6e"},"period":{"start":"2022-05-30T00:00:00+00:00","end":"2022-06-06T00:00:00+00:00"}},"request":{"method":"POST","url":"Encounter"}},{"fullUrl":"Encounter/d458d668-13c3-488f-8f33-4f9e38b1b698","resource":{"resourceType":"Encounter","id":"d458d668-13c3-488f-8f33-4f9e38b1b698","status":"finished","class":{"system":"http://terminology.hl7.org/CodeSystem/v3-ActCode","code":"ACUTE","display":"inpatient acute"},"type":[{"coding":[{"system":"http://terminology.hl7.org/CodeSystem/encounter-type","code":"BD/BM-clin"}]}],"subject":{"reference":"Patient/5091b03f-c651-4b7b-88b7-d24172244b6e"},"period":{"start":"2022-05-19T00:00:00+00:00","end":"2022-05-21T00:00:00+00:00"}},"request":{"method":"POST","url":"Encounter"}},{"fullUrl":"Location/9e3af040-9052-40bd-b5fe-29cfa6c3f2dc","resource":{"resourceType":"Location","id":"9e3af040-9052-40bd-b5fe-29cfa6c3f2dc","status":"active","name":"Kelly-Bell","telecom":[{"system":"phone","value":"(175)452-1167","use":"work"}],"address":{"use":"work","line":["2732 White Ways Suite 076"],"city":"Carterfurt","state":"WA","postalCode":"40178"}},"request":{"method":"POST","url":"Location"}},{"fullUrl":"Observation/ff3c0738-42ce-433b-8749-23f70988ee52","resource":{"resourceType":"Observation","id":"ff3c0738-42ce-433b-8749-23f70988ee52","status":"final","code":{"coding":[{"system":"http://loinc.org","code":"81956-5"}]},"subject":{"reference":"Patient/5091b03f-c651-4b7b-88b7-d24172244b6e"},"effectiveDateTime":"2022-10-05T00:00:00+00:00","valueDateTime":"2022-07-23T00:00:00+00:00"},"request":{"method":"POST","url":"Observation"}},{"fullUrl":"Patient/d6577e9e-e010-4daa-88cd-eafb956c2cdb","resource":{"resourceType":"Patient","id":"d6577e9e-e010-4daa-88cd-eafb956c2cdb","identifier":[{"type":{"coding":[{"system":"http://terminology.hl7.org/CodeSystem/v2-0203","code":"MR"}]},"system":"urn:fhirgen:mrn","value":"227-18-8679"},{"system":"http://hl7.org/fhir/sid/us-ssn","value":"853-56-7650"}],"name":[{"use":"official","family":"Barnes","given":["Nichole"]},{"use":"maiden","family":"Beck"}],"telecom":[{"system":"phone","value":"974-056-8955","use":"home"},{"system":"email","value":"melissarose@yahoo.com","use":"mobile"}],"gender":"female","birthDate":"1989-07-27","address":[{"use":"home","line":["631 Schroeder Rest"],"city":"New Michael","state":"ND","postalCode":"88306"},{"use":"old","line":["054 Lopez Union"],"city":"Mendozaburgh","state":"AZ","postalCode":"34677"}],"maritalStatus":{"coding":[{"system":"http://terminology.hl7.org/CodeSystem/v3-MaritalStatus","code":"W","display":"Widowed"}]}},"request":{"method":"POST","url":"Patient"}},{"fullUrl":"Observation/f888eb23-6643-4337-97a1-ce48476e3c41","resource":{"resourceType":"Observation","id":"f888eb23-6643-4337-97a1-ce48476e3c41","status":"final","code":{"coding":[{"system":"http://loinc.org","code":"51475-2"}]},"subject":{"reference":"Patient/d6577e9e-e010-4daa-88cd-eafb956c2cdb"},"effectiveDateTime":"2022-03-20T00:00:00+00:00","valueRatio":{"numerator":{"value":1},"denominator":{"value":4}}},"request":{"method":"POST","url":"Observation"}},{"fullUrl":"Observation/4e26893b-ba2a-439b-8635-9f871c0576d8","resource":{"resourceType":"Observation","id":"4e26893b-ba2a-439b-8635-9f871c0576d8","status":"final","code":{"coding":[{"system":"http://loinc.org","code":"22590-4"}]},"subject":{"reference":"Patient/d6577e9e-e010-4daa-88cd-eafb956c2cdb"},"effectiveDateTime":"2022-12-14T00:00:00+00:00","valueRatio":{"numerator":{"value":1},"denominator":{"value":32}}},"request":{"method":"POST","url":"Observation"}},{"fullUrl":"Condition/e9732a2f-5428-49b8-ab72-01d66694defd","resource":{"resourceType":"Condition","id":"e9732a2f-5428-49b8-ab72-01d66694defd","code":{"coding":[{"system":"http://snomed.info/sct","code":"271807003"}]},"subject":{"reference":"Patient/d6577e9e-e010-4daa-88cd-eafb956c2cdb"},"onsetDateTime":"2022-12-16T00:00:00+00:00"},"request":{"method":"POST","url":"Condition"}},{"fullUrl":"Condition/9fd2b6cb-147a-4f6e-b4d9-0481ce07d94c","resource":{"resourceType":"Condition","id":"9fd2b6cb-147a-4f6e-b4d9-0481ce07d94c","code":{"coding":[{"system":"http://snomed.info/sct","code":"31070006"}]},"subject":{"reference":"Patient/d6577e9e-e010-4daa-88cd-eafb956c2cdb"},"onsetDateTime":"2022-03-23T00:00:00+00:00"},"request":{"method":"POST","url":"Condition"}},{"fullUrl":"Condition/43a32032-a27e-4874-8c60-22f3b375b945","resource":{"resourceType":"Condition","id":"43a32032-a27e-4874-8c60-22f3b375b945","code":{"coding":[{"system":"http://snomed.info/sct","code":"91554004"}]},"subject":{"reference":"Patient/d6577e9e-e010-4daa-88cd-eafb956c2cdb"},"onsetDateTime":"2022-01-05T00:00:00+00:00"},"request":{"method":"POST","url":"Condition"}},{"fullUrl":"Condition/c6a46b19-b48e-4332-a0fc-de23e6f2ffed","resource":{"resourceType":"Condition","id":"c6a46b19-b48e-4332-a0fc-de23e6f2ffed","code":{"coding":[{"system":"http://snomed.info/sct","code":"418290006"}]},"subject":{"reference":"Patient/d6577e9e-e010-4daa-88cd-eafb956c2cdb"},"onsetDateTime":"2022-03-27T00:00:00+00:00"},"request":{"method":"POST","url":"Condition"}},{"fullUrl":"Condition/2506969d-b27e-4f43-804e-43ff282636ed","resource":{"resourceType":"Condition","id":"2506969d-b27e-4f43-804e-43ff282636ed","code":{"coding":[{"system":"http://snomed.info/sct","code":"44882003"}]},"subject":{"reference":"Patient/d6577e9e-e010-4daa-88cd-eafb956c2cdb"},"onsetDateTime":"2022-06-07T00:00:00+00:00"},"request":{"method":"POST","url":"Condition"}},{"fullUrl":"Condition/c074fba4-bbd4-45b4-b165-149491915484","resource":{"resourceType":"Condition","id":"c074fba4-bbd4-45b4-b165-149491915484","code":{"coding":[{"system":"http://snomed.info/sct","code":"709977002"}]},"subject":{"reference":"Patient/d6577e9e-e010-4daa-88cd-eafb956c2cdb"},"onsetDateTime":"2022-07-23T00:00:00+00:00"},"request":{"method":"POST","url":"Condition"}},{"fullUrl":"Observation/dce4fccd-e712-4811-a1ce-9f8d0ec5a0de","resource":{"resourceType":"Observation","id":"dce4fccd-e712-4811-a1ce-9f8d0ec5a0de","status":"final","code":{"coding":[{"system":"http://www.ama-assn.org/go/cpt","code":"85048"}]},"subject":{"reference":"Patient/d6577e9e-e010-4daa-88cd-eafb956c2cdb"},"effectiveDateTime":"2022-08-03T00:00:00+00:00","valueQuantity":{"value":4.9}},"request":{"method":"POST","url":"Observation"}},{"fullUrl":"Observation/8df37315-a3af-44cb-82eb-92b96afa292b","resource":{"resourceType":"Observation","id":"8df37315-a3af-44cb-82eb-92b96afa292b","status":"final","code":{"coding":[{"system":"http://loinc.org","code":"49498-9"}]},"subject":{"reference":"Patient/d6577e9e-e010-4daa-88cd-eafb956c2cdb"},"effectiveDateTime":"2022-01-26T00:00:00+00:00","valueQuantity":{"value":8.4}},"request":{"method":"POST","url":"Observation"}},{"fullUrl":"Observation/ee3cd210-45ef-48b7-a508-4eac4d094e01","resource":{"resourceType":"Observation","id":"ee3cd210-45ef-48b7-a508-4eac4d094e01","status":"final","code":{"coding":[{"system":"http://loinc.org","code":"6690-2"}]},"subject":{"reference":"Patient/d6577e9e-e010-4daa-88cd-eafb956c2cdb"},"effectiveDateTime":"2022-06-05T00:00:00+00:00","valueQuantity":{"value":5.2}},"request":{"method":"POST","url":"Observation"}},{"fullUrl":"Observation/ae4bb598-64a4-4827-8fcb-6f038d829a4a","resource":{"resourceType":"Observation","id":"ae4bb598-64a4-4827-8fcb-6f038d829a4a","status":"final","code":{"coding":[{"system":"http://loinc.org","code":"26464-8"}]},"subject":{"reference":"Patient/d6577e9e-e010-4daa-88cd-eafb956c2cdb"},"effectiveDateTime":"2022-07-10T00:00:00+00:00","valueCodeableConcept":{"coding":[{"system":"snomed","code":"123456","display":"fake snomed"}]}},"request":{"method":"POST","url":"Observation"}},{"fullUrl":"Observation/668b1540-b9a7-48e3-bfb0-90029984ef98","resource":{"resourceType":"Observation","id":"668b1540-b9a7-48e3-bfb0-90029984ef98","status":"final","code":{"coding":[{"system":"http://loinc.org","code":"804-5"}]},"subject":{"reference":"Patient/d6577e9e-e010-4daa-88cd-eafb956c2cdb"},"effectiveDateTime":"2022-05-31T00:00:00+00:00","valueCodeableConcept":{"coding":[{"system":"snomed","code":"123456","display":"fake snomed"}]}},"request":{"method":"POST","url":"Observation"}},{"fullUrl":"Observation/ee064c3f-fb3f-4a35-8f4d-6d0091ab8187","resource":{"resourceType":"Observation","id":"ee064c3f-fb3f-4a35-8f4d-6d0091ab8187","status":"final","code":{"coding":[{"system":"http://loinc.org","code":"49498-9"}]},"subject":{"reference":"Patient/d6577e9e-e010-4daa-88cd-eafb956c2cdb"},"effectiveDateTime":"2022-09-04T00:00:00+00:00"},"request":{"method":"POST","url":"Observation"}},{"fullUrl":"Observation/86112c42-4db7-4327-82f1-e160e69aa79a","resource":{"resourceType":"Observation","id":"86112c42-4db7-4327-82f1-e160e69aa79a","status":"final","code":{"coding":[{"system":"http://loinc.org","code":"49498-9"}]},"subject":{"reference":"Patient/d6577e9e-e010-4daa-88cd-eafb956c2cdb"},"effectiveDateTime":"2022-11-04T00:00:00+00:00"},"request":{"method":"POST","url":"Observation"}},{"fullUrl":"Observation/607ba0a6-1197-4bae-b80f-df1df7c95989","resource":{"resourceType":"Observation","id":"607ba0a6-1197-4bae-b80f-df1df7c95989","status":"final","code":{"coding":[{"system":"http://loinc.org","code":"49498-9"}]},"subject":{"reference":"Patient/d6577e9e-e010-4daa-88cd-eafb956c2cdb"},"effectiveDateTime":"2022-10-10T00:00:00+00:00"},"request":{"method":"POST","url":"Observation"}},{"fullUrl":"Procedure/afb9dcc5-31d8-464c-ad74-90f429d285f5","resource":{"resourceType":"Procedure","id":"afb9dcc5-31d8-464c-ad74-90f429d285f5","status":"completed","code":{"coding":[{"system":"http://snomed.info/sct","code":"104001"}]},"subject":{"reference":"Patient/d6577e9e-e010-4daa-88cd-eafb956c2cdb"},"performedDateTime":"2022-08-25T00:00:00+00:00"},"request":{"method":"POST","url":"Procedure"}},{"fullUrl":"Procedure/03adfe37-810f-41f6-b979-5d13dca5a5e9","resource":{"resourceType":"Procedure","id":"03adfe37-810f-41f6-b979-5d13dca5a5e9","status":"completed","code":{"coding":[{"system":"http://snomed.info/sct","code":"146005"}]},"subject":{"reference":"Patient/d6577e9e-e010-4daa-88cd-eafb956c2cdb"},"performedDateTime":"2022-06-13T00:00:00+00:00"},"request":{"method":"POST","url":"Procedure"}},{"fullUrl":"Procedure/12b07387-bf44-4492-95db-d5db473420de","resource":{"resourceType":"Procedure","id":"12b07387-bf44-4492-95db-d5db473420de","status":"completed","code":{"coding":[{"system":"http://snomed.info/sct","code":"146005"}]},"subject":{"reference":"Patient/d6577e9e-e010-4daa-88cd-eafb956c2cdb"},"performedDateTime":"2022-05-15T00:00:00+00:00"},"request":{"method":"POST","url":"Procedure"}},{"fullUrl":"MedicationStatement/15cb700f-bd1e-4bfc-87a7-1394089e299f","resource":{"resourceType":"MedicationStatement","id":"15cb700f-bd1e-4bfc-87a7-1394089e299f","status":"completed","medicationCodeableConcept":{"coding":[{"system":"http://www.nlm.nih.gov/research/umls/rxnorm","code":"10395"}]},"subject":{"reference":"Patient/d6577e9e-e010-4daa-88cd-eafb956c2cdb"},"effectiveDateTime":"2022-10-02T00:00:00+00:00","dosage":[{"doseAndRate":[{"doseQuantity":{"value":2,"unit":"TAB","system":"http://terminology.hl7.org/CodeSystem/v3-orderableDrugForm","code":"TAB"}}]}]},"request":{"method":"POST","url":"MedicationStatement"}},{"fullUrl":"MedicationStatement/cbaac760-93b8-4bda-b087-8adf1561a412","resource":{"resourceType":"MedicationStatement","id":"cbaac760-93b8-4bda-b087-8adf1561a412","status":"completed","medicationCodeableConcept":{"coding":[{"system":"http://www.nlm.nih.gov/research/umls/rxnorm","code":"7980"}]},"subject":{"reference":"Patient/d6577e9e-e010-4daa-88cd-eafb956c2cdb"},"effectiveDateTime":"2022-10-27T00:00:00+00:00","dosage":[{"doseAndRate":[{"doseQuantity":{"value":2,"unit":"TAB","system":"http://terminology.hl7.org/CodeSystem/v3-orderableDrugForm","code":"TAB"}}]}]},"request":{"method":"POST","url":"MedicationStatement"}},{"fullUrl":"MedicationStatement/b8926ded-d67f-460e-ad51-825d1ed7d721","resource":{"resourceType":"MedicationStatement","id":"b8926ded-d67f-460e-ad51-825d1ed7d721","status":"completed","medicationCodeableConcept":{"coding":[{"system":"http://www.nlm.nih.gov/research/umls/rxnorm","code":"18631"}]},"subject":{"reference":"Patient/d6577e9e-e010-4daa-88cd-eafb956c2cdb"},"effectiveDateTime":"2022-12-09T00:00:00+00:00","dosage":[{"doseAndRate":[{"doseQuantity":{"value":2,"unit":"TAB","system":"http://terminology.hl7.org/CodeSystem/v3-orderableDrugForm","code":"TAB"}}]}]},"request":{"method":"POST","url":"MedicationStatement"}},{"fullUrl":"MedicationStatement/cebb36d5-efd6-4675-b76d-88227b000dfe","resource":{"resourceType":"MedicationStatement","id":"cebb36d5-efd6-4675-b76d-88227b000dfe","status":"completed","medicationCodeableConcept":{"coding":[{"system":"http://www.nlm.nih.gov/research/umls/rxnorm","code":"2193"}]},"subject":{"reference":"Patient/d6577e9e-e010-4daa-88cd-eafb956c2cdb"},"effectiveDateTime":"2022-06-30T00:00:00+00:00","dosage":[{"doseAndRate":[{"doseQuantity":{"value":1,"unit":"TAB","system":"http://terminology.hl7.org/CodeSystem/v3-orderableDrugForm","code":"TAB"}}]}]},"request":{"method":"POST","url":"MedicationStatement"}},{"fullUrl":"MedicationStatement/c8ed7e53-7d9d-4c53-9895-7ba6394f73ce","resource":{"resourceType":"MedicationStatement","id":"c8ed7e53-7d9d-4c53-9895-7ba6394f73ce","status":"completed","medicationCodeableConcept":{"coding":[{"system":"http://www.nlm.nih.gov/research/umls/rxnorm","code":"8698"}]},"subject":{"reference":"Patient/d6577e9e-e010-4daa-88cd-eafb956c2cdb"},"effectiveDateTime":"2022-01-20T00:00:00+00:00","dosage":[{"doseAndRate":[{"doseQuantity":{"value":2,"unit":"TAB","system":"http://terminology.hl7.org/CodeSystem/v3-orderableDrugForm","code":"TAB"}}]}]},"request":{"method":"POST","url":"MedicationStatement"}},{"fullUrl":"MedicationStatement/83263075-8267-43a5-bfd3-68639efb0869","resource":{"resourceType":"MedicationStatement","id":"83263075-8267-43a5-bfd3-68639efb0869","status":"completed","medicationCodeableConcept":{"coding":[{"system":"http://www.nlm.nih.gov/research/umls/rxnorm","code":"8698"}]},"subject":{"reference":"Patient/d6577e9e-e010-4daa-88cd-eafb956c2cdb"},"effectiveDateTime":"2022-12-28T00:00:00+00:00","dosage":[{"doseAndRate":[{"doseQuantity":{"value":2,"unit":"TAB","system":"http://terminology.hl7.org/CodeSystem/v3-orderableDrugForm","code":"TAB"}}]}]},"request":{"method":"POST","url":"MedicationStatement"}},{"fullUrl":"MedicationStatement/5e0be46b-7629-4bc2-ab18-e6c581059c3b","resource":{"resourceType":"MedicationStatement","id":"5e0be46b-7629-4bc2-ab18-e6c581059c3b","status":"completed","medicationCodeableConcept":{"coding":[{"system":"http://www.nlm.nih.gov/research/umls/rxnorm","code":"2193"}]},"subject":{"reference":"Patient/d6577e9e-e010-4daa-88cd-eafb956c2cdb"},"effectiveDateTime":"2022-02-26T00:00:00+00:00","dosage":[{"doseAndRate":[{"doseQuantity":{"value":2,"unit":"TAB","system":"http://terminology.hl7.org/CodeSystem/v3-orderableDrugForm","code":"TAB"}}]}]},"request":{"method":"POST","url":"MedicationStatement"}},{"fullUrl":"MedicationStatement/9c47ba90-499b-4087-9c41-a030ce0770c7","resource":{"resourceType":"MedicationStatement","id":"9c47ba90-499b-4087-9c41-a030ce0770c7","status":"completed","medicationCodeableConcept":{"coding":[{"system":"http://www.nlm.nih.gov/research/umls/rxnorm","code":"2193"}]},"subject":{"reference":"Patient/d6577e9e-e010-4daa-88cd-eafb956c2cdb"},"effectiveDateTime":"2022-03-05T00:00:00+00:00","dosage":[{"doseAndRate":[{"doseQuantity":{"value":2,"unit":"TAB","system":"http://terminology.hl7.org/CodeSystem/v3-orderableDrugForm","code":"TAB"}}]}]},"request":{"method":"POST","url":"MedicationStatement"}},{"fullUrl":"MedicationStatement/5ac0db1a-7f84-4d2d-8252-9561927e9968","resource":{"resourceType":"MedicationStatement","id":"5ac0db1a-7f84-4d2d-8252-9561927e9968","status":"completed","medicationCodeableConcept":{"coding":[{"system":"http://www.nlm.nih.gov/research/umls/rxnorm","code":"10395"}]},"subject":{"reference":"Patient/d6577e9e-e010-4daa-88cd-eafb956c2cdb"},"effectiveDateTime":"2022-12-03T00:00:00+00:00","dosage":[{"doseAndRate":[{"doseQuantity":{"value":3.9,"unit":"TAB","system":"http://terminology.hl7.org/CodeSystem/v3-orderableDrugForm","code":"TAB"}}]}]},"request":{"method":"POST","url":"MedicationStatement"}},{"fullUrl":"MedicationStatement/ac059fe3-fc53-4d3c-b281-dee01fa8495a","resource":{"resourceType":"MedicationStatement","id":"ac059fe3-fc53-4d3c-b281-dee01fa8495a","status":"completed","medicationCodeableConcept":{"coding":[{"system":"http://www.nlm.nih.gov/research/umls/rxnorm","code":"8698"}]},"subject":{"reference":"Patient/d6577e9e-e010-4daa-88cd-eafb956c2cdb"},"effectiveDateTime":"2022-07-10T00:00:00+00:00","dosage":[{"doseAndRate":[{"doseQuantity":{"value":4.4,"unit":"TAB","system":"http://terminology.hl7.org/CodeSystem/v3-orderableDrugForm","code":"TAB"}}]}]},"request":{"method":"POST","url":"MedicationStatement"}},{"fullUrl":"MedicationStatement/a430f791-99c9-4b96-9748-dfbdc6afb2d0","resource":{"resourceType":"MedicationStatement","id":"a430f791-99c9-4b96-9748-dfbdc6afb2d0","status":"completed","medicationCodeableConcept":{"coding":[{"system":"http://www.nlm.nih.gov/research/umls/rxnorm","code":"8698"}]},"subject":{"reference":"Patient/d6577e9e-e010-4daa-88cd-eafb956c2cdb"},"effectiveDateTime":"2022-07-20T00:00:00+00:00","dosage":[{"doseAndRate":[{"doseQuantity":{"value":6.2,"unit":"TAB","system":"http://terminology.hl7.org/CodeSystem/v3-orderableDrugForm","code":"TAB"}}]}]},"request":{"method":"POST","url":"MedicationStatement"}},{"fullUrl":"Encounter/bfb46ac8-67f2-4997-b976-27a897de7081","resource":{"resourceType":"Encounter","id":"bfb46ac8-67f2-4997-b976-27a897de7081","status":"finished","class":{"system":"http://terminology.hl7.org/CodeSystem/v3-ActCode","code":"IMP","display":"inpatient encounter"},"type":[{"coding":[{"system":"http://terminology.hl7.org/CodeSystem/encounter-type","code":"ADMS"}]}],"subject":{"reference":"Patient/d6577e9e-e010-4daa-88cd-eafb956c2cdb"},"period":{"start":"2022-04-05T00:00:00+00:00","end":"2022-04-10T00:00:00+00:00"}},"request":{"method":"POST","url":"Encounter"}},{"fullUrl":"Encounter/0e850457-03f2-45fb-b55d-bf6314b53b6d","resource":{"resourceType":"Encounter","id":"0e850457-03f2-45fb-b55d-bf6314b53b6d","status":"finished","class":{"system":"http://terminology.hl7.org/CodeSystem/v3-ActCode","code":"IMP","display":"inpatient encounter"},"type":[{"coding":[{"system":"http://terminology.hl7.org/CodeSystem/encounter-type","code":"CCS60"}]}],"subject":{"reference":"Patient/d6577e9e-e010-4daa-88cd-eafb956c2cdb"},"period":{"start":"2022-01-17T00:00:00+00:00","end":"2022-01-17T00:00:00+00:00"}},"request":{"method":"POST","url":"Encounter"}},{"fullUrl":"Encounter/a0f25dca-4608-4ebe-9981-ab19dbaf54d4","resource":{"resourceType":"Encounter","id":"a0f25dca-4608-4ebe-9981-ab19dbaf54d4","status":"finished","class":{"system":"http://terminology.hl7.org/CodeSystem/v3-ActCode","code":"IMP","display":"inpatient encounter"},"type":[{"coding":[{"system":"http://terminology.hl7.org/CodeSystem/encounter-type","code":"OKI"}]}],"subject":{"reference":"Patient/d6577e9e-e010-4daa-88cd-eafb956c2cdb"},"period":{"start":"2022-10-21T00:00:00+00:00","end":"2022-10-27T00:00:00+00:00"}},"request":{"method":"POST","url":"Encounter"}},{"fullUrl":"Encounter/75634abb-4b79-4485-9c63-c255b97d121d","resource":{"resourceType":"Encounter","id":"75634abb-4b79-4485-9c63-c255b97d121d","status":"finished","class":{"system":"http://terminology.hl7.org/CodeSystem/v3-ActCode","code":"EMER","display":"emergency"},"type":[{"coding":[{"system":"http://terminology.hl7.org/CodeSystem/encounter-type","code":"CCS60"}]}],"subject":{"reference":"Patient/d6577e9e-e010-4daa-88cd-eafb956c2cdb"},"period":{"start":"2022-08-05T00:00:00+00:00","end":"2022-08-12T00:00:00+00:00"}},"request":{"method":"POST","url":"Encounter"}},{"fullUrl":"Encounter/46d10edc-e482-4ee8-8d99-e0b807ca4194","resource":{"resourceType":"Encounter","id":"46d10edc-e482-4ee8-8d99-e0b807ca4194","status":"finished","class":{"system":"http://terminology.hl7.org/CodeSystem/v3-ActCode","code":"OBSENC","display":"observation encounter"},"type":[{"coding":[{"system":"http://terminology.hl7.org/CodeSystem/encounter-type","code":"CCS60"}]}],"subject":{"reference":"Patient/d6577e9e-e010-4daa-88cd-eafb956c2cdb"},"period":{"start":"2022-07-31T00:00:00+00:00","end":"2022-08-04T00:00:00+00:00"}},"request":{"method":"POST","url":"Encounter"}},{"fullUrl":"Encounter/bee49ad8-6085-42f4-8387-06bc44d3e694","resource":{"resourceType":"Encounter","id":"bee49ad8-6085-42f4-8387-06bc44d3e694","status":"finished","class":{"system":"http://terminology.hl7.org/CodeSystem/v3-ActCode","code":"SS","display":"short-stay"},"type":[{"coding":[{"system":"http://terminology.hl7.org/CodeSystem/encounter-type","code":"ADMS"}]}],"subject":{"reference":"Patient/d6577e9e-e010-4daa-88cd-eafb956c2cdb"},"period":{"start":"2022-07-16T00:00:00+00:00","end":"2022-07-22T00:00:00+00:00"}},"request":{"method":"POST","url":"Encounter"}},{"fullUrl":"Location/f387c8ed-f651-453e-9c7d-b9b3ad5c41a3","resource":{"resourceType":"Location","id":"f387c8ed-f651-453e-9c7d-b9b3ad5c41a3","status":"active","name":"Wright Inc","telecom":[{"system":"phone","value":"(668)662-9145x8970","use":"work"}],"address":{"use":"work","line":["281 Allen Fort"],"city":"New Christopherborough","state":"CA","postalCode":"13776"}},"request":{"method":"POST","url":"Location"}},{"fullUrl":"Observation/89fda0fb-40d2-4643-9c1b-1d2b7e6c540d","resource":{"resourceType":"Observation","id":"89fda0fb-40d2-4643-9c1b-1d2b7e6c540d","status":"final","code":{"coding":[{"system":"http://loinc.org","code":"81956-5"}]},"subject":{"reference":"Patient/d6577e9e-e010-4daa-88cd-eafb956c2cdb"},"effectiveDateTime":"2022-06-06T00:00:00+00:00","valueDateTime":"2022-05-10T00:00:00+00:00"},"request":{"method":"POST","url":"Observation"}},{"fullUrl":"Patient/c75df8c6-7750-4b91-abc6-fbcf13b3033f","resource":{"resourceType":"Patient","id":"c75df8c6-7750-4b91-abc6-fbcf13b3033f","identifier":[{"type":{"coding":[{"system":"http://terminology.hl7.org/CodeSystem/v2-0203","code":"MR"}]},"system":"urn:fhirgen:mrn","value":"122-68-3118"},{"system":"http://hl7.org/fhir/sid/us-ssn","value":"479-22-1004"}],"name":[{"use":"official","family":"Brown","given":["Karen"]},{"use":"maiden","family":"Morrow"}],"telecom":[{"system":"phone","value":"507.375.0491x72519","use":"work"},{"system":"email","value":"joseph46@yahoo.com","use":"mobile"}],"gender":"other","birthDate":"1966-04-07","address":[{"use":"home","line":["454 Beverly Harbor"],"city":"Lake Sara","state":"GA","postalCode":"95169"},{"use":"old","line":["263 York Canyon Apt. 465"],"city":"Lake Jesusshire","state":"MT","postalCode":"86408"}],"maritalStatus":{"coding":[{"system":"http://terminology.hl7.org/CodeSystem/v3-MaritalStatus","code":"P","display":"Polygamous"}]}},"request":{"method":"POST","url":"Patient"}},{"fullUrl":"Observation/d2bd0ae5-33f5-46af-b59b-ca701659ec88","resource":{"resourceType":"Observation","id":"d2bd0ae5-33f5-46af-b59b-ca701659ec88","status":"final","code":{"coding":[{"system":"http://loinc.org","code":"50690-7"}]},"subject":{"reference":"Patient/c75df8c6-7750-4b91-abc6-fbcf13b3033f"},"effectiveDateTime":"2022-06-07T00:00:00+00:00","valueRatio":{"numerator":{"value":1},"denominator":{"value":32}}},"request":{"method":"POST","url":"Observation"}},{"fullUrl":"Observation/7c8b2f74-4f88-478e-a5c5-c13aa6a71ae7","resource":{"resourceType":"Observation","id":"7c8b2f74-4f88-478e-a5c5-c13aa6a71ae7","status":"final","code":{"coding":[{"system":"http://loinc.org","code":"22590-4"}]},"subject":{"reference":"Patient/c75df8c6-7750-4b91-abc6-fbcf13b3033f"},"effectiveDateTime":"2022-10-13T00:00:00+00:00","valueRatio":{"numerator":{"value":1},"denominator":{"value":4}}},"request":{"method":"POST","url":"Observation"}},{"fullUrl":"Condition/0d277735-0a40-48bf-bf2d-7c4afa35236e","resource":{"resourceType":"Condition","id":"0d277735-0a40-48bf-bf2d-7c4afa35236e","code":{"coding":[{"system":"http://snomed.info/sct","code":"31070006"}]},"subject":{"reference":"Patient/c75df8c6-7750-4b91-abc6-fbcf13b3033f"},"onsetDateTime":"2022-03-10T00:00:00+00:00"},"request":{"method":"POST","url":"Condition"}},{"fullUrl":"Condition/63fd5c54-5ffa-4f09-a75e-874f85f5f148","resource":{"resourceType":"Condition","id":"63fd5c54-5ffa-4f09-a75e-874f85f5f148","code":{"coding":[{"system":"http://snomed.info/sct","code":"297123002"}]},"subject":{"reference":"Patient/c75df8c6-7750-4b91-abc6-fbcf13b3033f"},"onsetDateTime":"2022-11-20T00:00:00+00:00"},"request":{"method":"POST","url":"Condition"}},{"fullUrl":"Condition/43e424f0-0521-42d2-a297-95b54de08081","resource":{"resourceType":"Condition","id":"43e424f0-0521-42d2-a297-95b54de08081","code":{"coding":[{"system":"http://snomed.info/sct","code":"30746006"}]},"subject":{"reference":"Patient/c75df8c6-7750-4b91-abc6-fbcf13b3033f"},"onsetDateTime":"2022-07-28T00:00:00+00:00"},"request":{"method":"POST","url":"Condition"}},{"fullUrl":"Condition/15064bae-0a7e-4998-ac94-0ada2914ef19","resource":{"resourceType":"Condition","id":"15064bae-0a7e-4998-ac94-0ada2914ef19","code":{"coding":[{"system":"http://snomed.info/sct","code":"709977002"}]},"subject":{"reference":"Patient/c75df8c6-7750-4b91-abc6-fbcf13b3033f"},"onsetDateTime":"2022-04-16T00:00:00+00:00"},"request":{"method":"POST","url":"Condition"}},{"fullUrl":"Observation/9b407426-c08b-433c-9f55-98e4c4080f80","resource":{"resourceType":"Observation","id":"9b407426-c08b-433c-9f55-98e4c4080f80","status":"final","code":{"coding":[{"system":"http://loinc.org","code":"804-5"}]},"subject":{"reference":"Patient/c75df8c6-7750-4b91-abc6-fbcf13b3033f"},"effectiveDateTime":"2022-06-18T00:00:00+00:00","valueQuantity":{"value":10.8}},"request":{"method":"POST","url":"Observation"}},{"fullUrl":"Observation/eba2a16f-cc47-44ec-92d3-5df4870e4eed","resource":{"resourceType":"Observation","id":"eba2a16f-cc47-44ec-92d3-5df4870e4eed","status":"final","code":{"coding":[{"system":"http://www.ama-assn.org/go/cpt","code":"85048"}]},"subject":{"reference":"Patient/c75df8c6-7750-4b91-abc6-fbcf13b3033f"},"effectiveDateTime":"2022-11-16T00:00:00+00:00","valueQuantity":{"value":8.7}},"request":{"method":"POST","url":"Observation"}},{"fullUrl":"Observation/9a95652d-3b57-4b64-a0ef-c82da9bb40c8","resource":{"resourceType":"Observation","id":"9a95652d-3b57-4b64-a0ef-c82da9bb40c8","status":"final","code":{"coding":[{"system":"http://loinc.org","code":"49498-9"}]},"subject":{"reference":"Patient/c75df8c6-7750-4b91-abc6-fbcf13b3033f"},"effectiveDateTime":"2022-12-26T00:00:00+00:00","valueQuantity":{"value":5}},"request":{"method":"POST","url":"Observation"}},{"fullUrl":"Observation/78b97b92-1fe6-4d63-aadd-dc0a1484cf86","resource":{"resourceType":"Observation","id":"78b97b92-1fe6-4d63-aadd-dc0a1484cf86","status":"final","code":{"coding":[{"system":"http://loinc.org","code":"6690-2"}]},"subject":{"reference":"Patient/c75df8c6-7750-4b91-abc6-fbcf13b3033f"},"effectiveDateTime":"2022-08-30T00:00:00+00:00","valueCodeableConcept":{"coding":[{"system":"snomed","code":"123456","display":"fake snomed"}]}},"request":{"method":"POST","url":"Observation"}},{"fullUrl":"Observation/5ecd4ee1-68f0-47a6-ac9f-e23c8bdcf0e5","resource":{"resourceType":"Observation","id":"5ecd4ee1-68f0-47a6-ac9f-e23c8bdcf0e5","status":"final","code":{"coding":[{"system":"http://loinc.org","code":"49498-9"}]},"subject":{"reference":"Patient/c75df8c6-7750-4b91-abc6-fbcf13b3033f"},"effectiveDateTime":"2022-08-04T00:00:00+00:00","valueCodeableConcept":{"coding":[{"system":"snomed","code":"123456","display":"fake snomed"}]}},"request":{"method":"POST","url":"Observation"}},{"fullUrl":"Observation/2d85671b-c61e-4543-a7f8-56fb6e5685e7","resource":{"resourceType":"Observation","id":"2d85671b-c61e-4543-a7f8-56fb6e5685e7","status":"final","code":{"coding":[{"system":"http://www.ama-assn.org/go/cpt","code":"85048"}]},"subject":{"reference":"Patient/c75df8c6-7750-4b91-abc6-fbcf13b3033f"},"effectiveDateTime":"2022-02-28T00:00:00+00:00","valueCodeableConcept":{"coding":[{"system":"snomed","code":"123456","display":"fake snomed"}]}},"request":{"method":"POST","url":"Observation"}},{"fullUrl":"Observation/ebc0b4f0-73c1-4766-82a5-270c45aa5d9a","resource":{"resourceType":"Observation","id":"ebc0b4f0-73c1-4766-82a5-270c45aa5d9a","status":"final","code":{"coding":[{"system":"http://loinc.org","code":"49498-9"}]},"subject":{"reference":"Patient/c75df8c6-7750-4b91-abc6-fbcf13b3033f"},"effectiveDateTime":"2022-01-06T00:00:00+00:00"},"request":{"method":"POST","url":"Observation"}},{"fullUrl":"Observation/053a6e52-7015-457d-bfee-7392a215efd3","resource":{"resourceType":"Observation","id":"053a6e52-7015-457d-bfee-7392a215efd3","status":"final","code":{"coding":[{"system":"http://loinc.org","code":"49498-9"}]},"subject":{"reference":"Patient/c75df8c6-7750-4b91-abc6-fbcf13b3033f"},"effectiveDateTime":"2022-09-26T00:00:00+00:00"},"request":{"method":"POST","url":"Observation"}},{"fullUrl":"Procedure/3f763687-60dd-4d6c-a8df-ae2ba9807549","resource":{"resourceType":"Procedure","id":"3f763687-60dd-4d6c-a8df-ae2ba9807549","status":"completed","code":{"coding":[{"system":"http://snomed.info/sct","code":"104001"}]},"subject":{"reference":"Patient/c75df8c6-7750-4b91-abc6-fbcf13b3033f"},"performedDateTime":"2022-03-23T00:00:00+00:00"},"request":{"method":"POST","url":"Procedure"}},{"fullUrl":"Procedure/df82a4ac-248c-4f52-af16-d5fdb09324a6","resource":{"resourceType":"Procedure","id":"df82a4ac-248c-4f52-af16-d5fdb09324a6","status":"completed","code":{"coding":[{"system":"http://snomed.info/sct","code":"189009"}]},"subject":{"reference":"Patient/c75df8c6-7750-4b91-abc6-fbcf13b3033f"},"performedDateTime":"2022-05-23T00:00:00+00:00"},"request":{"method":"POST","url":"Procedure"}},{"fullUrl":"Procedure/82b6f939-0ae0-4152-9f3c-e434f2ee1a21","resource":{"resourceType":"Procedure","id":"82b6f939-0ae0-4152-9f3c-e434f2ee1a21","status":"completed","code":{"coding":[{"system":"http://snomed.info/sct","code":"189009"}]},"subject":{"reference":"Patient/c75df8c6-7750-4b91-abc6-fbcf13b3033f"},"performedDateTime":"2022-09-30T00:00:00+00:00"},"request":{"method":"POST","url":"Procedure"}},{"fullUrl":"MedicationStatement/6a716c41-9fb8-42cb-942c-628449e5606f","resource":{"resourceType":"MedicationStatement","id":"6a716c41-9fb8-42cb-942c-628449e5606f","status":"completed","medicationCodeableConcept":{"coding":[{"system":"http://www.nlm.nih.gov/research/umls/rxnorm","code":"3640"}]},"subject":{"reference":"Patient/c75df8c6-7750-4b91-abc6-fbcf13b3033f"},"effectiveDateTime":"2022-05-04T00:00:00+00:00","dosage":[{"doseAndRate":[{"doseQuantity":{"value":1,"unit":"TAB","system":"http://terminology.hl7.org/CodeSystem/v3-orderableDrugForm","code":"TAB"}}]}]},"request":{"method":"POST","url":"MedicationStatement"}},{"fullUrl":"MedicationStatement/1db4df5c-c7e2-4887-b692-133e5befa019","resource":{"resourceType":"MedicationStatement","id":"1db4df5c-c7e2-4887-b692-133e5befa019","status":"completed","medicationCodeableConcept":{"coding":[{"system":"http://www.nlm.nih.gov/research/umls/rxnorm","code":"8698"}]},"subject":{"reference":"Patient/c75df8c6-7750-4b91-abc6-fbcf13b3033f"},"effectiveDateTime":"2022-11-30T00:00:00+00:00","dosage":[{"doseAndRate":[{"doseQuantity":{"value":2,"unit":"TAB","system":"http://terminology.hl7.org/CodeSystem/v3-orderableDrugForm","code":"TAB"}}]}]},"request":{"method":"POST","url":"MedicationStatement"}},{"fullUrl":"MedicationStatement/e97956ad-8efa-4618-8e3a-7543303d2216","resource":{"resourceType":"MedicationStatement","id":"e97956ad-8efa-4618-8e3a-7543303d2216","status":"completed","medicationCodeableConcept":{"coding":[{"system":"http://www.nlm.nih.gov/research/umls/rxnorm","code":"3640"}]},"subject":{"reference":"Patient/c75df8c6-7750-4b91-abc6-fbcf13b3033f"},"effectiveDateTime":"2022-04-20T00:00:00+00:00","dosage":[{"doseAndRate":[{"doseQuantity":{"value":2,"unit":"TAB","system":"http://terminology.hl7.org/CodeSystem/v3-orderableDrugForm","code":"TAB"}}]}]},"request":{"method":"POST","url":"MedicationStatement"}},{"fullUrl":"MedicationStatement/c76c7d93-7f07-4106-8ae3-4e5e5f708974","resource":{"resourceType":"MedicationStatement","id":"c76c7d93-7f07-4106-8ae3-4e5e5f708974","status":"completed","medicationCodeableConcept":{"coding":[{"system":"http://www.nlm.nih.gov/research/umls/rxnorm","code":"3640"}]},"subject":{"reference":"Patient/c75df8c6-7750-4b91-abc6-fbcf13b3033f"},"effectiveDateTime":"2022-07-07T00:00:00+00:00","dosage":[{"doseAndRate":[{"doseQuantity":{"value":6.3,"unit":"TAB","system":"http://terminology.hl7.org/CodeSystem/v3-orderableDrugForm","code":"TAB"}}]}]},"request":{"method":"POST","url":"MedicationStatement"}},{"fullUrl":"MedicationStatement/67054334-7aad-46e4-94c3-d2b9e9bede56","resource":{"resourceType":"MedicationStatement","id":"67054334-7aad-46e4-94c3-d2b9e9bede56","status":"completed","medicationCodeableConcept":{"coding":[{"system":"http://www.nlm.nih.gov/research/umls/rxnorm","code":"3640"}]},"subject":{"reference":"Patient/c75df8c6-7750-4b91-abc6-fbcf13b3033f"},"effectiveDateTime":"2022-09-20T00:00:00+00:00","dosage":[{"doseAndRate":[{"doseQuantity":{"value":3.2,"unit":"TAB","system":"http://terminology.hl7.org/CodeSystem/v3-orderableDrugForm","code":"TAB"}}]}]},"request":{"method":"POST","url":"MedicationStatement"}},{"fullUrl":"MedicationStatement/a2ee7705-c57e-41b3-a3a8-c237d31aa3ea","resource":{"resourceType":"MedicationStatement","id":"a2ee7705-c57e-41b3-a3a8-c237d31aa3ea","status":"completed","medicationCodeableConcept":{"coding":[{"system":"http://www.nlm.nih.gov/research/umls/rxnorm","code":"10395"}]},"subject":{"reference":"Patient/c75df8c6-7750-4b91-abc6-fbcf13b3033f"},"effectiveDateTime":"2022-11-04T00:00:00+00:00","dosage":[{"doseAndRate":[{"doseQuantity":{"value":3.1,"unit":"TAB","system":"http://terminology.hl7.org/CodeSystem/v3-orderableDrugForm","code":"TAB"}}]}]},"request":{"method":"POST","url":"MedicationStatement"}},{"fullUrl":"MedicationStatement/bb4bd1a4-26eb-45d6-b66c-f194dd94ee96","resource":{"resourceType":"MedicationStatement","id":"bb4bd1a4-26eb-45d6-b66c-f194dd94ee96","status":"completed","medicationCodeableConcept":{"coding":[{"system":"http://www.nlm.nih.gov/research/umls/rxnorm","code":"10395"}]},"subject":{"reference":"Patient/c75df8c6-7750-4b91-abc6-fbcf13b3033f"},"effectiveDateTime":"2022-12-25T00:00:00+00:00","dosage":[{"doseAndRate":[{"doseQuantity":{"value":4.1,"unit":"TAB","system":"http://terminology.hl7.org/CodeSystem/v3-orderableDrugForm","code":"TAB"}}]}]},"request":{"method":"POST","url":"MedicationStatement"}},{"fullUrl":"MedicationStatement/4e77e050-27c2-4319-ade0-5cec7bce637b","resource":{"resourceType":"MedicationStatement","id":"4e77e050-27c2-4319-ade0-5cec7bce637b","status":"completed","medicationCodeableConcept":{"coding":[{"system":"http://www.nlm.nih.gov/research/umls/rxnorm","code":"3640"}]},"subject":{"reference":"Patient/c75df8c6-7750-4b91-abc6-fbcf13b3033f"},"effectiveDateTime":"2022-09-03T00:00:00+00:00","dosage":[{"doseAndRate":[{"doseQuantity":{"value":6.2,"unit":"TAB","system":"http://terminology.hl7.org/CodeSystem/v3-orderableDrugForm","code":"TAB"}}]}]},"request":{"method":"POST","url":"MedicationStatement"}},{"fullUrl":"MedicationStatement/c5595093-10ed-468b-ac2f-30720e3d0ea5","resource":{"resourceType":"MedicationStatement","id":"c5595093-10ed-468b-ac2f-30720e3d0ea5","status":"completed","medicationCodeableConcept":{"coding":[{"system":"http://www.nlm.nih.gov/research/umls/rxnorm","code":"18631"}]},"subject":{"reference":"Patient/c75df8c6-7750-4b91-abc6-fbcf13b3033f"},"effectiveDateTime":"2022-01-18T00:00:00+00:00","dosage":[{"doseAndRate":[{"doseQuantity":{"value":6.6,"unit":"TAB","system":"http://terminology.hl7.org/CodeSystem/v3-orderableDrugForm","code":"TAB"}}]}]},"request":{"method":"POST","url":"MedicationStatement"}},{"fullUrl":"MedicationStatement/2456a002-79e2-47f2-a281-443783c37057","resource":{"resourceType":"MedicationStatement","id":"2456a002-79e2-47f2-a281-443783c37057","status":"completed","medicationCodeableConcept":{"coding":[{"system":"http://www.nlm.nih.gov/research/umls/rxnorm","code":"7984"}]},"subject":{"reference":"Patient/c75df8c6-7750-4b91-abc6-fbcf13b3033f"},"effectiveDateTime":"2022-07-10T00:00:00+00:00","dosage":[{"doseAndRate":[{"doseQuantity":{"value":6.9,"unit":"TAB","system":"http://terminology.hl7.org/CodeSystem/v3-orderableDrugForm","code":"TAB"}}]}]},"request":{"method":"POST","url":"MedicationStatement"}},{"fullUrl":"MedicationStatement/4a9a180a-67e3-4484-af84-4a52fd84b512","resource":{"resourceType":"MedicationStatement","id":"4a9a180a-67e3-4484-af84-4a52fd84b512","status":"completed","medicationCodeableConcept":{"coding":[{"system":"http://www.nlm.nih.gov/research/umls/rxnorm","code":"3640"}]},"subject":{"reference":"Patient/c75df8c6-7750-4b91-abc6-fbcf13b3033f"},"effectiveDateTime":"2022-12-11T00:00:00+00:00","dosage":[{"doseAndRate":[{"doseQuantity":{"value":3.9,"unit":"TAB","system":"http://terminology.hl7.org/CodeSystem/v3-orderableDrugForm","code":"TAB"}}]}]},"request":{"method":"POST","url":"MedicationStatement"}},{"fullUrl":"Encounter/1a8ec59b-0be2-477e-84ef-4fcefacee99d","resource":{"resourceType":"Encounter","id":"1a8ec59b-0be2-477e-84ef-4fcefacee99d","status":"finished","class":{"system":"http://terminology.hl7.org/CodeSystem/v3-ActCode","code":"IMP","display":"inpatient encounter"},"type":[{"coding":[{"system":"http://terminology.hl7.org/CodeSystem/encounter-type","code":"ADMS"}]}],"subject":{"reference":"Patient/c75df8c6-7750-4b91-abc6-fbcf13b3033f"},"period":{"start":"2022-07-18T00:00:00+00:00","end":"2022-07-21T00:00:00+00:00"}},"request":{"method":"POST","url":"Encounter"}},{"fullUrl":"Encounter/b3927e03-9844-41d9-ae98-c9a50ba25c68","resource":{"resourceType":"Encounter","id":"b3927e03-9844-41d9-ae98-c9a50ba25c68","status":"finished","class":{"system":"http://terminology.hl7.org/CodeSystem/v3-ActCode","code":"IMP","display":"inpatient encounter"},"type":[{"coding":[{"system":"http://terminology.hl7.org/CodeSystem/encounter-type","code":"CCS60"}]}],"subject":{"reference":"Patient/c75df8c6-7750-4b91-abc6-fbcf13b3033f"},"period":{"start":"2022-09-05T00:00:00+00:00","end":"2022-09-14T00:00:00+00:00"}},"request":{"method":"POST","url":"Encounter"}},{"fullUrl":"Encounter/45be4c72-ae13-4638-b710-552d4b484c3e","resource":{"resourceType":"Encounter","id":"45be4c72-ae13-4638-b710-552d4b484c3e","status":"finished","class":{"system":"http://terminology.hl7.org/CodeSystem/v3-ActCode","code":"IMP","display":"inpatient encounter"},"type":[{"coding":[{"system":"http://terminology.hl7.org/CodeSystem/encounter-type","code":"CCS60"}]}],"subject":{"reference":"Patient/c75df8c6-7750-4b91-abc6-fbcf13b3033f"},"period":{"start":"2022-01-30T00:00:00+00:00","end":"2022-01-31T00:00:00+00:00"}},"request":{"method":"POST","url":"Encounter"}},{"fullUrl":"Encounter/d009cd7a-92e0-4fcc-b80f-5ab7602c5376","resource":{"resourceType":"Encounter","id":"d009cd7a-92e0-4fcc-b80f-5ab7602c5376","status":"finished","class":{"system":"http://terminology.hl7.org/CodeSystem/v3-ActCode","code":"OBSENC","display":"observation encounter"},"type":[{"coding":[{"system":"http://terminology.hl7.org/CodeSystem/encounter-type","code":"CCS60"}]}],"subject":{"reference":"Patient/c75df8c6-7750-4b91-abc6-fbcf13b3033f"},"period":{"start":"2022-01-20T00:00:00+00:00","end":"2022-01-29T00:00:00+00:00"}},"request":{"method":"POST","url":"Encounter"}},{"fullUrl":"Encounter/662292bf-dbed-4d9b-b6ff-8a6ac7f0baaa","resource":{"resourceType":"Encounter","id":"662292bf-dbed-4d9b-b6ff-8a6ac7f0baaa","status":"finished","class":{"system":"http://terminology.hl7.org/CodeSystem/v3-ActCode","code":"AMB","display":"ambulatory"},"type":[{"coding":[{"system":"http://terminology.hl7.org/CodeSystem/encounter-type","code":"CCS60"}]}],"subject":{"reference":"Patient/c75df8c6-7750-4b91-abc6-fbcf13b3033f"},"period":{"start":"2022-01-11T00:00:00+00:00","end":"2022-01-17T00:00:00+00:00"}},"request":{"method":"POST","url":"Encounter"}},{"fullUrl":"Encounter/ab13619e-4861-43a5-a83f-6344d42d46d0","resource":{"resourceType":"Encounter","id":"ab13619e-4861-43a5-a83f-6344d42d46d0","status":"finished","class":{"system":"http://terminology.hl7.org/CodeSystem/v3-ActCode","code":"EMER","display":"emergency"},"type":[{"coding":[{"system":"http://terminology.hl7.org/CodeSystem/encounter-type","code":"OKI"}]}],"subject":{"reference":"Patient/c75df8c6-7750-4b91-abc6-fbcf13b3033f"},"period":{"start":"2022-07-29T00:00:00+00:00","end":"2022-08-07T00:00:00+00:00"}},"request":{"method":"POST","url":"Encounter"}},{"fullUrl":"Location/bdb22692-130d-4840-9170-b31f33b56db4","resource":{"resourceType":"Location","id":"bdb22692-130d-4840-9170-b31f33b56db4","status":"active","name":"Phelps, Schultz and Nicholson","telecom":[{"system":"phone","value":"(464)549-2043x08196","use":"work"}],"address":{"use":"work","line":["797 Cynthia Manor Apt. 563"],"city":"East Lauren","state":"ID","postalCode":"00389"}},"request":{"method":"POST","url":"Location"}},{"fullUrl":"Observation/f0e36c73-ad8e-420f-a413-01ba91783fff","resource":{"resourceType":"Observation","id":"f0e36c73-ad8e-420f-a413-01ba91783fff","status":"final","code":{"coding":[{"system":"http://loinc.org","code":"81956-5"}]},"subject":{"reference":"Patient/c75df8c6-7750-4b91-abc6-fbcf13b3033f"},"effectiveDateTime":"2022-11-13T00:00:00+00:00","valueDateTime":"2022-10-31T00:00:00+00:00"},"request":{"method":"POST","url":"Observation"}}]}