{"resourceType":"Bundle","id":"e9e382ae-0855-4164-b40b-9548e267897a","type":"transaction","entry":[{"fullUrl":"Patient/50402a3b-f4c0-41d2-b89f-2e46d208f53e","resource":{"resourceType":"Patient","id":"50402a3b-f4c0-41d2-b89f-2e46d208f53e","meta":{"profile":["http://hl7.org/fhir/us/core/StructureDefinition/us-core-patient"]},"identifier":[{"type":{"coding":[{"system":"http://terminology.hl7.org/CodeSystem/v2-0203","code":"MR"}]},"system":"urn:fhirgen:mrn","value":"237-07-9534"}],"name":[{"family":"Stephenson","given":["Bruce"]}],"telecom":[{"system":"phone","value":"(128)536-1515x0144"}],"gender":"male","birthDate":"1992-03-07","address":[{"line":["2466 Robbins Squares Suite 426"],"city":"Lake Benjaminmouth","state":"Arizona","postalCode":"23183"}]},"request":{"method":"POST","url":"Patient"}},{"fullUrl":"Observation/077bdb91-761b-4ee4-bcc7-6cff3f44566d","resource":{"resourceType":"Observation","id":"077bdb91-761b-4ee4-bcc7-6cff3f44566d","meta":{"profile":["http://hl7.org/fhir/us/core/StructureDefinition/us-core-observation-lab"]},"status":"final","category":[{"coding":[{"system":"http://terminology.hl7.org/CodeSystem/observation-category","code":"laboratory","display":"Laboratory"}]}],"code":{"coding":[{"system":"http://loinc.org","code":"5394-2"}]},"subject":{"reference":"Patient/50402a3b-f4c0-41d2-b89f-2e46d208f53e"},"effectiveDateTime":"2022-07-07T00:00:00+00:00","valueRatio":{"numerator":{"value":1},"denominator":{"value":4}}},"request":{"method":"POST","url":"Observation"}},{"fullUrl":"Observation/7be2c8e2-0ce3-4b9f-83b8-50ac3bcf4182","resource":{"resourceType":"Observation","id":"7be2c8e2-0ce3-4b9f-83b8-50ac3bcf4182","meta":{"profile":["http://hl7.org/fhir/us/core/StructureDefinition/us-core-observation-lab"]},"status":"final","category":[{"coding":[{"system":"http://terminology.hl7.org/CodeSystem/observation-category","code":"laboratory","display":"Laboratory"}]}],"code":{"coding":[{"system":"http://loinc.org","code":"46203-6"}]},"subject":{"reference":"Patient/50402a3b-f4c0-41d2-b89f-2e46d208f53e"},"effectiveDateTime":"2022-05-09T00:00:00+00:00","valueRatio":{"numerator":{"value":1},"denominator":{"value":4}}},"request":{"method":"POST","url":"Observation"}},{"fullUrl":"Condition/94d7322f-b89c-4d44-8e40-b6735704de8c","resource":{"resourceType":"Condition","id":"94d7322f-b89c-4d44-8e40-b6735704de8c","meta":{"profile":["http://hl7.org/fhir/us/core/StructureDefinition/us-core-condition"]},"clinicalStatus":{"coding":[{"system":"http://terminology.hl7.org/CodeSystem/condition-clinical","code":"active","display":"Active"}]},"category":[{"coding":[{"system":"http://terminology.hl7.org/CodeSystem/condition-ver-status","code":"confirmed"}]}],"code":{"coding":[{"system":"http://snomed.info/sct","code":"91554004"}]},"subject":{"reference":"Patient/50402a3b-f4c0-41d2-b89f-2e46d208f53e"},"onsetDateTime":"2022-03-02T00:00:00+00:00"},"request":{"method":"POST","url":"Condition"}},{"fullUrl":"Condition/4e17d08d-8d75-46c1-9047-037a5a595cae","resource":{"resourceType":"Condition","id":"4e17d08d-8d75-46c1-9047-037a5a595cae","meta":{"profile":["http://hl7.org/fhir/us/core/StructureDefinition/us-core-condition"]},"clinicalStatus":{"coding":[{"system":"http://terminology.hl7.org/CodeSystem/condition-clinical","code":"active","display":"Active"}]},"category":[{"coding":[{"system":"http://terminology.hl7.org/CodeSystem/condition-ver-status","code":"confirmed"}]}],"code":{"coding":[{"system":"http://snomed.info/sct","code":"709977002"}]},"subject":{"reference":"Patient/50402a3b-f4c0-41d2-b89f-2e46d208f53e"},"onsetDateTime":"2022-03-05T00:00:00+00:00"},"request":{"method":"POST","url":"Condition"}},{"fullUrl":"Condition/864fe809-9d26-49e6-84c6-99dbf4ccfeea","resource":{"resourceType":"Condition","id":"864fe809-9d26-49e6-84c6-99dbf4ccfeea","meta":{"profile":["http://hl7.org/fhir/us/core/StructureDefinition/us-core-condition"]},"clinicalStatus":{"coding":[{"system":"http://terminology.hl7.org/CodeSystem/condition-clinical","code":"active","display":"Active"}]},"category":[{"coding":[{"system":"http://terminology.hl7.org/CodeSystem/condition-ver-status","code":"confirmed"}]}],"code":{"coding":[{"system":"http://snomed.info/sct","code":"736686006"}]},"subject":{"reference":"Patient/50402a3b-f4c0-41d2-b89f-2e46d208f53e"},"onsetDateTime":"2022-04-04T00:00:00+00:00"},"request":{"method":"POST","url":"Condition"}},{"fullUrl":"Condition/10173233-3ec0-4479-98d5-679e910709b2","resource":{"resourceType":"Condition","id":"10173233-3ec0-4479-98d5-679e910709b2","meta":{"profile":["http://hl7.org/fhir/us/core/StructureDefinition/us-core-condition"]},"clinicalStatus":{"coding":[{"system":"http://terminology.hl7.org/CodeSystem/condition-clinical","code":"active","display":"Active"}]},"category":[{"coding":[{"system":"http://terminology.hl7.org/CodeSystem/condition-ver-status","code":"confirmed"}]}],"code":{"coding":[{"system":"http://snomed.info/sct","code":"91554004"}]},"subject":{"reference":"Patient/50402a3b-f4c0-41d2-b89f-2e46d208f53e"},"onsetDateTime":"2022-10-23T00:00:00+00:00"},"request":{"method":"POST","url":"Condition"}},{"fullUrl":"Condition/d335a39e-8e7d-48ea-b7b4-32db386de84f","resource":{"resourceType":"Condition","id":"d335a39e-8e7d-48ea-b7b4-32db386de84f","meta":{"profile":["http://hl7.org/fhir/us/core/StructureDefinition/us-core-condition"]},"clinicalStatus":{"coding":[{"system":"http://terminology.hl7.org/CodeSystem/condition-clinical","code":"active","display":"Active"}]},"category":[{"coding":[{"system":"http://terminology.hl7.org/CodeSystem/condition-ver-status","code":"confirmed"}]}],"code":{"coding":[{"system":"http://snomed.info/sct","code":"709977002"}]},"subject":{"reference":"Patient/50402a3b-f4c0-41d2-b89f-2e46d208f53e"},"onsetDateTime":"2022-05-19T00:00:00+00:00"},"request":{"method":"POST","url":"Condition"}},{"fullUrl":"Condition/d3c2da45-13f7-415c-bda2-2ffe725c78ec","resource":{"resourceType":"Condition","id":"d3c2da45-13f7-415c-bda2-2ffe725c78ec","meta":{"profile":["http://hl7.org/fhir/us/core/StructureDefinition/us-core-condition"]},"clinicalStatus":{"coding":[{"system":"http://terminology.hl7.org/CodeSystem/condition-clinical","code":"active","display":"Active"}]},"category":[{"coding":[{"system":"http://terminology.hl7.org/CodeSystem/condition-ver-status","code":"confirmed"}]}],"code":{"coding":[{"system":"http://snomed.info/sct","code":"709977002"}]},"subject":{"reference":"Patient/50402a3b-f4c0-41d2-b89f-2e46d208f53e"},"onsetDateTime":"2022-10-07T00:00:00+00:00"},"request":{"method":"POST","url":"Condition"}},{"fullUrl":"Observation/9c89ae43-3c2b-445b-b10c-cb1d00790d1d","resource":{"resourceType":"Observation","id":"9c89ae43-3c2b-445b-b10c-cb1d00790d1d","meta":{"profile":["http://hl7.org/fhir/us/core/StructureDefinition/us-core-observation-lab"]},"status":"final","category":[{"coding":[{"system":"http://terminology.hl7.org/CodeSystem/observation-category","code":"laboratory","display":"Laboratory"}]}],"code":{"coding":[{"system":"http://loinc.org","code":"49498-9"}]},"subject":{"reference":"Patient/50402a3b-f4c0-41d2-b89f-2e46d208f53e"},"effectiveDateTime":"2022-06-29T00:00:00+00:00","valueQuantity":{"value":4.2}},"request":{"method":"POST","url":"Observation"}},{"fullUrl":"Observation/8a1a9f9b-f14c-4b2b-bf69-941aba95607d","resource":{"resourceType":"Observation","id":"8a1a9f9b-f14c-4b2b-bf69-941aba95607d","meta":{"profile":["http://hl7.org/fhir/us/core/StructureDefinition/us-core-observation-lab"]},"status":"final","category":[{"coding":[{"system":"http://terminology.hl7.org/CodeSystem/observation-category","code":"laboratory","display":"Laboratory"}]}],"code":{"coding":[{"system":"http://loinc.org","code":"49498-9"}]},"subject":{"reference":"Patient/50402a3b-f4c0-41d2-b89f-2e46d208f53e"},"effectiveDateTime":"2022-04-04T00:00:00+00:00","valueQuantity":{"value":7.3}},"request":{"method":"POST","url":"Observation"}},{"fullUrl":"Observation/1bee0ecb-289b-4457-9af6-6b60dd048e7d","resource":{"resourceType":"Observation","id":"1bee0ecb-289b-4457-9af6-6b60dd048e7d","meta":{"profile":["http://hl7.org/fhir/us/core/StructureDefinition/us-core-observation-lab"]},"status":"final","category":[{"coding":[{"system":"http://terminology.hl7.org/CodeSystem/observation-category","code":"laboratory","display":"Laboratory"}]}],"code":{"coding":[{"system":"http://www.ama-assn.org/go/cpt","code":"85048"}]},"subject":{"reference":"Patient/50402a3b-f4c0-41d2-b89f-2e46d208f53e"},"effectiveDateTime":"2022-05-18T00:00:00+00:00","valueQuantity":{"value":7.7}},"request":{"method":"POST","url":"Observation"}},{"fullUrl":"Observation/43d12fc6-0bec-4abb-873f-db7c744d6f44","resource":{"resourceType":"Observation","id":"43d12fc6-0bec-4abb-873f-db7c744d6f44","meta":{"profile":["http://hl7.org/fhir/us/core/StructureDefinition/us-core-bmi"]},"status":"final","category":[{"coding":[{"system":"http://terminology.hl7.org/CodeSystem/observation-category","code":"vital-signs","display":"Vital Signs"}]}],"code":{"coding":[{"system":"http://loinc.org","code":"39156-5"}]},"subject":{"reference":"Patient/50402a3b-f4c0-41d2-b89f-2e46d208f53e"},"effectiveDateTime":"2022-01-09T00:00:00+00:00","valueQuantity":{"value":19.3,"unit":"kg/m2","system":"http://unitsofmeasure.org","code":"kg/m2"}},"request":{"method":"POST","url":"Observation"}},{"fullUrl":"Observation/a2e13f9a-2b8d-4620-b886-b7369c4adf7f","resource":{"resourceType":"Observation","id":"a2e13f9a-2b8d-4620-b886-b7369c4adf7f","meta":{"profile":["http://hl7.org/fhir/us/core/StructureDefinition/us-core-head-circumference"]},"status":"final","category":[{"coding":[{"system":"http://terminology.hl7.org/CodeSystem/observation-category","code":"vital-signs","display":"Vital Signs"}]}],"code":{"coding":[{"system":"http://loinc.org","code":"9843-4"}]},"subject":{"reference":"Patient/50402a3b-f4c0-41d2-b89f-2e46d208f53e"},"effectiveDateTime":"2022-03-11T00:00:00+00:00","valueQuantity":{"value":9.1,"unit":"Inch","system":"http://unitsofmeasure.org","code":"[in_i]"}},"request":{"method":"POST","url":"Observation"}},{"fullUrl":"Observation/d9c8c2ec-dc10-40ee-bf4b-192b6e86c097","resource":{"resourceType":"Observation","id":"d9c8c2ec-dc10-40ee-bf4b-192b6e86c097","meta":{"profile":["http://hl7.org/fhir/us/core/StructureDefinition/us-core-body-height"]},"status":"final","category":[{"coding":[{"system":"http://terminology.hl7.org/CodeSystem/observation-category","code":"vital-signs","display":"Vital Signs"}]}],"code":{"coding":[{"system":"http://loinc.org","code":"8302-2"}]},"subject":{"reference":"Patient/50402a3b-f4c0-41d2-b89f-2e46d208f53e"},"effectiveDateTime":"2022-05-07T00:00:00+00:00","valueQuantity":{"value":61.8,"unit":"Inch","system":"http://unitsofmeasure.org","code":"[in_i]"}},"request":{"method":"POST","url":"Observation"}},{"fullUrl":"Observation/873e8bd3-82ce-4e3f-bb8f-634b10b7b469","resource":{"resourceType":"Observation","id":"873e8bd3-82ce-4e3f-bb8f-634b10b7b469","meta":{"profile":["http://hl7.org/fhir/us/core/StructureDefinition/us-core-body-height"]},"status":"final","category":[{"coding":[{"system":"http://terminology.hl7.org/CodeSystem/observation-category","code":"vital-signs","display":"Vital Signs"}]}],"code":{"coding":[{"system":"http://loinc.org","code":"8302-2"}]},"subject":{"reference":"Patient/50402a3b-f4c0-41d2-b89f-2e46d208f53e"},"effectiveDateTime":"2022-12-08T00:00:00+00:00","valueQuantity":{"value":66.8,"unit":"Inch","system":"http://unitsofmeasure.org","code":"[in_i]"}},"request":{"method":"POST","url":"Observation"}},{"fullUrl":"Observation/2080ccf3-5b32-4101-bcfa-10fee37eaef3","resource":{"resourceType":"Observation","id":"2080ccf3-5b32-4101-bcfa-10fee37eaef3","meta":{"profile":["http://hl7.org/fhir/us/core/StructureDefinition/us-core-body-weight"]},"status":"final","category":[{"coding":[{"system":"http://terminology.hl7.org/CodeSystem/observation-category","code":"vital-signs","display":"Vital Signs"}]}],"code":{"coding":[{"system":"http://loinc.org","code":"29463-7"}]},"subject":{"reference":"Patient/50402a3b-f4c0-41d2-b89f-2e46d208f53e"},"effectiveDateTime":"2022-11-01T00:00:00+00:00","valueQuantity":{"value":136.88,"unit":"kilogram","system":"http://unitsofmeasure.org","code":"kg"}},"request":{"method":"POST","url":"Observation"}},{"fullUrl":"Observation/1781e29a-6924-45d3-b407-2375a0f83028","resource":{"resourceType":"Observation","id":"1781e29a-6924-45d3-b407-2375a0f83028","meta":{"profile":["http://hl7.org/fhir/us/core/StructureDefinition/us-core-body-weight"]},"status":"final","category":[{"coding":[{"system":"http://terminology.hl7.org/CodeSystem/observation-category","code":"vital-signs","display":"Vital Signs"}]}],"code":{"coding":[{"system":"http://loinc.org","code":"29463-7"}]},"subject":{"reference":"Patient/50402a3b-f4c0-41d2-b89f-2e46d208f53e"},"effectiveDateTime":"2022-02-06T00:00:00+00:00","valueQuantity":{"value":96.8,"unit":"kilogram","system":"http://unitsofmeasure.org","code":"kg"}},"request":{"method":"POST","url":"Observation"}},{"fullUrl":"Observation/f0202888-c761-4a60-8a92-0c8ae6453802","resource":{"resourceType":"Observation","id":"f0202888-c761-4a60-8a92-0c8ae6453802","meta":{"profile":["http://hl7.org/fhir/us/core/StructureDefinition/us-core-body-temperature"]},"status":"final","category":[{"coding":[{"system":"http://terminology.hl7.org/CodeSystem/observation-category","code":"vital-signs","display":"Vital Signs"}]}],"code":{"coding":[{"system":"http://loinc.org","code":"8310-5"}]},"subject":{"reference":"Patient/50402a3b-f4c0-41d2-b89f-2e46d208f53e"},"effectiveDateTime":"2022-01-11T00:00:00+00:00","valueQuantity":{"value":141.72,"unit":"kilogram","system":"http://unitsofmeasure.org","code":"kg"}},"request":{"method":"POST","url":"Observation"}},{"fullUrl":"Observation/53303559-4b88-4038-9c3b-a7cf7c97f566","resource":{"resourceType":"Observation","id":"53303559-4b88-4038-9c3b-a7cf7c97f566","meta":{"profile":["http://hl7.org/fhir/us/core/StructureDefinition/us-core-heart-rate"]},"status":"final","category":[{"coding":[{"system":"http://terminology.hl7.org/CodeSystem/observation-category","code":"vital-signs","display":"Vital Signs"}]}],"code":{"coding":[{"system":"http://loinc.org","code":"8867-4"}]},"subject":{"reference":"Patient/50402a3b-f4c0-41d2-b89f-2e46d208f53e"},"effectiveDateTime":"2022-03-16T00:00:00+00:00","valueQuantity":{"value":99.3,"unit":"Degrees Fahrenheit","system":"http://unitsofmeasure.org","code":"[degF]"}},"request":{"method":"POST","url":"Observation"}},{"fullUrl":"Patient/7c18c43b-4966-4804-97c6-45a0d4ad84c0","resource":{"resourceType":"Patient","id":"7c18c43b-4966-4804-97c6-45a0d4ad84c0","meta":{"profile":["http://hl7.org/fhir/us/core/StructureDefinition/us-core-patient"]},"identifier":[{"type":{"coding":[{"system":"http://terminology.hl7.org/CodeSystem/v2-0203","code":"MR"}]},"system":"urn:fhirgen:mrn","value":"547-88-7664"}],"name":[{"family":"Hudson","given":["Brian"]}],"telecom":[{"system":"phone","value":"771-320-6770"}],"gender":"male","birthDate":"1987-05-17","address":[{"line":["39653 Christopher Brooks"],"city":"Washingtonstad","state":"Texas","postalCode":"14671"}]},"request":{"method":"POST","url":"Patient"}},{"fullUrl":"Observation/2ed9962a-b48c-413c-a358-9b0022efa7ba","resource":{"resourceType":"Observation","id":"2ed9962a-b48c-413c-a358-9b0022efa7ba","meta":{"profile":["http://hl7.org/fhir/us/core/StructureDefinition/us-core-observation-lab"]},"status":"final","category":[{"coding":[{"system":"http://terminology.hl7.org/CodeSystem/observation-category","code":"laboratory","display":"Laboratory"}]}],"code":{"coding":[{"system":"http://loinc.org","code":"26009-1"}]},"subject":{"reference":"Patient/7c18c43b-4966-4804-97c6-45a0d4ad84c0"},"effectiveDateTime":"2022-12-19T00:00:00+00:00","valueRatio":{"numerator":{"value":1},"denominator":{"value":64}}},"request":{"method":"POST","url":"Observation"}},{"fullUrl":"Observation/4019ff13-a78f-44a0-a315-dc862b809e4b","resource":{"resourceType":"Observation","id":"4019ff13-a78f-44a0-a315-dc862b809e4b","meta":{"profile":["http://hl7.org/fhir/us/core/StructureDefinition/us-core-observation-lab"]},"status":"final","category":[{"coding":[{"system":"http://terminology.hl7.org/CodeSystem/observation-category","code":"laboratory","display":"Laboratory"}]}],"code":{"coding":[{"system":"http://loinc.org","code":"5394-2"}]},"subject":{"reference":"Patient/7c18c43b-4966-4804-97c6-45a0d4ad84c0"},"effectiveDateTime":"2022-02-16T00:00:00+00:00","valueRatio":{"numerator":{"value":1},"denominator":{"value":4}}},"request":{"method":"POST","url":"Observation"}},{"fullUrl":"Condition/c55e8b8e-517b-4eb3-ba2d-5f623e78bdc3","resource":{"resourceType":"Condition","id":"c55e8b8e-517b-4eb3-ba2d-5f623e78bdc3","meta":{"profile":["http://hl7.org/fhir/us/core/StructureDefinition/us-core-condition"]},"clinicalStatus":{"coding":[{"system":"http://terminology.hl7.org/CodeSystem/condition-clinical","code":"active","display":"Active"}]},"category":[{"coding":[{"system":"http://terminology.hl7.org/CodeSystem/condition-ver-status","code":"confirmed"}]}],"code":{"coding":[{"system":"http://snomed.info/sct","code":"91554004"}]},"subject":{"reference":"Patient/7c18c43b-4966-4804-97c6-45a0d4ad84c0"},"onsetDateTime":"2022-09-28T00:00:00+00:00"},"request":{"method":"POST","url":"Condition"}},{"fullUrl":"Condition/5e2bdc28-ea58-420b-9580-b65a1e308e0f","resource":{"resourceType":"Condition","id":"5e2bdc28-ea58-420b-9580-b65a1e308e0f","meta":{"profile":["http://hl7.org/fhir/us/core/StructureDefinition/us-core-condition"]},"clinicalStatus":{"coding":[{"system":"http://terminology.hl7.org/CodeSystem/condition-clinical","code":"active","display":"Active"}]},"category":[{"coding":[{"system":"http://terminology.hl7.org/CodeSystem/condition-ver-status","code":"confirmed"}]}],"code":{"coding":[{"system":"http://snomed.info/sct","code":"709977002"}]},"subject":{"reference":"Patient/7c18c43b-4966-4804-97c6-45a0d4ad84c0"},"onsetDateTime":"2022-02-10T00:00:00+00:00"},"request":{"method":"POST","url":"Condition"}},{"fullUrl":"Condition/c3ac4211-3b05-44ca-a571-23a549146c0c","resource":{"resourceType":"Condition","id":"c3ac4211-3b05-44ca-a571-23a549146c0c","meta":{"profile":["http://hl7.org/fhir/us/core/StructureDefinition/us-core-condition"]},"clinicalStatus":{"coding":[{"system":"http://terminology.hl7.org/CodeSystem/condition-clinical","code":"active","display":"Active"}]},"category":[{"coding":[{"system":"http://terminology.hl7.org/CodeSystem/condition-ver-status","code":"confirmed"}]}],"code":{"coding":[{"system":"http://snomed.info/sct","code":"736686006"}]},"subject":{"reference":"Patient/7c18c43b-4966-4804-97c6-45a0d4ad84c0"},"onsetDateTime":"2022-02-24T00:00:00+00:00"},"request":{"method":"POST","url":"Condition"}},{"fullUrl":"Observation/52a4370f-65cd-49bb-802b-ccde4d5fe816","resource":{"resourceType":"Observation","id":"52a4370f-65cd-49bb-802b-ccde4d5fe816","meta":{"profile":["http://hl7.org/fhir/us/core/StructureDefinition/us-core-observation-lab"]},"status":"final","category":[{"coding":[{"system":"http://terminology.hl7.org/CodeSystem/observation-category","code":"laboratory","display":"Laboratory"}]}],"code":{"coding":[{"system":"http://loinc.org","code":"49498-9"}]},"subject":{"reference":"Patient/7c18c43b-4966-4804-97c6-45a0d4ad84c0"},"effectiveDateTime":"2022-08-03T00:00:00+00:00","valueQuantity":{"value":7.1}},"request":{"method":"POST","url":"Observation"}},{"fullUrl":"Observation/4ec5b09f-e9e9-47c3-bc23-18277b2c9b89","resource":{"resourceType":"Observation","id":"4ec5b09f-e9e9-47c3-bc23-18277b2c9b89","meta":{"profile":["http://hl7.org/fhir/us/core/StructureDefinition/us-core-observation-lab"]},"status":"final","category":[{"coding":[{"system":"http://terminology.hl7.org/CodeSystem/observation-category","code":"laboratory","display":"Laboratory"}]}],"code":{"coding":[{"system":"http://loinc.org","code":"6690-2"}]},"subject":{"reference":"Patient/7c18c43b-4966-4804-97c6-45a0d4ad84c0"},"effectiveDateTime":"2022-05-18T00:00:00+00:00","valueQuantity":{"value":10.6}},"request":{"method":"POST","url":"Observation"}},{"fullUrl":"Observation/f544b81a-5f85-4dde-90c3-9b11a8ac871a","resource":{"resourceType":"Observation","id":"f544b81a-5f85-4dde-90c3-9b11a8ac871a","meta":{"profile":["http://hl7.org/fhir/us/core/StructureDefinition/us-core-observation-lab"]},"status":"final","category":[{"coding":[{"system":"http://terminology.hl7.org/CodeSystem/observation-category","code":"laboratory","display":"Laboratory"}]}],"code":{"coding":[{"system":"http://loinc.org","code":"49498-9"}]},"subject":{"reference":"Patient/7c18c43b-4966-4804-97c6-45a0d4ad84c0"},"effectiveDateTime":"2022-10-06T00:00:00+00:00","valueQuantity":{"value":5.7}},"request":{"method":"POST","url":"Observation"}},{"fullUrl":"Observation/cee5815d-8785-4ea9-84d6-1741b07e27c2","resource":{"resourceType":"Observation","id":"cee5815d-8785-4ea9-84d6-1741b07e27c2","meta":{"profile":["http://hl7.org/fhir/us/core/StructureDefinition/us-core-bmi"]},"status":"final","category":[{"coding":[{"system":"http://terminology.hl7.org/CodeSystem/observation-category","code":"vital-signs","display":"Vital Signs"}]}],"code":{"coding":[{"system":"http://loinc.org","code":"39156-5"}]},"subject":{"reference":"Patient/7c18c43b-4966-4804-97c6-45a0d4ad84c0"},"effectiveDateTime":"2022-09-16T00:00:00+00:00","valueQuantity":{"value":13.67,"unit":"kg/m2","system":"http://unitsofmeasure.org","code":"kg/m2"}},"request":{"method":"POST","url":"Observation"}},{"fullUrl":"Observation/81479897-412e-4b8b-a8fc-213d24e8a96a","resource":{"resourceType":"Observation","id":"81479897-412e-4b8b-a8fc-213d24e8a96a","meta":{"profile":["http://hl7.org/fhir/us/core/StructureDefinition/us-core-bmi"]},"status":"final","category":[{"coding":[{"system":"http://terminology.hl7.org/CodeSystem/observation-category","code":"vital-signs","display":"Vital Signs"}]}],"code":{"coding":[{"system":"http://loinc.org","code":"39156-5"}]},"subject":{"reference":"Patient/7c18c43b-4966-4804-97c6-45a0d4ad84c0"},"effectiveDateTime":"2022-01-03T00:00:00+00:00","valueQuantity":{"value":24.5,"unit":"kg/m2","system":"http://unitsofmeasure.org","code":"kg/m2"}},"request":{"method":"POST","url":"Observation"}},{"fullUrl":"Observation/03a501b3-dad8-4a05-ab22-d76e518d4adc","resource":{"resourceType":"Observation","id":"03a501b3-dad8-4a05-ab22-d76e518d4adc","meta":{"profile":["http://hl7.org/fhir/us/core/StructureDefinition/us-core-head-circumference"]},"status":"final","category":[{"coding":[{"system":"http://terminology.hl7.org/CodeSystem/observation-category","code":"vital-signs","display":"Vital Signs"}]}],"code":{"coding":[{"system":"http://loinc.org","code":"9843-4"}]},"subject":{"reference":"Patient/7c18c43b-4966-4804-97c6-45a0d4ad84c0"},"effectiveDateTime":"2022-08-20T00:00:00+00:00","valueQuantity":{"value":6.9,"unit":"Inch","system":"http://unitsofmeasure.org","code":"[in_i]"}},"request":{"method":"POST","url":"Observation"}},{"fullUrl":"Observation/ad3090ab-79e2-4d41-b9ff-a6b5c1c7f2b8","resource":{"resourceType":"Observation","id":"ad3090ab-79e2-4d41-b9ff-a6b5c1c7f2b8","meta":{"profile":["http://hl7.org/fhir/us/core/StructureDefinition/us-core-head-circumference"]},"status":"final","category":[{"coding":[{"system":"http://terminology.hl7.org/CodeSystem/observation-category","code":"vital-signs","display":"Vital Signs"}]}],"code":{"coding":[{"system":"http://loinc.org","code":"9843-4"}]},"subject":{"reference":"Patient/7c18c43b-4966-4804-97c6-45a0d4ad84c0"},"effectiveDateTime":"2022-03-09T00:00:00+00:00","valueQuantity":{"value":6.5,"unit":"Inch","system":"http://unitsofmeasure.org","code":"[in_i]"}},"request":{"method":"POST","url":"Observation"}},{"fullUrl":"Observation/4acd9052-ccdf-4478-9b71-acc00e4c3b08","resource":{"resourceType":"Observation","id":"4acd9052-ccdf-4478-9b71-acc00e4c3b08","meta":{"profile":["http://hl7.org/fhir/us/core/StructureDefinition/us-core-body-height"]},"status":"final","category":[{"coding":[{"system":"http://terminology.hl7.org/CodeSystem/observation-category","code":"vital-signs","display":"Vital Signs"}]}],"code":{"coding":[{"system":"http://loinc.org","code":"8302-2"}]},"subject":{"reference":"Patient/7c18c43b-4966-4804-97c6-45a0d4ad84c0"},"effectiveDateTime":"2022-07-15T00:00:00+00:00","valueQuantity":{"value":69.1,"unit":"Inch","system":"http://unitsofmeasure.org","code":"[in_i]"}},"request":{"method":"POST","url":"Observation"}},{"fullUrl":"Observation/9decee9a-0cf1-444f-aa80-b862a673b0d4","resource":{"resourceType":"Observation","id":"9decee9a-0cf1-444f-aa80-b862a673b0d4","meta":{"profile":["http://hl7.org/fhir/us/core/StructureDefinition/us-core-body-weight"]},"status":"final","category":[{"coding":[{"system":"http://terminology.hl7.org/CodeSystem/observation-category","code":"vital-signs","display":"Vital Signs"}]}],"code":{"coding":[{"system":"http://loinc.org","code":"29463-7"}]},"subject":{"reference":"Patient/7c18c43b-4966-4804-97c6-45a0d4ad84c0"},"effectiveDateTime":"2022-07-25T00:00:00+00:00","valueQuantity":{"value":123.15,"unit":"kilogram","system":"http://unitsofmeasure.org","code":"kg"}},"request":{"method":"POST","url":"Observation"}},{"fullUrl":"Observation/d776c3e2-0623-47f4-abb8-2688cbfabdad","resource":{"resourceType":"Observation","id":"d776c3e2-0623-47f4-abb8-2688cbfabdad","meta":{"profile":["http://hl7.org/fhir/us/core/StructureDefinition/us-core-body-temperature"]},"status":"final","category":[{"coding":[{"system":"http://terminology.hl7.org/CodeSystem/observation-category","code":"vital-signs","display":"Vital Signs"}]}],"code":{"coding":[{"system":"http://loinc.org","code":"8310-5"}]},"subject":{"reference":"Patient/7c18c43b-4966-4804-97c6-45a0d4ad84c0"},"effectiveDateTime":"2022-04-11T00:00:00+00:00","valueQuantity":{"value":71.96,"unit":"kilogram","system":"http://unitsofmeasure.org","code":"kg"}},"request":{"method":"POST","url":"Observation"}},{"fullUrl":"Observation/55dfdade-e574-4d9b-9390-97b7d6598b74","resource":{"resourceType":"Observation","id":"55dfdade-e574-4d9b-9390-97b7d6598b74","meta":{"profile":["http://hl7.org/fhir/us/core/StructureDefinition/us-core-body-temperature"]},"status":"final","category":[{"coding":[{"system":"http://terminology.hl7.org/CodeSystem/observation-category","code":"vital-signs","display":"Vital Signs"}]}],"code":{"coding":[{"system":"http://loinc.org","code":"8310-5"}]},"subject":{"reference":"Patient/7c18c43b-4966-4804-97c6-45a0d4ad84c0"},"effectiveDateTime":"2022-06-24T00:00:00+00:00","valueQuantity":{"value":111.55,"unit":"kilogram","system":"http://unitsofmeasure.org","code":"kg"}},"request":{"method":"POST","url":"Observation"}},{"fullUrl":"Observation/3a60dfc0-edf4-4f18-b001-c13b825f7e5d","resource":{"resourceType":"Observation","id":"3a60dfc0-edf4-4f18-b001-c13b825f7e5d","meta":{"profile":["http://hl7.org/fhir/us/core/StructureDefinition/us-core-heart-rate"]},"status":"final","category":[{"coding":[{"system":"http://terminology.hl7.org/CodeSystem/observation-category","code":"vital-signs","display":"Vital Signs"}]}],"code":{"coding":[{"system":"http://loinc.org","code":"8867-4"}]},"subject":{"reference":"Patient/7c18c43b-4966-4804-97c6-45a0d4ad84c0"},"effectiveDateTime":"2022-01-05T00:00:00+00:00","valueQuantity":{"value":97.2,"unit":"Degrees Fahrenheit","system":"http://unitsofmeasure.org","code":"[degF]"}},"request":{"method":"POST","url":"Observation"}},{"fullUrl":"Patient/0981aaf2-50f3-481e-a90b-0e3906e4f451","resource":{"resourceType":"Patient","id":"0981aaf2-50f3-481e-a90b-0e3906e4f451","meta":{"profile":["http://hl7.org/fhir/us/core/StructureDefinition/us-core-patient"]},"identifier":[{"type":{"coding":[{"system":"http://terminology.hl7.org/CodeSystem/v2-0203","code":"MR"}]},"system":"urn:fhirgen:mrn","value":"289-14-3993"}],"name":[{"family":"Trujillo","given":["Ashley"]}],"telecom":[{"system":"phone","value":"(558)511-4404x5932"}],"gender":"female","birthDate":"1985-01-21","address":[{"line":["004 Theresa Via Suite 785"],"city":"Lake David","state":"Utah","postalCode":"80352"}]},"request":{"method":"POST","url":"Patient"}},{"fullUrl":"Observation/af8b6d24-ab44-4a86-90b3-8c12651a58df","resource":{"resourceType":"Observation","id":"af8b6d24-ab44-4a86-90b3-8c12651a58df","meta":{"profile":["http://hl7.org/fhir/us/core/StructureDefinition/us-core-observation-lab"]},"status":"final","category":[{"coding":[{"system":"http://terminology.hl7.org/CodeSystem/observation-category","code":"laboratory","display":"Laboratory"}]}],"code":{"coding":[{"system":"http://loinc.org","code":"50695-6"}]},"subject":{"reference":"Patient/0981aaf2-50f3-481e-a90b-0e3906e4f451"},"effectiveDateTime":"2022-06-10T00:00:00+00:00","valueRatio":{"numerator":{"value":1},"denominator":{"value":32}}},"request":{"method":"POST","url":"Observation"}},{"fullUrl":"Observation/30201e48-6419-46c8-adb2-cedcf3d677e3","resource":{"resourceType":"Observation","id":"30201e48-6419-46c8-adb2-cedcf3d677e3","meta":{"profile":["http://hl7.org/fhir/us/core/StructureDefinition/us-core-observation-lab"]},"status":"final","category":[{"coding":[{"system":"http://terminology.hl7.org/CodeSystem/observation-category","code":"laboratory","display":"Laboratory"}]}],"code":{"coding":[{"system":"http://loinc.org","code":"31147-2"}]},"subject":{"reference":"Patient/0981aaf2-50f3-481e-a90b-0e3906e4f451"},"effectiveDateTime":"2022-10-14T00:00:00+00:00","valueRatio":{"numerator":{"value":1},"denominator":{"value":32}}},"request":{"method":"POST","url":"Observation"}},{"fullUrl":"Condition/b91023a1-5635-472f-9798-f13913e05c6d","resource":{"resourceType":"Condition","id":"b91023a1-5635-472f-9798-f13913e05c6d","meta":{"profile":["http://hl7.org/fhir/us/core/StructureDefinition/us-core-condition"]},"clinicalStatus":{"coding":[{"system":"http://terminology.hl7.org/CodeSystem/condition-clinical","code":"active","display":"Active"}]},"category":[{"coding":[{"system":"http://terminology.hl7.org/CodeSystem/condition-ver-status","code":"confirmed"}]}],"code":{"coding":[{"system":"http://snomed.info/sct","code":"418290006"}]},"subject":{"reference":"Patient/0981aaf2-50f3-481e-a90b-0e3906e4f451"},"onsetDateTime":"2022-08-31T00:00:00+00:00"},"request":{"method":"POST","url":"Condition"}},{"fullUrl":"Condition/28d3d113-442c-467d-8a3d-4ad8d4d9d9e1","resource":{"resourceType":"Condition","id":"28d3d113-442c-467d-8a3d-4ad8d4d9d9e1","meta":{"profile":["http://hl7.org/fhir/us/core/StructureDefinition/us-core-condition"]},"clinicalStatus":{"coding":[{"system":"http://terminology.hl7.org/CodeSystem/condition-clinical","code":"active","display":"Active"}]},"category":[{"coding":[{"system":"http://terminology.hl7.org/CodeSystem/condition-ver-status","code":"confirmed"}]}],"code":{"coding":[{"system":"http://snomed.info/sct","code":"91554004"}]},"subject":{"reference":"Patient/0981aaf2-50f3-481e-a90b-0e3906e4f451"},"onsetDateTime":"2022-03-04T00:00:00+00:00"},"request":{"method":"POST","url":"Condition"}},{"fullUrl":"Condition/d8a0d786-e7ab-48aa-ac4b-70fda66f7f24","resource":{"resourceType":"Condition","id":"d8a0d786-e7ab-48aa-ac4b-70fda66f7f24","meta":{"profile":["http://hl7.org/fhir/us/core/StructureDefinition/us-core-condition"]},"clinicalStatus":{"coding":[{"system":"http://terminology.hl7.org/CodeSystem/condition-clinical","code":"active","display":"Active"}]},"category":[{"coding":[{"system":"http://terminology.hl7.org/CodeSystem/condition-ver-status","code":"confirmed"}]}],"code":{"coding":[{"system":"http://snomed.info/sct","code":"44882003"}]},"subject":{"reference":"Patient/0981aaf2-50f3-481e-a90b-0e3906e4f451"},"onsetDateTime":"2022-06-13T00:00:00+00:00"},"request":{"method":"POST","url":"Condition"}},{"fullUrl":"Condition/edafc545-2a71-48b2-81f4-902ab3171d4a","resource":{"resourceType":"Condition","id":"edafc545-2a71-48b2-81f4-902ab3171d4a","meta":{"profile":["http://hl7.org/fhir/us/core/StructureDefinition/us-core-condition"]},"clinicalStatus":{"coding":[{"system":"http://terminology.hl7.org/CodeSystem/condition-clinical","code":"active","display":"Active"}]},"category":[{"coding":[{"system":"http://terminology.hl7.org/CodeSystem/condition-ver-status","code":"confirmed"}]}],"code":{"coding":[{"system":"http://snomed.info/sct","code":"709977002"}]},"subject":{"reference":"Patient/0981aaf2-50f3-481e-a90b-0e3906e4f451"},"onsetDateTime":"2022-03-05T00:00:00+00:00"},"request":{"method":"POST","url":"Condition"}},{"fullUrl":"Condition/adf59564-cb0e-445e-b699-f51646cfb82a","resource":{"resourceType":"Condition","id":"adf59564-cb0e-445e-b699-f51646cfb82a","meta":{"profile":["http://hl7.org/fhir/us/core/StructureDefinition/us-core-condition"]},"clinicalStatus":{"coding":[{"system":"http://terminology.hl7.org/CodeSystem/condition-clinical","code":"active","display":"Active"}]},"category":[{"coding":[{"system":"http://terminology.hl7.org/CodeSystem/condition-ver-status","code":"confirmed"}]}],"code":{"coding":[{"system":"http://snomed.info/sct","code":"418290006"}]},"subject":{"reference":"Patient/0981aaf2-50f3-481e-a90b-0e3906e4f451"},"onsetDateTime":"2022-01-09T00:00:00+00:00"},"request":{"method":"POST","url":"Condition"}},{"fullUrl":"Condition/5f5793c8-6289-4d09-82f3-3201efae771a","resource":{"resourceType":"Condition","id":"5f5793c8-6289-4d09-82f3-3201efae771a","meta":{"profile":["http://hl7.org/fhir/us/core/StructureDefinition/us-core-condition"]},"clinicalStatus":{"coding":[{"system":"http://terminology.hl7.org/CodeSystem/condition-clinical","code":"active","display":"Active"}]},"category":[{"coding":[{"system":"http://terminology.hl7.org/CodeSystem/condition-ver-status","code":"confirmed"}]}],"code":{"coding":[{"system":"http://snomed.info/sct","code":"418290006"}]},"subject":{"reference":"Patient/0981aaf2-50f3-481e-a90b-0e3906e4f451"},"onsetDateTime":"2022-02-25T00:00:00+00:00"},"request":{"method":"POST","url":"Condition"}},{"fullUrl":"Condition/f0b59d81-d747-43fb-abb6-ba049c52213d","resource":{"resourceType":"Condition","id":"f0b59d81-d747-43fb-abb6-ba049c52213d","meta":{"profile":["http://hl7.org/fhir/us/core/StructureDefinition/us-core-condition"]},"clinicalStatus":{"coding":[{"system":"http://terminology.hl7.org/CodeSystem/condition-clinical","code":"active","display":"Active"}]},"category":[{"coding":[{"system":"http://terminology.hl7.org/CodeSystem/condition-ver-status","code":"confirmed"}]}],"code":{"coding":[{"system":"http://snomed.info/sct","code":"418290006"}]},"subject":{"reference":"Patient/0981aaf2-50f3-481e-a90b-0e3906e4f451"},"onsetDateTime":"2022-05-08T00:00:00+00:00"},"request":{"method":"POST","url":"Condition"}},{"fullUrl":"Condition/2ae3fb9b-85e4-4b73-ad17-a7ed62194297","resource":{"resourceType":"Condition","id":"2ae3fb9b-85e4-4b73-ad17-a7ed62194297","meta":{"profile":["http://hl7.org/fhir/us/core/StructureDefinition/us-core-condition"]},"clinicalStatus":{"coding":[{"system":"http://terminology.hl7.org/CodeSystem/condition-clinical","code":"active","display":"Active"}]},"category":[{"coding":[{"system":"http://terminology.hl7.org/CodeSystem/condition-ver-status","code":"confirmed"}]}],"code":{"coding":[{"system":"http://snomed.info/sct","code":"736686006"}]},"subject":{"reference":"Patient/0981aaf2-50f3-481e-a90b-0e3906e4f451"},"onsetDateTime":"2022-02-13T00:00:00+00:00"},"request":{"method":"POST","url":"Condition"}},{"fullUrl":"Observation/e15f2c2b-b8d8-4b15-ba7a-bb3bd5946ccf","resource":{"resourceType":"Observation","id":"e15f2c2b-b8d8-4b15-ba7a-bb3bd5946ccf","meta":{"profile":["http://hl7.org/fhir/us/core/StructureDefinition/us-core-observation-lab"]},"status":"final","category":[{"coding":[{"system":"http://terminology.hl7.org/CodeSystem/observation-category","code":"laboratory","display":"Laboratory"}]}],"code":{"coding":[{"system":"http://loinc.org","code":"26464-8"}]},"subject":{"reference":"Patient/0981aaf2-50f3-481e-a90b-0e3906e4f451"},"effectiveDateTime":"2022-08-09T00:00:00+00:00","valueQuantity":{"value":4.6}},"request":{"method":"POST","url":"Observation"}},{"fullUrl":"Observation/c198edeb-7929-4dfc-9e93-7cd35726c602","resource":{"resourceType":"Observation","id":"c198edeb-7929-4dfc-9e93-7cd35726c602","meta":{"profile":["http://hl7.org/fhir/us/core/StructureDefinition/us-core-observation-lab"]},"status":"final","category":[{"coding":[{"system":"http://terminology.hl7.org/CodeSystem/observation-category","code":"laboratory","display":"Laboratory"}]}],"code":{"coding":[{"system":"http://loinc.org","code":"6690-2"}]},"subject":{"reference":"Patient/0981aaf2-50f3-481e-a90b-0e3906e4f451"},"effectiveDateTime":"2022-01-02T00:00:00+00:00","valueQuantity":{"value":8.8}},"request":{"method":"POST","url":"Observation"}},{"fullUrl":"Observation/5b02edd1-1089-4e44-b443-bc09ff8a4c68","resource":{"resourceType":"Observation","id":"5b02edd1-1089-4e44-b443-bc09ff8a4c68","meta":{"profile":["http://hl7.org/fhir/us/core/StructureDefinition/us-core-observation-lab"]},"status":"final","category":[{"coding":[{"system":"http://terminology.hl7.org/CodeSystem/observation-category","code":"laboratory","display":"Laboratory"}]}],"code":{"coding":[{"system":"http://loinc.org","code":"26464-8"}]},"subject":{"reference":"Patient/0981aaf2-50f3-481e-a90b-0e3906e4f451"},"effectiveDateTime":"2022-09-30T00:00:00+00:00","valueQuantity":{"value":10.4}},"request":{"method":"POST","url":"Observation"}},{"fullUrl":"Observation/8854d855-a027-4ef3-8a9f-edba12b84d20","resource":{"resourceType":"Observation","id":"8854d855-a027-4ef3-8a9f-edba12b84d20","meta":{"profile":["http://hl7.org/fhir/us/core/StructureDefinition/us-core-bmi"]},"status":"final","category":[{"coding":[{"system":"http://terminology.hl7.org/CodeSystem/observation-category","code":"vital-signs","display":"Vital Signs"}]}],"code":{"coding":[{"system":"http://loinc.org","code":"39156-5"}]},"subject":{"reference":"Patient/0981aaf2-50f3-481e-a90b-0e3906e4f451"},"effectiveDateTime":"2022-02-28T00:00:00+00:00","valueQuantity":{"value":20.61,"unit":"kg/m2","system":"http://unitsofmeasure.org","code":"kg/m2"}},"request":{"method":"POST","url":"Observation"}},{"fullUrl":"Observation/21da0d01-7f91-4b01-84fa-c93befe55562","resource":{"resourceType":"Observation","id":"21da0d01-7f91-4b01-84fa-c93befe55562","meta":{"profile":["http://hl7.org/fhir/us/core/StructureDefinition/us-core-bmi"]},"status":"final","category":[{"coding":[{"system":"http://terminology.hl7.org/CodeSystem/observation-category","code":"vital-signs","display":"Vital Signs"}]}],"code":{"coding":[{"system":"http://loinc.org","code":"39156-5"}]},"subject":{"reference":"Patient/0981aaf2-50f3-481e-a90b-0e3906e4f451"},"effectiveDateTime":"2022-09-15T00:00:00+00:00","valueQuantity":{"value":12.79,"unit":"kg/m2","system":"http://unitsofmeasure.org","code":"kg/m2"}},"request":{"method":"POST","url":"Observation"}},{"fullUrl":"Observation/448a07eb-c92d-4a82-949b-724a6bbab06b","resource":{"resourceType":"Observation","id":"448a07eb-c92d-4a82-949b-724a6bbab06b","meta":{"profile":["http://hl7.org/fhir/us/core/StructureDefinition/us-core-head-circumference"]},"status":"final","category":[{"coding":[{"system":"http://terminology.hl7.org/CodeSystem/observation-category","code":"vital-signs","display":"Vital Signs"}]}],"code":{"coding":[{"system":"http://loinc.org","code":"9843-4"}]},"subject":{"reference":"Patient/0981aaf2-50f3-481e-a90b-0e3906e4f451"},"effectiveDateTime":"2022-11-12T00:00:00+00:00","valueQuantity":{"value":4.6,"unit":"Inch","system":"http://unitsofmeasure.org","code":"[in_i]"}},"request":{"method":"POST","url":"Observation"}},{"fullUrl":"Observation/21ee5f77-052b-4727-9202-0df2451aca46","resource":{"resourceType":"Observation","id":"21ee5f77-052b-4727-9202-0df2451aca46","meta":{"profile":["http://hl7.org/fhir/us/core/StructureDefinition/us-core-body-height"]},"status":"final","category":[{"coding":[{"system":"http://terminology.hl7.org/CodeSystem/observation-category","code":"vital-signs","display":"Vital Signs"}]}],"code":{"coding":[{"system":"http://loinc.org","code":"8302-2"}]},"subject":{"reference":"Patient/0981aaf2-50f3-481e-a90b-0e3906e4f451"},"effectiveDateTime":"2022-01-08T00:00:00+00:00","valueQuantity":{"value":75.6,"unit":"Inch","system":"http://unitsofmeasure.org","code":"[in_i]"}},"request":{"method":"POST","url":"Observation"}},{"fullUrl":"Observation/a9169281-6e2e-4a2f-873c-6bcb0d2fe2e1","resource":{"resourceType":"Observation","id":"a9169281-6e2e-4a2f-873c-6bcb0d2fe2e1","meta":{"profile":["http://hl7.org/fhir/us/core/StructureDefinition/us-core-body-height"]},"status":"final","category":[{"coding":[{"system":"http://terminology.hl7.org/CodeSystem/observation-category","code":"vital-signs","display":"Vital Signs"}]}],"code":{"coding":[{"system":"http://loinc.org","code":"8302-2"}]},"subject":{"reference":"Patient/0981aaf2-50f3-481e-a90b-0e3906e4f451"},"effectiveDateTime":"2022-02-18T00:00:00+00:00","valueQuantity":{"value":67.6,"unit":"Inch","system":"http://unitsofmeasure.org","code":"[in_i]"}},"request":{"method":"POST","url":"Observation"}},{"fullUrl":"Observation/7f5a98b7-3e56-4596-8f90-02b235a6b335","resource":{"resourceType":"Observation","id":"7f5a98b7-3e56-4596-8f90-02b235a6b335","meta":{"profile":["http://hl7.org/fhir/us/core/StructureDefinition/us-core-body-weight"]},"status":"final","category":[{"coding":[{"system":"http://terminology.hl7.org/CodeSystem/observation-category","code":"vital-signs","display":"Vital Signs"}]}],"code":{"coding":[{"system":"http://loinc.org","code":"29463-7"}]},"subject":{"reference":"Patient/0981aaf2-50f3-481e-a90b-0e3906e4f451"},"effectiveDateTime":"2022-10-04T00:00:00+00:00","valueQuantity":{"value":41.73,"unit":"kilogram","system":"http://unitsofmeasure.org","code":"kg"}},"request":{"method":"POST","url":"Observation"}},{"fullUrl":"Observation/f1aac6b3-08c6-4471-8de7-a6ab060eeb67","resource":{"resourceType":"Observation","id":"f1aac6b3-08c6-4471-8de7-a6ab060eeb67","meta":{"profile":["http://hl7.org/fhir/us/core/StructureDefinition/us-core-body-temperature"]},"status":"final","category":[{"coding":[{"system":"http://terminology.hl7.org/CodeSystem/observation-category","code":"vital-signs","display":"Vital Signs"}]}],"code":{"coding":[{"system":"http://loinc.org","code":"8310-5"}]},"subject":{"reference":"Patient/0981aaf2-50f3-481e-a90b-0e3906e4f451"},"effectiveDateTime":"2022-09-28T00:00:00+00:00","valueQuantity":{"value":28.79,"unit":"kilogram","system":"http://unitsofmeasure.org","code":"kg"}},"request":{"method":"POST","url":"Observation"}},{"fullUrl":"Observation/7b2c1ee7-a056-4031-a2e8-a2236e37d964","resource":{"resourceType":"Observation","id":"7b2c1ee7-a056-4031-a2e8-a2236e37d964","meta":{"profile":["http://hl7.org/fhir/us/core/StructureDefinition/us-core-heart-rate"]},"status":"final","category":[{"coding":[{"system":"http://terminology.hl7.org/CodeSystem/observation-category","code":"vital-signs","display":"Vital Signs"}]}],"code":{"coding":[{"system":"http://loinc.org","code":"8867-4"}]},"subject":{"reference":"Patient/0981aaf2-50f3-481e-a90b-0e3906e4f451"},"effectiveDateTime":"2022-11-26T00:00:00+00:00","valueQuantity":{"value":101.2,"unit":"Degrees Fahrenheit","system":"http://unitsofmeasure.org","code":"[degF]"}},"request":{"method":"POST","url":"Observation"}},{"fullUrl":"Patient/cf7a5b05-f83f-4500-92fb-b7c017a0bfb8","resource":{"resourceType":"Patient","id":"cf7a5b05-f83f-4500-92fb-b7c017a0bfb8","meta":{"profile":["http://hl7.org/fhir/us/core/StructureDefinition/us-core-patient"]},"identifier":[{"type":{"coding":[{"system":"http://terminology.hl7.org/CodeSystem/v2-0203","code":"MR"}]},"system":"urn:fhirgen:mrn","value":"088-50-1494"}],"name":[{"family":"Washington","given":["Amber"]}],"telecom":[{"system":"phone","value":"(372)209-8110"}],"gender":"female","birthDate":"1949-04-24","address":[{"line":["664 Amber Point"],"city":"Anthonyhaven","state":"New Mexico","postalCode":"85069"}]},"request":{"method":"POST","url":"Patient"}},{"fullUrl":"Observation/f2f16060-cb23-4348-8569-68af0caf4fd1","resource":{"resourceType":"Observation","id":"f2f16060-cb23-4348-8569-68af0caf4fd1","meta":{"profile":["http://hl7.org/fhir/us/core/StructureDefinition/us-core-observation-lab"]},"status":"final","category":[{"coding":[{"system":"http://terminology.hl7.org/CodeSystem/observation-category","code":"laboratory","display":"Laboratory"}]}],"code":{"coding":[{"system":"http://loinc.org","code":"71793-4"}]},"subject":{"reference":"Patient/cf7a5b05-f83f-4500-92fb-b7c017a0bfb8"},"effectiveDateTime":"2022-06-11T00:00:00+00:00","valueRatio":{"numerator":{"value":1},"denominator":{"value":4}}},"request":{"method":"POST","url":"Observation"}},{"fullUrl":"Observation/365050d2-3a09-4225-886e-d63e0837b9e0","resource":{"resourceType":"Observation","id":"365050d2-3a09-4225-886e-d63e0837b9e0","meta":{"profile":["http://hl7.org/fhir/us/core/StructureDefinition/us-core-observation-lab"]},"status":"final","category":[{"coding":[{"system":"http://terminology.hl7.org/CodeSystem/observation-category","code":"laboratory","display":"Laboratory"}]}],"code":{"coding":[{"system":"http://loinc.org","code":"50690-7"}]},"subject":{"reference":"Patient/cf7a5b05-f83f-4500-92fb-b7c017a0bfb8"},"effectiveDateTime":"2022-03-03T00:00:00+00:00","valueRatio":{"numerator":{"value":1},"denominator":{"value":32}}},"request":{"method":"POST","url":"Observation"}},{"fullUrl":"Observation/eef37d01-3081-42f9-a199-24995cb9a785","resource":{"resourceType":"Observation","id":"eef37d01-3081-42f9-a199-24995cb9a785","meta":{"profile":["http://hl7.org/fhir/us/core/StructureDefinition/us-core-observation-lab"]},"status":"final","category":[{"coding":[{"system":"http://terminology.hl7.org/CodeSystem/observation-category","code":"laboratory","display":"Laboratory"}]}],"code":{"coding":[{"system":"http://loinc.org","code":"22590-4"}]},"subject":{"reference":"Patient/cf7a5b05-f83f-4500-92fb-b7c017a0bfb8"},"effectiveDateTime":"2022-06-02T00:00:00+00:00","valueRatio":{"numerator":{"value":1},"denominator":{"value":64}}},"request":{"method":"POST","url":"Observation"}},{"fullUrl":"Condition/4872cf5f-71a0-4343-8c13-502e46b32a42","resource":{"resourceType":"Condition","id":"4872cf5f-71a0-4343-8c13-502e46b32a42","meta":{"profile":["http://hl7.org/fhir/us/core/StructureDefinition/us-core-condition"]},"clinicalStatus":{"coding":[{"system":"http://terminology.hl7.org/CodeSystem/condition-clinical","code":"active","display":"Active"}]},"category":[{"coding":[{"system":"http://terminology.hl7.org/CodeSystem/condition-ver-status","code":"confirmed"}]}],"code":{"coding":[{"system":"http://snomed.info/sct","code":"44882003"}]},"subject":{"reference":"Patient/cf7a5b05-f83f-4500-92fb-b7c017a0bfb8"},"onsetDateTime":"2022-07-13T00:00:00+00:00"},"request":{"method":"POST","url":"Condition"}},{"fullUrl":"Condition/60a30287-62fa-4477-982b-784b7d53fb4b","resource":{"resourceType":"Condition","id":"60a30287-62fa-4477-982b-784b7d53fb4b","meta":{"profile":["http://hl7.org/fhir/us/core/StructureDefinition/us-core-condition"]},"clinicalStatus":{"coding":[{"system":"http://terminology.hl7.org/CodeSystem/condition-clinical","code":"active","display":"Active"}]},"category":[{"coding":[{"system":"http://terminology.hl7.org/CodeSystem/condition-ver-status","code":"confirmed"}]}],"code":{"coding":[{"system":"http://snomed.info/sct","code":"418290006"}]},"subject":{"reference":"Patient/cf7a5b05-f83f-4500-92fb-b7c017a0bfb8"},"onsetDateTime":"2022-02-27T00:00:00+00:00"},"request":{"method":"POST","url":"Condition"}},{"fullUrl":"Condition/e6ab70d4-618f-4567-93c9-4a732cd685f4","resource":{"resourceType":"Condition","id":"e6ab70d4-618f-4567-93c9-4a732cd685f4","meta":{"profile":["http://hl7.org/fhir/us/core/StructureDefinition/us-core-condition"]},"clinicalStatus":{"coding":[{"system":"http://terminology.hl7.org/CodeSystem/condition-clinical","code":"active","display":"Active"}]},"category":[{"coding":[{"system":"http://terminology.hl7.org/CodeSystem/condition-ver-status","code":"confirmed"}]}],"code":{"coding":[{"system":"http://snomed.info/sct","code":"418290006"}]},"subject":{"reference":"Patient/cf7a5b05-f83f-4500-92fb-b7c017a0bfb8"},"onsetDateTime":"2022-12-28T00:00:00+00:00"},"request":{"method":"POST","url":"Condition"}},{"fullUrl":"Condition/1f1f3274-f8ab-4819-bdd2-26a05218c163","resource":{"resourceType":"Condition","id":"1f1f3274-f8ab-4819-bdd2-26a05218c163","meta":{"profile":["http://hl7.org/fhir/us/core/StructureDefinition/us-core-condition"]},"clinicalStatus":{"coding":[{"system":"http://terminology.hl7.org/CodeSystem/condition-clinical","code":"active","display":"Active"}]},"category":[{"coding":[{"system":"http://terminology.hl7.org/CodeSystem/condition-ver-status","code":"confirmed"}]}],"code":{"coding":[{"system":"http://snomed.info/sct","code":"736686006"}]},"subject":{"reference":"Patient/cf7a5b05-f83f-4500-92fb-b7c017a0bfb8"},"onsetDateTime":"2022-12-07T00:00:00+00:00"},"request":{"method":"POST","url":"Condition"}},{"fullUrl":"Condition/66bfde99-f9e4-4371-9d7a-be759ea07cf7","resource":{"resourceType":"Condition","id":"66bfde99-f9e4-4371-9d7a-be759ea07cf7","meta":{"profile":["http://hl7.org/fhir/us/core/StructureDefinition/us-core-condition"]},"clinicalStatus":{"coding":[{"system":"http://terminology.hl7.org/CodeSystem/condition-clinical","code":"active","display":"Active"}]},"category":[{"coding":[{"system":"http://terminology.hl7.org/CodeSystem/condition-ver-status","code":"confirmed"}]}],"code":{"coding":[{"system":"http://snomed.info/sct","code":"91554004"}]},"subject":{"reference":"Patient/cf7a5b05-f83f-4500-92fb-b7c017a0bfb8"},"onsetDateTime":"2022-01-30T00:00:00+00:00"},"request":{"method":"POST","url":"Condition"}},{"fullUrl":"Observation/652c9e8c-b5c0-4a52-a79f-d6001ce45b4e","resource":{"resourceType":"Observation","id":"652c9e8c-b5c0-4a52-a79f-d6001ce45b4e","meta":{"profile":["http://hl7.org/fhir/us/core/StructureDefinition/us-core-observation-lab"]},"status":"final","category":[{"coding":[{"system":"http://terminology.hl7.org/CodeSystem/observation-category","code":"laboratory","display":"Laboratory"}]}],"code":{"coding":[{"system":"http://loinc.org","code":"49498-9"}]},"subject":{"reference":"Patient/cf7a5b05-f83f-4500-92fb-b7c017a0bfb8"},"effectiveDateTime":"2022-04-09T00:00:00+00:00","valueQuantity":{"value":10.7}},"request":{"method":"POST","url":"Observation"}},{"fullUrl":"Observation/9f81f6c2-4c94-4c58-80ea-07dfdbe7c638","resource":{"resourceType":"Observation","id":"9f81f6c2-4c94-4c58-80ea-07dfdbe7c638","meta":{"profile":["http://hl7.org/fhir/us/core/StructureDefinition/us-core-observation-lab"]},"status":"final","category":[{"coding":[{"system":"http://terminology.hl7.org/CodeSystem/observation-category","code":"laboratory","display":"Laboratory"}]}],"code":{"coding":[{"system":"http://loinc.org","code":"26464-8"}]},"subject":{"reference":"Patient/cf7a5b05-f83f-4500-92fb-b7c017a0bfb8"},"effectiveDateTime":"2022-05-05T00:00:00+00:00","valueQuantity":{"value":4.9}},"request":{"method":"POST","url":"Observation"}},{"fullUrl":"Observation/21dad62c-8752-4849-aed4-95d945c61a28","resource":{"resourceType":"Observation","id":"21dad62c-8752-4849-aed4-95d945c61a28","meta":{"profile":["http://hl7.org/fhir/us/core/StructureDefinition/us-core-bmi"]},"status":"final","category":[{"coding":[{"system":"http://terminology.hl7.org/CodeSystem/observation-category","code":"vital-signs","display":"Vital Signs"}]}],"code":{"coding":[{"system":"http://loinc.org","code":"39156-5"}]},"subject":{"reference":"Patient/cf7a5b05-f83f-4500-92fb-b7c017a0bfb8"},"effectiveDateTime":"2022-12-01T00:00:00+00:00","valueQuantity":{"value":23.1,"unit":"kg/m2","system":"http://unitsofmeasure.org","code":"kg/m2"}},"request":{"method":"POST","url":"Observation"}},{"fullUrl":"Observation/b5331d69-8d13-4216-9695-c8d0476deb63","resource":{"resourceType":"Observation","id":"b5331d69-8d13-4216-9695-c8d0476deb63","meta":{"profile":["http://hl7.org/fhir/us/core/StructureDefinition/us-core-bmi"]},"status":"final","category":[{"coding":[{"system":"http://terminology.hl7.org/CodeSystem/observation-category","code":"vital-signs","display":"Vital Signs"}]}],"code":{"coding":[{"system":"http://loinc.org","code":"39156-5"}]},"subject":{"reference":"Patient/cf7a5b05-f83f-4500-92fb-b7c017a0bfb8"},"effectiveDateTime":"2022-11-28T00:00:00+00:00","valueQuantity":{"value":26.06,"unit":"kg/m2","system":"http://unitsofmeasure.org","code":"kg/m2"}},"request":{"method":"POST","url":"Observation"}},{"fullUrl":"Observation/c3d00251-894f-41c4-b8f3-e1a39b935f1f","resource":{"resourceType":"Observation","id":"c3d00251-894f-41c4-b8f3-e1a39b935f1f","meta":{"profile":["http://hl7.org/fhir/us/core/StructureDefinition/us-core-head-circumference"]},"status":"final","category":[{"coding":[{"system":"http://terminology.hl7.org/CodeSystem/observation-category","code":"vital-signs","display":"Vital Signs"}]}],"code":{"coding":[{"system":"http://loinc.org","code":"9843-4"}]},"subject":{"reference":"Patient/cf7a5b05-f83f-4500-92fb-b7c017a0bfb8"},"effectiveDateTime":"2022-04-28T00:00:00+00:00","valueQuantity":{"value":1.5,"unit":"Inch","system":"http://unitsofmeasure.org","code":"[in_i]"}},"request":{"method":"POST","url":"Observation"}},{"fullUrl":"Observation/e840657f-d0ee-4e69-aaf5-ec235131fd57","resource":{"resourceType":"Observation","id":"e840657f-d0ee-4e69-aaf5-ec235131fd57","meta":{"profile":["http://hl7.org/fhir/us/core/StructureDefinition/us-core-head-circumference"]},"status":"final","category":[{"coding":[{"system":"http://terminology.hl7.org/CodeSystem/observation-category","code":"vital-signs","display":"Vital Signs"}]}],"code":{"coding":[{"system":"http://loinc.org","code":"9843-4"}]},"subject":{"reference":"Patient/cf7a5b05-f83f-4500-92fb-b7c017a0bfb8"},"effectiveDateTime":"2022-04-09T00:00:00+00:00","valueQuantity":{"value":4.2,"unit":"Inch","system":"http://unitsofmeasure.org","code":"[in_i]"}},"request":{"method":"POST","url":"Observation"}},{"fullUrl":"Observation/61db30c9-5c3c-46ee-8c6a-62954a64187f","resource":{"resourceType":"Observation","id":"61db30c9-5c3c-46ee-8c6a-62954a64187f","meta":{"profile":["http://hl7.org/fhir/us/core/StructureDefinition/us-core-body-height"]},"status":"final","category":[{"coding":[{"system":"http://terminology.hl7.org/CodeSystem/observation-category","code":"vital-signs","display":"Vital Signs"}]}],"code":{"coding":[{"system":"http://loinc.org","code":"8302-2"}]},"subject":{"reference":"Patient/cf7a5b05-f83f-4500-92fb-b7c017a0bfb8"},"effectiveDateTime":"2022-11-06T00:00:00+00:00","valueQuantity":{"value":78.9,"unit":"Inch","system":"http://unitsofmeasure.org","code":"[in_i]"}},"request":{"method":"POST","url":"Observation"}},{"fullUrl":"Observation/bf1aa823-3d1c-4896-9e6c-ae434bb7ff99","resource":{"resourceType":"Observation","id":"bf1aa823-3d1c-4896-9e6c-ae434bb7ff99","meta":{"profile":["http://hl7.org/fhir/us/core/StructureDefinition/us-core-body-height"]},"status":"final","category":[{"coding":[{"system":"http://terminology.hl7.org/CodeSystem/observation-category","code":"vital-signs","display":"Vital Signs"}]}],"code":{"coding":[{"system":"http://loinc.org","code":"8302-2"}]},"subject":{"reference":"Patient/cf7a5b05-f83f-4500-92fb-b7c017a0bfb8"},"effectiveDateTime":"2022-03-24T00:00:00+00:00","valueQuantity":{"value":62.5,"unit":"Inch","system":"http://unitsofmeasure.org","code":"[in_i]"}},"request":{"method":"POST","url":"Observation"}},{"fullUrl":"Observation/27269ebe-8101-4f13-ad75-823563674fbe","resource":{"resourceType":"Observation","id":"27269ebe-8101-4f13-ad75-823563674fbe","meta":{"profile":["http://hl7.org/fhir/us/core/StructureDefinition/us-core-body-weight"]},"status":"final","category":[{"coding":[{"system":"http://terminology.hl7.org/CodeSystem/observation-category","code":"vital-signs","display":"Vital Signs"}]}],"code":{"coding":[{"system":"http://loinc.org","code":"29463-7"}]},"subject":{"reference":"Patient/cf7a5b05-f83f-4500-92fb-b7c017a0bfb8"},"effectiveDateTime":"2022-01-23T00:00:00+00:00","valueQuantity":{"value":129.32,"unit":"kilogram","system":"http://unitsofmeasure.org","code":"kg"}},"request":{"method":"POST","url":"Observation"}},{"fullUrl":"Observation/195fe4ed-a1ef-4477-a252-6b0ea3b29f5e","resource":{"resourceType":"Observation","id":"195fe4ed-a1ef-4477-a252-6b0ea3b29f5e","meta":{"profile":["http://hl7.org/fhir/us/core/StructureDefinition/us-core-body-weight"]},"status":"final","category":[{"coding":[{"system":"http://terminology.hl7.org/CodeSystem/observation-category","code":"vital-signs","display":"Vital Signs"}]}],"code":{"coding":[{"system":"http://loinc.org","code":"29463-7"}]},"subject":{"reference":"Patient/cf7a5b05-f83f-4500-92fb-b7c017a0bfb8"},"effectiveDateTime":"2022-12-10T00:00:00+00:00","valueQuantity":{"value":70.93,"unit":"kilogram","system":"http://unitsofmeasure.org","code":"kg"}},"request":{"method":"POST","url":"Observation"}},{"fullUrl":"Observation/3faa9d57-ab06-4558-8259-ed51224094ae","resource":{"resourceType":"Observation","id":"3faa9d57-ab06-4558-8259-ed51224094ae","meta":{"profile":["http://hl7.org/fhir/us/core/StructureDefinition/us-core-body-temperature"]},"status":"final","category":[{"coding":[{"system":"http://terminology.hl7.org/CodeSystem/observation-category","code":"vital-signs","display":"Vital Signs"}]}],"code":{"coding":[{"system":"http://loinc.org","code":"8310-5"}]},"subject":{"reference":"Patient/cf7a5b05-f83f-4500-92fb-b7c017a0bfb8"},"effectiveDateTime":"2022-04-03T00:00:00+00:00","valueQuantity":{"value":64.07,"unit":"kilogram","system":"http://unitsofmeasure.org","code":"kg"}},"request":{"method":"POST","url":"Observation"}},{"fullUrl":"Observation/abd04b31-c567-423d-a541-1075bab7d9f8","resource":{"resourceType":"Observation","id":"abd04b31-c567-423d-a541-1075bab7d9f8","meta":{"profile":["http://hl7.org/fhir/us/core/StructureDefinition/us-core-heart-rate"]},"status":"final","category":[{"coding":[{"system":"http://terminology.hl7.org/CodeSystem/observation-category","code":"vital-signs","display":"Vital Signs"}]}],"code":{"coding":[{"system":"http://loinc.org","code":"8867-4"}]},"subject":{"reference":"Patient/cf7a5b05-f83f-4500-92fb-b7c017a0bfb8"},"effectiveDateTime":"2022-05-28T00:00:00+00:00","valueQuantity":{"value":99.3,"unit":"Degrees Fahrenheit","system":"http://unitsofmeasure.org","code":"[degF]"}},"request":{"method":"POST","url":"Observation"}},{"fullUrl":"Patient/d04293f5-1714-44cb-81dc-f86d1df821c4","resource":{"resourceType":"Patient","id":"d04293f5-1714-44cb-81dc-f86d1df821c4","meta":{"profile":["http://hl7.org/fhir/us/core/StructureDefinition/us-core-patient"]},"identifier":[{"type":{"coding":[{"system":"http://terminology.hl7.org/CodeSystem/v2-0203","code":"MR"}]},"system":"urn:fhirgen:mrn","value":"601-01-6348"}],"name":[{"family":"Golden","given":["Jamie"]}],"telecom":[{"system":"phone","value":"001-651-393-6034x679"}],"gender":"other","birthDate":"1977-03-13","address":[{"line":["32371 Stokes Spurs"],"city":"Vargasstad","state":"Maine","postalCode":"87721"}]},"request":{"method":"POST","url":"Patient"}},{"fullUrl":"Observation/68f6763d-77d5-49dd-84f9-f01128b07a68","resource":{"resourceType":"Observation","id":"68f6763d-77d5-49dd-84f9-f01128b07a68","meta":{"profile":["http://hl7.org/fhir/us/core/StructureDefinition/us-core-observation-lab"]},"status":"final","category":[{"coding":[{"system":"http://terminology.hl7.org/CodeSystem/observation-category","code":"laboratory","display":"Laboratory"}]}],"code":{"coding":[{"system":"http://loinc.org","code":"71793-4"}]},"subject":{"reference":"Patient/d04293f5-1714-44cb-81dc-f86d1df821c4"},"effectiveDateTime":"2022-11-02T00:00:00+00:00","valueRatio":{"numerator":{"value":1},"denominator":{"value":64}}},"request":{"method":"POST","url":"Observation"}},{"fullUrl":"Observation/f50a9ef5-32d4-4591-9a47-da5ac640ce4d","resource":{"resourceType":"Observation","id":"f50a9ef5-32d4-4591-9a47-da5ac640ce4d","meta":{"profile":["http://hl7.org/fhir/us/core/StructureDefinition/us-core-observation-lab"]},"status":"final","category":[{"coding":[{"system":"http://terminology.hl7.org/CodeSystem/observation-category","code":"laboratory","display":"Laboratory"}]}],"code":{"coding":[{"system":"http://loinc.org","code":"31146-4"}]},"subject":{"reference":"Patient/d04293f5-1714-44cb-81dc-f86d1df821c4"},"effectiveDateTime":"2022-04-04T00:00:00+00:00","valueRatio":{"numerator":{"value":1},"denominator":{"value":64}}},"request":{"method":"POST","url":"Observation"}},{"fullUrl":"Observation/5431593e-ff03-448c-9938-5cd6d6a16946","resource":{"resourceType":"Observation","id":"5431593e-ff03-448c-9938-5cd6d6a16946","meta":{"profile":["http://hl7.org/fhir/us/core/StructureDefinition/us-core-observation-lab"]},"status":"final","category":[{"coding":[{"system":"http://terminology.hl7.org/CodeSystem/observation-category","code":"laboratory","display":"Laboratory"}]}],"code":{"coding":[{"system":"http://loinc.org","code":"50690-7"}]},"subject":{"reference":"Patient/d04293f5-1714-44cb-81dc-f86d1df821c4"},"effectiveDateTime":"2022-10-03T00:00:00+00:00","valueRatio":{"numerator":{"value":1},"denominator":{"value":4}}},"request":{"method":"POST","url":"Observation"}},{"fullUrl":"Condition/ff5201d3-5d07-409e-a9ff-dc3cb8707c6d","resource":{"resourceType":"Condition","id":"ff5201d3-5d07-409e-a9ff-dc3cb8707c6d","meta":{"profile":["http://hl7.org/fhir/us/core/StructureDefinition/us-core-condition"]},"clinicalStatus":{"coding":[{"system":"http://terminology.hl7.org/CodeSystem/condition-clinical","code":"active","display":"Active"}]},"category":[{"coding":[{"system":"http://terminology.hl7.org/CodeSystem/condition-ver-status","code":"confirmed"}]}],"code":{"coding":[{"system":"http://snomed.info/sct","code":"736686006"}]},"subject":{"reference":"Patient/d04293f5-1714-44cb-81dc-f86d1df821c4"},"onsetDateTime":"2022-05-26T00:00:00+00:00"},"request":{"method":"POST","url":"Condition"}},{"fullUrl":"Condition/5275c685-8ad4-4b49-87b1-a2945c3447ba","resource":{"resourceType":"Condition","id":"5275c685-8ad4-4b49-87b1-a2945c3447ba","meta":{"profile":["http://hl7.org/fhir/us/core/StructureDefinition/us-core-condition"]},"clinicalStatus":{"coding":[{"system":"http://terminology.hl7.org/CodeSystem/condition-clinical","code":"active","display":"Active"}]},"category":[{"coding":[{"system":"http://terminology.hl7.org/CodeSystem/condition-ver-status","code":"confirmed"}]}],"code":{"coding":[{"system":"http://snomed.info/sct","code":"709977002"}]},"subject":{"reference":"Patient/d04293f5-1714-44cb-81dc-f86d1df821c4"},"onsetDateTime":"2022-01-04T00:00:00+00:00"},"request":{"method":"POST","url":"Condition"}},{"fullUrl":"Condition/d9a59339-b0b7-4392-a415-027fbe19eb05","resource":{"resourceType":"Condition","id":"d9a59339-b0b7-4392-a415-027fbe19eb05","meta":{"profile":["http://hl7.org/fhir/us/core/StructureDefinition/us-core-condition"]},"clinicalStatus":{"coding":[{"system":"http://terminology.hl7.org/CodeSystem/condition-clinical","code":"active","display":"Active"}]},"category":[{"coding":[{"system":"http://terminology.hl7.org/CodeSystem/condition-ver-status","code":"confirmed"}]}],"code":{"coding":[{"system":"http://snomed.info/sct","code":"709977002"}]},"subject":{"reference":"Patient/d04293f5-1714-44cb-81dc-f86d1df821c4"},"onsetDateTime":"2022-11-28T00:00:00+00:00"},"request":{"method":"POST","url":"Condition"}},{"fullUrl":"Observation/3f1222a7-91c3-4787-9483-ff05201c0b90","resource":{"resourceType":"Observation","id":"3f1222a7-91c3-4787-9483-ff05201c0b90","meta":{"profile":["http://hl7.org/fhir/us/core/StructureDefinition/us-core-observation-lab"]},"status":"final","category":[{"coding":[{"system":"http://terminology.hl7.org/CodeSystem/observation-category","code":"laboratory","display":"Laboratory"}]}],"code":{"coding":[{"system":"http://loinc.org","code":"6690-2"}]},"subject":{"reference":"Patient/d04293f5-1714-44cb-81dc-f86d1df821c4"},"effectiveDateTime":"2022-11-12T00:00:00+00:00","valueQuantity":{"value":7.3}},"request":{"method":"POST","url":"Observation"}},{"fullUrl":"Observation/4712d7b3-558d-4813-bf90-e3bb4e152af6","resource":{"resourceType":"Observation","id":"4712d7b3-558d-4813-bf90-e3bb4e152af6","meta":{"profile":["http://hl7.org/fhir/us/core/StructureDefinition/us-core-observation-lab"]},"status":"final","category":[{"coding":[{"system":"http://terminology.hl7.org/CodeSystem/observation-category","code":"laboratory","display":"Laboratory"}]}],"code":{"coding":[{"system":"http://loinc.org","code":"26464-8"}]},"subject":{"reference":"Patient/d04293f5-1714-44cb-81dc-f86d1df821c4"},"effectiveDateTime":"2022-03-22T00:00:00+00:00","valueQuantity":{"value":9.2}},"request":{"method":"POST","url":"Observation"}},{"fullUrl":"Observation/7999641f-aa65-4e46-898b-bc17f780ae46","resource":{"resourceType":"Observation","id":"7999641f-aa65-4e46-898b-bc17f780ae46","meta":{"profile":["http://hl7.org/fhir/us/core/StructureDefinition/us-core-bmi"]},"status":"final","category":[{"coding":[{"system":"http://terminology.hl7.org/CodeSystem/observation-category","code":"vital-signs","display":"Vital Signs"}]}],"code":{"coding":[{"system":"http://loinc.org","code":"39156-5"}]},"subject":{"reference":"Patient/d04293f5-1714-44cb-81dc-f86d1df821c4"},"effectiveDateTime":"2022-02-17T00:00:00+00:00","valueQuantity":{"value":15.53,"unit":"kg/m2","system":"http://unitsofmeasure.org","code":"kg/m2"}},"request":{"method":"POST","url":"Observation"}},{"fullUrl":"Observation/cf22fa45-5a97-48bb-a67d-d6a52324a608","resource":{"resourceType":"Observation","id":"cf22fa45-5a97-48bb-a67d-d6a52324a608","meta":{"profile":["http://hl7.org/fhir/us/core/StructureDefinition/us-core-bmi"]},"status":"final","category":[{"coding":[{"system":"http://terminology.hl7.org/CodeSystem/observation-category","code":"vital-signs","display":"Vital Signs"}]}],"code":{"coding":[{"system":"http://loinc.org","code":"39156-5"}]},"subject":{"reference":"Patient/d04293f5-1714-44cb-81dc-f86d1df821c4"},"effectiveDateTime":"2022-01-25T00:00:00+00:00","valueQuantity":{"value":20.83,"unit":"kg/m2","system":"http://unitsofmeasure.org","code":"kg/m2"}},"request":{"method":"POST","url":"Observation"}},{"fullUrl":"Observation/52863632-4e26-4813-8392-a53faebdeec3","resource":{"resourceType":"Observation","id":"52863632-4e26-4813-8392-a53faebdeec3","meta":{"profile":["http://hl7.org/fhir/us/core/StructureDefinition/us-core-head-circumference"]},"status":"final","category":[{"coding":[{"system":"http://terminology.hl7.org/CodeSystem/observation-category","code":"vital-signs","display":"Vital Signs"}]}],"code":{"coding":[{"system":"http://loinc.org","code":"9843-4"}]},"subject":{"reference":"Patient/d04293f5-1714-44cb-81dc-f86d1df821c4"},"effectiveDateTime":"2022-10-18T00:00:00+00:00","valueQuantity":{"value":7.1,"unit":"Inch","system":"http://unitsofmeasure.org","code":"[in_i]"}},"request":{"method":"POST","url":"Observation"}},{"fullUrl":"Observation/c16f989b-4db1-4d39-a19d-20f687833bb9","resource":{"resourceType":"Observation","id":"c16f989b-4db1-4d39-a19d-20f687833bb9","meta":{"profile":["http://hl7.org/fhir/us/core/StructureDefinition/us-core-head-circumference"]},"status":"final","category":[{"coding":[{"system":"http://terminology.hl7.org/CodeSystem/observation-category","code":"vital-signs","display":"Vital Signs"}]}],"code":{"coding":[{"system":"http://loinc.org","code":"9843-4"}]},"subject":{"reference":"Patient/d04293f5-1714-44cb-81dc-f86d1df821c4"},"effectiveDateTime":"2022-11-17T00:00:00+00:00","valueQuantity":{"value":7.4,"unit":"Inch","system":"http://unitsofmeasure.org","code":"[in_i]"}},"request":{"method":"POST","url":"Observation"}},{"fullUrl":"Observation/e8c1f582-c923-44c5-aad7-98719536b9e7","resource":{"resourceType":"Observation","id":"e8c1f582-c923-44c5-aad7-98719536b9e7","meta":{"profile":["http://hl7.org/fhir/us/core/StructureDefinition/us-core-body-height"]},"status":"final","category":[{"coding":[{"system":"http://terminology.hl7.org/CodeSystem/observation-category","code":"vital-signs","display":"Vital Signs"}]}],"code":{"coding":[{"system":"http://loinc.org","code":"8302-2"}]},"subject":{"reference":"Patient/d04293f5-1714-44cb-81dc-f86d1df821c4"},"effectiveDateTime":"2022-12-28T00:00:00+00:00","valueQuantity":{"value":66.7,"unit":"Inch","system":"http://unitsofmeasure.org","code":"[in_i]"}},"request":{"method":"POST","url":"Observation"}},{"fullUrl":"Observation/4b8958cc-fcf1-4f25-8897-855aa4f4b434","resource":{"resourceType":"Observation","id":"4b8958cc-fcf1-4f25-8897-855aa4f4b434","meta":{"profile":["http://hl7.org/fhir/us/core/StructureDefinition/us-core-body-weight"]},"status":"final","category":[{"coding":[{"system":"http://terminology.hl7.org/CodeSystem/observation-category","code":"vital-signs","display":"Vital Signs"}]}],"code":{"coding":[{"system":"http://loinc.org","code":"29463-7"}]},"subject":{"reference":"Patient/d04293f5-1714-44cb-81dc-f86d1df821c4"},"effectiveDateTime":"2022-03-29T00:00:00+00:00","valueQuantity":{"value":129.79,"unit":"kilogram","system":"http://unitsofmeasure.org","code":"kg"}},"request":{"method":"POST","url":"Observation"}},{"fullUrl":"Observation/6767c1b7-1987-478a-a6b5-8e48d257b81c","resource":{"resourceType":"Observation","id":"6767c1b7-1987-478a-a6b5-8e48d257b81c","meta":{"profile":["http://hl7.org/fhir/us/core/StructureDefinition/us-core-body-weight"]},"status":"final","category":[{"coding":[{"system":"http://terminology.hl7.org/CodeSystem/observation-category","code":"vital-signs","display":"Vital Signs"}]}],"code":{"coding":[{"system":"http://loinc.org","code":"29463-7"}]},"subject":{"reference":"Patient/d04293f5-1714-44cb-81dc-f86d1df821c4"},"effectiveDateTime":"2022-06-25T00:00:00+00:00","valueQuantity":{"value":143.39,"unit":"kilogram","system":"http://unitsofmeasure.org","code":"kg"}},"request":{"method":"POST","url":"Observation"}},{"fullUrl":"Observation/9213db4d-19fc-4a27-b121-7e99d946dc8e","resource":{"resourceType":"Observation","id":"9213db4d-19fc-4a27-b121-7e99d946dc8e","meta":{"profile":["http://hl7.org/fhir/us/core/StructureDefinition/us-core-body-temperature"]},"status":"final","category":[{"coding":[{"system":"http://terminology.hl7.org/CodeSystem/observation-category","code":"vital-signs","display":"Vital Signs"}]}],"code":{"coding":[{"system":"http://loinc.org","code":"8310-5"}]},"subject":{"reference":"Patient/d04293f5-1714-44cb-81dc-f86d1df821c4"},"effectiveDateTime":"2022-09-18T00:00:00+00:00","valueQuantity":{"value":35.05,"unit":"kilogram","system":"http://unitsofmeasure.org","code":"kg"}},"request":{"method":"POST","url":"Observation"}},{"fullUrl":"Observation/c7b0885c-8b4c-44d1-acb8-6c6d66d8a3f7","resource":{"resourceType":"Observation","id":"c7b0885c-8b4c-44d1-acb8-6c6d66d8a3f7","meta":{"profile":["http://hl7.org/fhir/us/core/StructureDefinition/us-core-body-temperature"]},"status":"final","category":[{"coding":[{"system":"http://terminology.hl7.org/CodeSystem/observation-category","code":"vital-signs","display":"Vital Signs"}]}],"code":{"coding":[{"system":"http://loinc.org","code":"8310-5"}]},"subject":{"reference":"Patient/d04293f5-1714-44cb-81dc-f86d1df821c4"},"effectiveDateTime":"2022-12-18T00:00:00+00:00","valueQuantity":{"value":55.38,"unit":"kilogram","system":"http://unitsofmeasure.org","code":"kg"}},"request":{"method":"POST","url":"Observation"}},{"fullUrl":"Observation/ccaeb04d-acf6-4e4c-9bfb-56f2c2527c2f","resource":{"resourceType":"Observation","id":"ccaeb04d-acf6-4e4c-9bfb-56f2c2527c2f","meta":{"profile":["http://hl7.org/fhir/us/core/StructureDefinition/us-core-heart-rate"]},"status":"final","category":[{"coding":[{"system":"http://terminology.hl7.org/CodeSystem/observation-category","code":"vital-signs","display":"Vital Signs"}]}],"code":{"coding":[{"system":"http://loinc.org","code":"8867-4"}]},"subject":{"reference":"Patient/d04293f5-1714-44cb-81dc-f86d1df821c4"},"effectiveDateTime":"2022-12-26T00:00:00+00:00","valueQuantity":{"value":98.6,"unit":"Degrees Fahrenheit","system":"http://unitsofmeasure.org","code":"[degF]"}},"request":{"method":"POST","url":"Observation"}},{"fullUrl":"Observation/e37b6a6d-9e60-4e89-9a35-a18a79760b3e","resource":{"resourceType":"Observation","id":"e37b6a6d-9e60-4e89-9a35-a18a79760b3e","meta":{"profile":["http://hl7.org/fhir/us/core/StructureDefinition/us-core-heart-rate"]},"status":"final","category":[{"coding":[{"system":"http://terminology.hl7.org/CodeSystem/observation-category","code":"vital-signs","display":"Vital Signs"}]}],"code":{"coding":[{"system":"http://loinc.org","code":"8867-4"}]},"subject":{"reference":"Patient/d04293f5-1714-44cb-81dc-f86d1df821c4"},"effectiveDateTime":"2022-01-26T00:00:00+00:00","valueQuantity":{"value":101.8,"unit":"Degrees Fahrenheit","system":"http://unitsofmeasure.org","code":"[degF]"}},"request":{"method":"POST","url":"Observation"}}]}