{"resourceType":"Bundle","id":"8a214da8-78dc-4642-a439-1879320e0711","type":"collection","entry":[{"fullUrl":"Patient/97303cfc-e993-4629-a86e-5eff5281cd68","resource":{"resourceType":"Patient","id":"97303cfc-e993-4629-a86e-5eff5281cd68","meta":{"profile":["http://hl7.org/fhir/us/core/StructureDefinition/us-core-patient"]},"extension":[{"extension":[{"url":"ombCategory","valueCoding":{"system":"urn:oid:2.16.840.1.113883.6.238","code":"2028-9","display":"Asian"}},{"url":"text","valueString":"Asian"}],"url":"http://hl7.org/fhir/us/core/StructureDefinition/us-core-race"},{"extension":[{"url":"ombCategory","valueCoding":{"system":"urn:oid:2.16.840.1.113883.6.238","code":"2186-5","display":"Not Hispanic or Latino"}},{"url":"text","valueString":"Not Hispanic or Latino"}],"url":"http://hl7.org/fhir/us/core/StructureDefinition/us-core-ethnicity"}],"identifier":[{"type":{"coding":[{"system":"http://terminology.hl7.org/CodeSystem/v2-0203","code":"MR"}]},"system":"urn:fhirgen:mrn","value":"556-65-8453"},{"system":"http://hl7.org/fhir/sid/us-ssn","value":"644-83-3866"}],"name":[{"use":"official","family":"Fields","given":["Timothy"]},{"use":"maiden","family":"Taylor"}],"telecom":[{"system":"phone","value":"1042918649","use":"work"},{"system":"email","value":"erin96@gmail.com","use":"home"}],"gender":"male","birthDate":"1988-10-11","address":[{"use":"home","line":["21396 Green Rapid"],"city":"East Phyllisberg","state":"NC","postalCode":"13781"},{"use":"old","line":["47112 English Canyon"],"city":"East Jenna","state":"RI","postalCode":"47398"}],"maritalStatus":{"coding":[{"system":"http://terminology.hl7.org/CodeSystem/v3-MaritalStatus","code":"U","display":"unmarried"}]}}},{"fullUrl":"Observation/f3ace034-7a78-446c-940e-a0e899991ef2","resource":{"resourceType":"Observation","id":"f3ace034-7a78-446c-940e-a0e899991ef2","meta":{"profile":["http://hl7.org/fhir/us/core/StructureDefinition/us-core-observation-lab"]},"status":"final","category":[{"coding":[{"system":"http://terminology.hl7.org/CodeSystem/observation-category","code":"laboratory","display":"Laboratory"}]}],"code":{"coding":[{"system":"http://loinc.org","code":"87925-4"}]},"subject":{"reference":"Patient/97303cfc-e993-4629-a86e-5eff5281cd68"},"effectiveDateTime":"2022-02-16T00:00:00+00:00","valueRatio":{"numerator":{"value":1},"denominator":{"value":32}}}},{"fullUrl":"Observation/559c312c-bc7f-4fbd-a6ba-848e7bf220fd","resource":{"resourceType":"Observation","id":"559c312c-bc7f-4fbd-a6ba-848e7bf220fd","meta":{"profile":["http://hl7.org/fhir/us/core/StructureDefinition/us-core-observation-lab"]},"status":"final","category":[{"coding":[{"system":"http://terminology.hl7.org/CodeSystem/observation-category","code":"laboratory","display":"Laboratory"}]}],"code":{"coding":[{"system":"http://loinc.org","code":"51475-2"}]},"subject":{"reference":"Patient/97303cfc-e993-4629-a86e-5eff5281cd68"},"effectiveDateTime":"2022-07-15T00:00:00+00:00","valueRatio":{"numerator":{"value":1},"denominator":{"value":32}}}},{"fullUrl":"Condition/9ddd0301-9690-4e5e-b849-bf7f57fdce21","resource":{"resourceType":"Condition","id":"9ddd0301-9690-4e5e-b849-bf7f57fdce21","meta":{"profile":["http://hl7.org/fhir/us/core/StructureDefinition/us-core-condition"]},"clinicalStatus":{"coding":[{"system":"http://terminology.hl7.org/CodeSystem/condition-clinical","code":"active","display":"Active"}]},"category":[{"coding":[{"system":"http://terminology.hl7.org/CodeSystem/condition-category","code":"problem-list-item"}]}],"code":{"coding":[{"system":"http://snomed.info/sct","code":"709977002"}]},"subject":{"reference":"Patient/97303cfc-e993-4629-a86e-5eff5281cd68"},"onsetDateTime":"2022-02-13T00:00:00+00:00"}},{"fullUrl":"Condition/487d6255-4900-45da-9990-847855855c87","resource":{"resourceType":"Condition","id":"487d6255-4900-45da-9990-847855855c87","meta":{"profile":["http://hl7.org/fhir/us/core/StructureDefinition/us-core-condition"]},"clinicalStatus":{"coding":[{"system":"http://terminology.hl7.org/CodeSystem/condition-clinical","code":"active","display":"Active"}]},"category":[{"coding":[{"system":"http://terminology.hl7.org/CodeSystem/condition-category","code":"problem-list-item"}]}],"code":{"coding":[{"system":"http://snomed.info/sct","code":"44882003"}]},"subject":{"reference":"Patient/97303cfc-e993-4629-a86e-5eff5281cd68"},"onsetDateTime":"2022-04-13T00:00:00+00:00"}},{"fullUrl":"Condition/ab3a3242-5f88-4632-907b-184e8615a1e3","resource":{"resourceType":"Condition","id":"ab3a3242-5f88-4632-907b-184e8615a1e3","meta":{"profile":["http://hl7.org/fhir/us/core/StructureDefinition/us-core-condition"]},"clinicalStatus":{"coding":[{"system":"http://terminology.hl7.org/CodeSystem/condition-clinical","code":"active","display":"Active"}]},"category":[{"coding":[{"system":"http://terminology.hl7.org/CodeSystem/condition-category","code":"problem-list-item"}]}],"code":{"coding":[{"system":"http://snomed.info/sct","code":"44882003"}]},"subject":{"reference":"Patient/97303cfc-e993-4629-a86e-5eff5281cd68"},"onsetDateTime":"2022-02-10T00:00:00+00:00"}},{"fullUrl":"Condition/9225ad11-5252-4a85-95d5-e1db01ae359b","resource":{"resourceType":"Condition","id":"9225ad11-5252-4a85-95d5-e1db01ae359b","meta":{"profile":["http://hl7.org/fhir/us/core/StructureDefinition/us-core-condition"]},"clinicalStatus":{"coding":[{"system":"http://terminology.hl7.org/CodeSystem/condition-clinical","code":"active","display":"Active"}]},"category":[{"coding":[{"system":"http://terminology.hl7.org/CodeSystem/condition-category","code":"problem-list-item"}]}],"code":{"coding":[{"system":"http://snomed.info/sct","code":"418290006"}]},"subject":{"reference":"Patient/97303cfc-e993-4629-a86e-5eff5281cd68"},"onsetDateTime":"2022-05-29T00:00:00+00:00"}},{"fullUrl":"Condition/e2516a4e-ad17-45c1-bf32-7ffb86e5822c","resource":{"resourceType":"Condition","id":"e2516a4e-ad17-45c1-bf32-7ffb86e5822c","meta":{"profile":["http://hl7.org/fhir/us/core/StructureDefinition/us-core-condition"]},"clinicalStatus":{"coding":[{"system":"http://terminology.hl7.org/CodeSystem/condition-clinical","code":"active","display":"Active"}]},"category":[{"coding":[{"system":"http://terminology.hl7.org/CodeSystem/condition-category","code":"problem-list-item"}]}],"code":{"coding":[{"system":"http://snomed.info/sct","code":"418290006"}]},"subject":{"reference":"Patient/97303cfc-e993-4629-a86e-5eff5281cd68"},"onsetDateTime":"2022-04-25T00:00:00+00:00"}},{"fullUrl":"Observation/197a4cf4-ce30-4d7a-a717-2fd3182ef028","resource":{"resourceType":"Observation","id":"197a4cf4-ce30-4d7a-a717-2fd3182ef028","meta":{"profile":["http://hl7.org/fhir/us/core/StructureDefinition/us-core-observation-lab"]},"status":"final","category":[{"coding":[{"system":"http://terminology.hl7.org/CodeSystem/observation-category","code":"laboratory","display":"Laboratory"}]}],"code":{"coding":[{"system":"http://loinc.org","code":"804-5"}]},"subject":{"reference":"Patient/97303cfc-e993-4629-a86e-5eff5281cd68"},"effectiveDateTime":"2022-09-13T00:00:00+00:00","valueQuantity":{"value":10.2}}},{"fullUrl":"Observation/8ef0e8b1-817d-4a97-935a-88fb050f910b","resource":{"resourceType":"Observation","id":"8ef0e8b1-817d-4a97-935a-88fb050f910b","meta":{"profile":["http://hl7.org/fhir/us/core/StructureDefinition/us-core-observation-lab"]},"status":"final","category":[{"coding":[{"system":"http://terminology.hl7.org/CodeSystem/observation-category","code":"laboratory","display":"Laboratory"}]}],"code":{"coding":[{"system":"http://loinc.org","code":"26464-8"}]},"subject":{"reference":"Patient/97303cfc-e993-4629-a86e-5eff5281cd68"},"effectiveDateTime":"2022-09-11T00:00:00+00:00","valueQuantity":{"value":10.8}}},{"fullUrl":"Observation/4cb8e771-a41a-407d-bfeb-1a3fe96b427d","resource":{"resourceType":"Observation","id":"4cb8e771-a41a-407d-bfeb-1a3fe96b427d","meta":{"profile":["http://hl7.org/fhir/us/core/StructureDefinition/us-core-observation-lab"]},"status":"final","category":[{"coding":[{"system":"http://terminology.hl7.org/CodeSystem/observation-category","code":"laboratory","display":"Laboratory"}]}],"code":{"coding":[{"system":"http://loinc.org","code":"26464-8"}]},"subject":{"reference":"Patient/97303cfc-e993-4629-a86e-5eff5281cd68"},"effectiveDateTime":"2022-11-13T00:00:00+00:00","valueQuantity":{"value":8.3}}},{"fullUrl":"Observation/6a018afe-244a-4ba6-ad2b-c34b43d066a7","resource":{"resourceType":"Observation","id":"6a018afe-244a-4ba6-ad2b-c34b43d066a7","meta":{"profile":["http://hl7.org/fhir/us/core/StructureDefinition/us-core-bmi"]},"status":"final","category":[{"coding":[{"system":"http://terminology.hl7.org/CodeSystem/observation-category","code":"vital-signs","display":"Vital Signs"}]}],"code":{"coding":[{"system":"http://loinc.org","code":"39156-5"}]},"subject":{"reference":"Patient/97303cfc-e993-4629-a86e-5eff5281cd68"},"effectiveDateTime":"2022-12-07T00:00:00+00:00","valueQuantity":{"value":23.42,"unit":"kg/m2","system":"http://unitsofmeasure.org","code":"kg/m2"}}},{"fullUrl":"Observation/5e46770a-83c6-4472-8313-b24e8451e958","resource":{"resourceType":"Observation","id":"5e46770a-83c6-4472-8313-b24e8451e958","meta":{"profile":["http://hl7.org/fhir/us/core/StructureDefinition/us-core-head-circumference"]},"status":"final","category":[{"coding":[{"system":"http://terminology.hl7.org/CodeSystem/observation-category","code":"vital-signs","display":"Vital Signs"}]}],"code":{"coding":[{"system":"http://loinc.org","code":"9843-4"}]},"subject":{"reference":"Patient/97303cfc-e993-4629-a86e-5eff5281cd68"},"effectiveDateTime":"2022-05-21T00:00:00+00:00","valueQuantity":{"value":5.3,"unit":"Inch","system":"http://unitsofmeasure.org","code":"[in_i]"}}},{"fullUrl":"Observation/a1aa4e7c-fcc3-49be-8150-1b8ee49939b4","resource":{"resourceType":"Observation","id":"a1aa4e7c-fcc3-49be-8150-1b8ee49939b4","meta":{"profile":["http://hl7.org/fhir/us/core/StructureDefinition/us-core-body-height"]},"status":"final","category":[{"coding":[{"system":"http://terminology.hl7.org/CodeSystem/observation-category","code":"vital-signs","display":"Vital Signs"}]}],"code":{"coding":[{"system":"http://loinc.org","code":"8302-2"}]},"subject":{"reference":"Patient/97303cfc-e993-4629-a86e-5eff5281cd68"},"effectiveDateTime":"2022-11-10T00:00:00+00:00","valueQuantity":{"value":64.4,"unit":"Inch","system":"http://unitsofmeasure.org","code":"[in_i]"}}},{"fullUrl":"Observation/91625689-d082-4247-a35e-d03e26b60964","resource":{"resourceType":"Observation","id":"91625689-d082-4247-a35e-d03e26b60964","meta":{"profile":["http://hl7.org/fhir/us/core/StructureDefinition/us-core-body-height"]},"status":"final","category":[{"coding":[{"system":"http://terminology.hl7.org/CodeSystem/observation-category","code":"vital-signs","display":"Vital Signs"}]}],"code":{"coding":[{"system":"http://loinc.org","code":"8302-2"}]},"subject":{"reference":"Patient/97303cfc-e993-4629-a86e-5eff5281cd68"},"effectiveDateTime":"2022-09-17T00:00:00+00:00","valueQuantity":{"value":71.6,"unit":"Inch","system":"http://unitsofmeasure.org","code":"[in_i]"}}},{"fullUrl":"Observation/bc696781-1839-4c75-9fcb-889da1990737","resource":{"resourceType":"Observation","id":"bc696781-1839-4c75-9fcb-889da1990737","meta":{"profile":["http://hl7.org/fhir/us/core/StructureDefinition/us-core-body-weight"]},"status":"final","category":[{"coding":[{"system":"http://terminology.hl7.org/CodeSystem/observation-category","code":"vital-signs","display":"Vital Signs"}]}],"code":{"coding":[{"system":"http://loinc.org","code":"29463-7"}]},"subject":{"reference":"Patient/97303cfc-e993-4629-a86e-5eff5281cd68"},"effectiveDateTime":"2022-10-25T00:00:00+00:00","valueQuantity":{"value":125.64,"unit":"kilogram","system":"http://unitsofmeasure.org","code":"kg"}}},{"fullUrl":"Observation/4b023459-5aee-4a1d-9e83-9f31ee4df222","resource":{"resourceType":"Observation","id":"4b023459-5aee-4a1d-9e83-9f31ee4df222","meta":{"profile":["http://hl7.org/fhir/us/core/StructureDefinition/us-core-body-weight"]},"status":"final","category":[{"coding":[{"system":"http://terminology.hl7.org/CodeSystem/observation-category","code":"vital-signs","display":"Vital Signs"}]}],"code":{"coding":[{"system":"http://loinc.org","code":"29463-7"}]},"subject":{"reference":"Patient/97303cfc-e993-4629-a86e-5eff5281cd68"},"effectiveDateTime":"2022-10-05T00:00:00+00:00","valueQuantity":{"value":119.08,"unit":"kilogram","system":"http://unitsofmeasure.org","code":"kg"}}},{"fullUrl":"Observation/0639b002-e7cc-47fb-a2e2-e9128c3d91bd","resource":{"resourceType":"Observation","id":"0639b002-e7cc-47fb-a2e2-e9128c3d91bd","meta":{"profile":["http://hl7.org/fhir/us/core/StructureDefinition/us-core-body-temperature"]},"status":"final","category":[{"coding":[{"system":"http://terminology.hl7.org/CodeSystem/observation-category","code":"vital-signs","display":"Vital Signs"}]}],"code":{"coding":[{"system":"http://loinc.org","code":"8310-5"}]},"subject":{"reference":"Patient/97303cfc-e993-4629-a86e-5eff5281cd68"},"effectiveDateTime":"2022-07-26T00:00:00+00:00","valueQuantity":{"value":81.84,"unit":"Degrees Fahrenheit","system":"http://unitsofmeasure.org","code":"[degF]"}}},{"fullUrl":"Observation/677252ba-cbab-40ce-b986-c2ea4690850b","resource":{"resourceType":"Observation","id":"677252ba-cbab-40ce-b986-c2ea4690850b","meta":{"profile":["http://hl7.org/fhir/us/core/StructureDefinition/us-core-body-temperature"]},"status":"final","category":[{"coding":[{"system":"http://terminology.hl7.org/CodeSystem/observation-category","code":"vital-signs","display":"Vital Signs"}]}],"code":{"coding":[{"system":"http://loinc.org","code":"8310-5"}]},"subject":{"reference":"Patient/97303cfc-e993-4629-a86e-5eff5281cd68"},"effectiveDateTime":"2022-02-27T00:00:00+00:00","valueQuantity":{"value":79.32,"unit":"Degrees Fahrenheit","system":"http://unitsofmeasure.org","code":"[degF]"}}},{"fullUrl":"Observation/aaa483cb-d606-4b39-81b5-cec000fcd4ab","resource":{"resourceType":"Observation","id":"aaa483cb-d606-4b39-81b5-cec000fcd4ab","meta":{"profile":["http://hl7.org/fhir/us/core/StructureDefinition/us-core-heart-rate"]},"status":"final","category":[{"coding":[{"system":"http://terminology.hl7.org/CodeSystem/observation-category","code":"vital-signs","display":"Vital Signs"}]}],"code":{"coding":[{"system":"http://loinc.org","code":"8867-4"}]},"subject":{"reference":"Patient/97303cfc-e993-4629-a86e-5eff5281cd68"},"effectiveDateTime":"2022-03-13T00:00:00+00:00","valueQuantity":{"value":99.8,"unit":"Per Minute","system":"http://unitsofmeasure.org","code":"/min"}}},{"fullUrl":"Patient/a7633e32-c8b1-4512-ace8-b98b5ea3b70f","resource":{"resourceType":"Patient","id":"a7633e32-c8b1-4512-ace8-b98b5ea3b70f","meta":{"profile":["http://hl7.org/fhir/us/core/StructureDefinition/us-core-patient"]},"extension":[{"extension":[{"url":"ombCategory","valueCoding":{"system":"http://terminology.hl7.org/CodeSystem/v3-NullFlavor","code":"UNK","display":"unknown"}},{"url":"text","valueString":"unknown"}],"url":"http://hl7.org/fhir/us/core/StructureDefinition/us-core-race"},{"extension":[{"url":"ombCategory","valueCoding":{"system":"urn:oid:2.16.840.1.113883.6.238","code":"2135-2","display":"Hispanic or Latino"}},{"url":"text","valueString":"Hispanic or Latino"}],"url":"http://hl7.org/fhir/us/core/StructureDefinition/us-core-ethnicity"}],"identifier":[{"type":{"coding":[{"system":"http://terminology.hl7.org/CodeSystem/v2-0203","code":"MR"}]},"system":"urn:fhirgen:mrn","value":"659-35-5981"},{"system":"http://hl7.org/fhir/sid/us-ssn","value":"494-48-4294"}],"name":[{"use":"official","family":"Davis","given":["Kyle"]},{"use":"maiden","family":"Jennings"}],"telecom":[{"system":"phone","value":"(191)623-9133x7606","use":"mobile"},{"system":"email","value":"alexa81@yahoo.com","use":"home"}],"gender":"male","birthDate":"1952-03-11","address":[{"use":"home","line":["2775 Megan Summit"],"city":"Port Anitaport","state":"FL","postalCode":"93883"},{"use":"old","line":["40677 Teresa Parkways"],"city":"New Kristin","state":"NJ","postalCode":"21879"}],"maritalStatus":{"coding":[{"system":"http://terminology.hl7.org/CodeSystem/v3-MaritalStatus","code":"S","display":"Never Married"}]}}},{"fullUrl":"Observation/a81b065d-e419-4267-9a0f-eeb813239304","resource":{"resourceType":"Observation","id":"a81b065d-e419-4267-9a0f-eeb813239304","meta":{"profile":["http://hl7.org/fhir/us/core/StructureDefinition/us-core-observation-lab"]},"status":"final","category":[{"coding":[{"system":"http://terminology.hl7.org/CodeSystem/observation-category","code":"laboratory","display":"Laboratory"}]}],"code":{"coding":[{"system":"http://loinc.org","code":"31146-4"}]},"subject":{"reference":"Patient/a7633e32-c8b1-4512-ace8-b98b5ea3b70f"},"effectiveDateTime":"2022-12-14T00:00:00+00:00","valueRatio":{"numerator":{"value":1},"denominator":{"value":4}}}},{"fullUrl":"Observation/75d421f4-f781-409d-aefe-fc199b206f8d","resource":{"resourceType":"Observation","id":"75d421f4-f781-409d-aefe-fc199b206f8d","meta":{"profile":["http://hl7.org/fhir/us/core/StructureDefinition/us-core-observation-lab"]},"status":"final","category":[{"coding":[{"system":"http://terminology.hl7.org/CodeSystem/observation-category","code":"laboratory","display":"Laboratory"}]}],"code":{"coding":[{"system":"http://loinc.org","code":"31146-4"}]},"subject":{"reference":"Patient/a7633e32-c8b1-4512-ace8-b98b5ea3b70f"},"effectiveDateTime":"2022-11-10T00:00:00+00:00","valueRatio":{"numerator":{"value":1},"denominator":{"value":64}}}},{"fullUrl":"Condition/380b160d-9f1e-48c1-a0a1-346efff31770","resource":{"resourceType":"Condition","id":"380b160d-9f1e-48c1-a0a1-346efff31770","meta":{"profile":["http://hl7.org/fhir/us/core/StructureDefinition/us-core-condition"]},"clinicalStatus":{"coding":[{"system":"http://terminology.hl7.org/CodeSystem/condition-clinical","code":"active","display":"Active"}]},"category":[{"coding":[{"system":"http://terminology.hl7.org/CodeSystem/condition-category","code":"problem-list-item"}]}],"code":{"coding":[{"system":"http://snomed.info/sct","code":"44882003"}]},"subject":{"reference":"Patient/a7633e32-c8b1-4512-ace8-b98b5ea3b70f"},"onsetDateTime":"2022-10-31T00:00:00+00:00"}},{"fullUrl":"Condition/361566a2-e3c4-4d42-864d-acb4ebda4c60","resource":{"resourceType":"Condition","id":"361566a2-e3c4-4d42-864d-acb4ebda4c60","meta":{"profile":["http://hl7.org/fhir/us/core/StructureDefinition/us-core-condition"]},"clinicalStatus":{"coding":[{"system":"http://terminology.hl7.org/CodeSystem/condition-clinical","code":"active","display":"Active"}]},"category":[{"coding":[{"system":"http://terminology.hl7.org/CodeSystem/condition-category","code":"problem-list-item"}]}],"code":{"coding":[{"system":"http://snomed.info/sct","code":"736686006"}]},"subject":{"reference":"Patient/a7633e32-c8b1-4512-ace8-b98b5ea3b70f"},"onsetDateTime":"2022-03-15T00:00:00+00:00"}},{"fullUrl":"Condition/8ff7c0af-0e43-42e4-be90-3b997201fe26","resource":{"resourceType":"Condition","id":"8ff7c0af-0e43-42e4-be90-3b997201fe26","meta":{"profile":["http://hl7.org/fhir/us/core/StructureDefinition/us-core-condition"]},"clinicalStatus":{"coding":[{"system":"http://terminology.hl7.org/CodeSystem/condition-clinical","code":"active","display":"Active"}]},"category":[{"coding":[{"system":"http://terminology.hl7.org/CodeSystem/condition-category","code":"problem-list-item"}]}],"code":{"coding":[{"system":"http://snomed.info/sct","code":"736686006"}]},"subject":{"reference":"Patient/a7633e32-c8b1-4512-ace8-b98b5ea3b70f"},"onsetDateTime":"2022-09-05T00:00:00+00:00"}},{"fullUrl":"Observation/2b214715-964e-4a62-acff-e5b9ce319528","resource":{"resourceType":"Observation","id":"2b214715-964e-4a62-acff-e5b9ce319528","meta":{"profile":["http://hl7.org/fhir/us/core/StructureDefinition/us-core-observation-lab"]},"status":"final","category":[{"coding":[{"system":"http://terminology.hl7.org/CodeSystem/observation-category","code":"laboratory","display":"Laboratory"}]}],"code":{"coding":[{"system":"http://loinc.org","code":"6690-2"}]},"subject":{"reference":"Patient/a7633e32-c8b1-4512-ace8-b98b5ea3b70f"},"effectiveDateTime":"2022-10-11T00:00:00+00:00","valueQuantity":{"value":8.6}}},{"fullUrl":"Observation/814a043b-dd51-49d3-afef-4eea36acc9df","resource":{"resourceType":"Observation","id":"814a043b-dd51-49d3-afef-4eea36acc9df","meta":{"profile":["http://hl7.org/fhir/us/core/StructureDefinition/us-core-observation-lab"]},"status":"final","category":[{"coding":[{"system":"http://terminology.hl7.org/CodeSystem/observation-category","code":"laboratory","display":"Laboratory"}]}],"code":{"coding":[{"system":"http://loinc.org","code":"804-5"}]},"subject":{"reference":"Patient/a7633e32-c8b1-4512-ace8-b98b5ea3b70f"},"effectiveDateTime":"2022-06-04T00:00:00+00:00","valueQuantity":{"value":5.8}}},{"fullUrl":"Observation/0b72ec61-b4ef-49a9-abfa-d885488e1a2f","resource":{"resourceType":"Observation","id":"0b72ec61-b4ef-49a9-abfa-d885488e1a2f","meta":{"profile":["http://hl7.org/fhir/us/core/StructureDefinition/us-core-observation-lab"]},"status":"final","category":[{"coding":[{"system":"http://terminology.hl7.org/CodeSystem/observation-category","code":"laboratory","display":"Laboratory"}]}],"code":{"coding":[{"system":"http://loinc.org","code":"6690-2"}]},"subject":{"reference":"Patient/a7633e32-c8b1-4512-ace8-b98b5ea3b70f"},"effectiveDateTime":"2022-08-23T00:00:00+00:00","valueQuantity":{"value":8.4}}},{"fullUrl":"Observation/743fdb36-3153-4f41-b3cb-9b1cf26c36f8","resource":{"resourceType":"Observation","id":"743fdb36-3153-4f41-b3cb-9b1cf26c36f8","meta":{"profile":["http://hl7.org/fhir/us/core/StructureDefinition/us-core-bmi"]},"status":"final","category":[{"coding":[{"system":"http://terminology.hl7.org/CodeSystem/observation-category","code":"vital-signs","display":"Vital Signs"}]}],"code":{"coding":[{"system":"http://loinc.org","code":"39156-5"}]},"subject":{"reference":"Patient/a7633e32-c8b1-4512-ace8-b98b5ea3b70f"},"effectiveDateTime":"2022-04-02T00:00:00+00:00","valueQuantity":{"value":27.57,"unit":"kg/m2","system":"http://unitsofmeasure.org","code":"kg/m2"}}},{"fullUrl":"Observation/b033b4df-9e61-4aca-8338-c608c1b35a64","resource":{"resourceType":"Observation","id":"b033b4df-9e61-4aca-8338-c608c1b35a64","meta":{"profile":["http://hl7.org/fhir/us/core/StructureDefinition/us-core-head-circumference"]},"status":"final","category":[{"coding":[{"system":"http://terminology.hl7.org/CodeSystem/observation-category","code":"vital-signs","display":"Vital Signs"}]}],"code":{"coding":[{"system":"http://loinc.org","code":"9843-4"}]},"subject":{"reference":"Patient/a7633e32-c8b1-4512-ace8-b98b5ea3b70f"},"effectiveDateTime":"2022-08-14T00:00:00+00:00","valueQuantity":{"value":3.7,"unit":"Inch","system":"http://unitsofmeasure.org","code":"[in_i]"}}},{"fullUrl":"Observation/2aeb3c1c-5f70-4d89-94cf-c5827e3293b3","resource":{"resourceType":"Observation","id":"2aeb3c1c-5f70-4d89-94cf-c5827e3293b3","meta":{"profile":["http://hl7.org/fhir/us/core/StructureDefinition/us-core-body-height"]},"status":"final","category":[{"coding":[{"system":"http://terminology.hl7.org/CodeSystem/observation-category","code":"vital-signs","display":"Vital Signs"}]}],"code":{"coding":[{"system":"http://loinc.org","code":"8302-2"}]},"subject":{"reference":"Patient/a7633e32-c8b1-4512-ace8-b98b5ea3b70f"},"effectiveDateTime":"2022-10-03T00:00:00+00:00","valueQuantity":{"value":70.7,"unit":"Inch","system":"http://unitsofmeasure.org","code":"[in_i]"}}},{"fullUrl":"Observation/5f0aa778-cab3-4a86-9b55-f42ba3427914","resource":{"resourceType":"Observation","id":"5f0aa778-cab3-4a86-9b55-f42ba3427914","meta":{"profile":["http://hl7.org/fhir/us/core/StructureDefinition/us-core-body-height"]},"status":"final","category":[{"coding":[{"system":"http://terminology.hl7.org/CodeSystem/observation-category","code":"vital-signs","display":"Vital Signs"}]}],"code":{"coding":[{"system":"http://loinc.org","code":"8302-2"}]},"subject":{"reference":"Patient/a7633e32-c8b1-4512-ace8-b98b5ea3b70f"},"effectiveDateTime":"2022-06-10T00:00:00+00:00","valueQuantity":{"value":64.9,"unit":"Inch","system":"http://unitsofmeasure.org","code":"[in_i]"}}},{"fullUrl":"Observation/cd49698c-43ea-4443-b919-c139fabbb22d","resource":{"resourceType":"Observation","id":"cd49698c-43ea-4443-b919-c139fabbb22d","meta":{"profile":["http://hl7.org/fhir/us/core/StructureDefinition/us-core-body-weight"]},"status":"final","category":[{"coding":[{"system":"http://terminology.hl7.org/CodeSystem/observation-category","code":"vital-signs","display":"Vital Signs"}]}],"code":{"coding":[{"system":"http://loinc.org","code":"29463-7"}]},"subject":{"reference":"Patient/a7633e32-c8b1-4512-ace8-b98b5ea3b70f"},"effectiveDateTime":"2022-05-26T00:00:00+00:00","valueQuantity":{"value":80.54,"unit":"kilogram","system":"http://unitsofmeasure.org","code":"kg"}}},{"fullUrl":"Observation/7a6d5397-e6d9-41d4-b15d-cf6326b7911b","resource":{"resourceType":"Observation","id":"7a6d5397-e6d9-41d4-b15d-cf6326b7911b","meta":{"profile":["http://hl7.org/fhir/us/core/StructureDefinition/us-core-body-weight"]},"status":"final","category":[{"coding":[{"system":"http://terminology.hl7.org/CodeSystem/observation-category","code":"vital-signs","display":"Vital Signs"}]}],"code":{"coding":[{"system":"http://loinc.org","code":"29463-7"}]},"subject":{"reference":"Patient/a7633e32-c8b1-4512-ace8-b98b5ea3b70f"},"effectiveDateTime":"2022-02-25T00:00:00+00:00","valueQuantity":{"value":81.91,"unit":"kilogram","system":"http://unitsofmeasure.org","code":"kg"}}},{"fullUrl":"Observation/c8f9d5cc-3a8d-4c0c-a8f1-ccb7a581733c","resource":{"resourceType":"Observation","id":"c8f9d5cc-3a8d-4c0c-a8f1-ccb7a581733c","meta":{"profile":["http://hl7.org/fhir/us/core/StructureDefinition/us-core-body-temperature"]},"status":"final","category":[{"coding":[{"system":"http://terminology.hl7.org/CodeSystem/observation-category","code":"vital-signs","display":"Vital Signs"}]}],"code":{"coding":[{"system":"http://loinc.org","code":"8310-5"}]},"subject":{"reference":"Patient/a7633e32-c8b1-4512-ace8-b98b5ea3b70f"},"effectiveDateTime":"2022-08-24T00:00:00+00:00","valueQuantity":{"value":93.16,"unit":"Degrees Fahrenheit","system":"http://unitsofmeasure.org","code":"[degF]"}}},{"fullUrl":"Observation/86e11627-a80d-4d2a-9d89-8d0642084c12","resource":{"resourceType":"Observation","id":"86e11627-a80d-4d2a-9d89-8d0642084c12","meta":{"profile":["http://hl7.org/fhir/us/core/StructureDefinition/us-core-heart-rate"]},"status":"final","category":[{"coding":[{"system":"http://terminology.hl7.org/CodeSystem/observation-category","code":"vital-signs","display":"Vital Signs"}]}],"code":{"coding":[{"system":"http://loinc.org","code":"8867-4"}]},"subject":{"reference":"Patient/a7633e32-c8b1-4512-ace8-b98b5ea3b70f"},"effectiveDateTime":"2022-11-25T00:00:00+00:00","valueQuantity":{"value":100.7,"unit":"Per Minute","system":"http://unitsofmeasure.org","code":"/min"}}},{"fullUrl":"Observation/d565265f-1805-4fae-9c4d-7d39e75f11cc","resource":{"resourceType":"Observation","id":"d565265f-1805-4fae-9c4d-7d39e75f11cc","meta":{"profile":["http://hl7.org/fhir/us/core/StructureDefinition/us-core-heart-rate"]},"status":"final","category":[{"coding":[{"system":"http://terminology.hl7.org/CodeSystem/observation-category","code":"vital-signs","display":"Vital Signs"}]}],"code":{"coding":[{"system":"http://loinc.org","code":"8867-4"}]},"subject":{"reference":"Patient/a7633e32-c8b1-4512-ace8-b98b5ea3b70f"},"effectiveDateTime":"2022-03-29T00:00:00+00:00","valueQuantity":{"value":95.7,"unit":"Per Minute","system":"http://unitsofmeasure.org","code":"/min"}}},{"fullUrl":"Patient/6f338c08-2b06-4c0d-a778-a65977653a00","resource":{"resourceType":"Patient","id":"6f338c08-2b06-4c0d-a778-a65977653a00","meta":{"profile":["http://hl7.org/fhir/us/core/StructureDefinition/us-core-patient"]},"extension":[{"extension":[{"url":"ombCategory","valueCoding":{"system":"urn:oid:2.16.840.1.113883.6.238","code":"2106-3","display":"White"}},{"url":"text","valueString":"White"}],"url":"http://hl7.org/fhir/us/core/StructureDefinition/us-core-race"},{"extension":[{"url":"ombCategory","valueCoding":{"system":"urn:oid:2.16.840.1.113883.6.238","code":"2135-2","display":"Hispanic or Latino"}},{"url":"text","valueString":"Hispanic or Latino"}],"url":"http://hl7.org/fhir/us/core/StructureDefinition/us-core-ethnicity"}],"identifier":[{"type":{"coding":[{"system":"http://terminology.hl7.org/CodeSystem/v2-0203","code":"MR"}]},"system":"urn:fhirgen:mrn","value":"569-52-0988"},{"system":"http://hl7.org/fhir/sid/us-ssn","value":"072-68-2958"}],"name":[{"use":"official","family":"Shaw","given":["Wendy"]},{"use":"maiden","family":"Watson"}],"telecom":[{"system":"phone","value":"6419043496","use":"mobile"},{"system":"email","value":"sandralarson@yahoo.com","use":"work"}],"gender":"female","birthDate":"1958-09-29","address":[{"use":"home","line":["204 Gregory Forks Suite 594"],"city":"South Nicole","state":"KS","postalCode":"70635"},{"use":"old","line":["4669 Marks Prairie Apt. 381"],"city":"Josephshire","state":"ND","postalCode":"64381"}],"maritalStatus":{"coding":[{"system":"http://terminology.hl7.org/CodeSystem/v3-MaritalStatus","code":"W","display":"Widowed"}]}}},{"fullUrl":"Observation/1a686322-39e9-46bc-8b3b-0fbfe2176efd","resource":{"resourceType":"Observation","id":"1a686322-39e9-46bc-8b3b-0fbfe2176efd","meta":{"profile":["http://hl7.org/fhir/us/core/StructureDefinition/us-core-observation-lab"]},"status":"final","category":[{"coding":[{"system":"http://terminology.hl7.org/CodeSystem/observation-category","code":"laboratory","display":"Laboratory"}]}],"code":{"coding":[{"system":"http://loinc.org","code":"34382-2"}]},"subject":{"reference":"Patient/6f338c08-2b06-4c0d-a778-a65977653a00"},"effectiveDateTime":"2022-11-13T00:00:00+00:00","valueRatio":{"numerator":{"value":1},"denominator":{"value":64}}}},{"fullUrl":"Observation/cb86b6f2-46e2-45ea-bab5-d639a7ab7efd","resource":{"resourceType":"Observation","id":"cb86b6f2-46e2-45ea-bab5-d639a7ab7efd","meta":{"profile":["http://hl7.org/fhir/us/core/StructureDefinition/us-core-observation-lab"]},"status":"final","category":[{"coding":[{"system":"http://terminology.hl7.org/CodeSystem/observation-category","code":"laboratory","display":"Laboratory"}]}],"code":{"coding":[{"system":"http://loinc.org","code":"26009-1"}]},"subject":{"reference":"Patient/6f338c08-2b06-4c0d-a778-a65977653a00"},"effectiveDateTime":"2022-11-24T00:00:00+00:00","valueRatio":{"numerator":{"value":1},"denominator":{"value":64}}}},{"fullUrl":"Condition/f7bfebfe-45ff-4b30-bca2-87a5748c917c","resource":{"resourceType":"Condition","id":"f7bfebfe-45ff-4b30-bca2-87a5748c917c","meta":{"profile":["http://hl7.org/fhir/us/core/StructureDefinition/us-core-condition"]},"clinicalStatus":{"coding":[{"system":"http://terminology.hl7.org/CodeSystem/condition-clinical","code":"active","display":"Active"}]},"category":[{"coding":[{"system":"http://terminology.hl7.org/CodeSystem/condition-category","code":"problem-list-item"}]}],"code":{"coding":[{"system":"http://snomed.info/sct","code":"736686006"}]},"subject":{"reference":"Patient/6f338c08-2b06-4c0d-a778-a65977653a00"},"onsetDateTime":"2022-12-16T00:00:00+00:00"}},{"fullUrl":"Condition/32017daa-4a45-48b3-8499-de5b737dd22f","resource":{"resourceType":"Condition","id":"32017daa-4a45-48b3-8499-de5b737dd22f","meta":{"profile":["http://hl7.org/fhir/us/core/StructureDefinition/us-core-condition"]},"clinicalStatus":{"coding":[{"system":"http://terminology.hl7.org/CodeSystem/condition-clinical","code":"active","display":"Active"}]},"category":[{"coding":[{"system":"http://terminology.hl7.org/CodeSystem/condition-category","code":"problem-list-item"}]}],"code":{"coding":[{"system":"http://snomed.info/sct","code":"44882003"}]},"subject":{"reference":"Patient/6f338c08-2b06-4c0d-a778-a65977653a00"},"onsetDateTime":"2022-03-04T00:00:00+00:00"}},{"fullUrl":"Condition/1519a730-cabf-40c4-80c3-2893e2e1fe04","resource":{"resourceType":"Condition","id":"1519a730-cabf-40c4-80c3-2893e2e1fe04","meta":{"profile":["http://hl7.org/fhir/us/core/StructureDefinition/us-core-condition"]},"clinicalStatus":{"coding":[{"system":"http://terminology.hl7.org/CodeSystem/condition-clinical","code":"active","display":"Active"}]},"category":[{"coding":[{"system":"http://terminology.hl7.org/CodeSystem/condition-category","code":"problem-list-item"}]}],"code":{"coding":[{"system":"http://snomed.info/sct","code":"44882003"}]},"subject":{"reference":"Patient/6f338c08-2b06-4c0d-a778-a65977653a00"},"onsetDateTime":"2022-02-08T00:00:00+00:00"}},{"fullUrl":"Observation/8a06c70e-6c70-4675-bd1e-a13f411dc261","resource":{"resourceType":"Observation","id":"8a06c70e-6c70-4675-bd1e-a13f411dc261","meta":{"profile":["http://hl7.org/fhir/us/core/StructureDefinition/us-core-observation-lab"]},"status":"final","category":[{"coding":[{"system":"http://terminology.hl7.org/CodeSystem/observation-category","code":"laboratory","display":"Laboratory"}]}],"code":{"coding":[{"system":"http://loinc.org","code":"26464-8"}]},"subject":{"reference":"Patient/6f338c08-2b06-4c0d-a778-a65977653a00"},"effectiveDateTime":"2022-10-03T00:00:00+00:00","valueQuantity":{"value":5.5}}},{"fullUrl":"Observation/4c9a113d-2599-42fe-87de-908816af07b4","resource":{"resourceType":"Observation","id":"4c9a113d-2599-42fe-87de-908816af07b4","meta":{"profile":["http://hl7.org/fhir/us/core/StructureDefinition/us-core-observation-lab"]},"status":"final","category":[{"coding":[{"system":"http://terminology.hl7.org/CodeSystem/observation-category","code":"laboratory","display":"Laboratory"}]}],"code":{"coding":[{"system":"http://loinc.org","code":"26464-8"}]},"subject":{"reference":"Patient/6f338c08-2b06-4c0d-a778-a65977653a00"},"effectiveDateTime":"2022-03-30T00:00:00+00:00","valueQuantity":{"value":5.4}}},{"fullUrl":"Observation/d0d5b8b3-cefe-4237-a995-56372deed558","resource":{"resourceType":"Observation","id":"d0d5b8b3-cefe-4237-a995-56372deed558","meta":{"profile":["http://hl7.org/fhir/us/core/StructureDefinition/us-core-bmi"]},"status":"final","category":[{"coding":[{"system":"http://terminology.hl7.org/CodeSystem/observation-category","code":"vital-signs","display":"Vital Signs"}]}],"code":{"coding":[{"system":"http://loinc.org","code":"39156-5"}]},"subject":{"reference":"Patient/6f338c08-2b06-4c0d-a778-a65977653a00"},"effectiveDateTime":"2022-03-17T00:00:00+00:00","valueQuantity":{"value":17.92,"unit":"kg/m2","system":"http://unitsofmeasure.org","code":"kg/m2"}}},{"fullUrl":"Observation/0cb09807-72e7-43fc-9e08-b5c6af008dd4","resource":{"resourceType":"Observation","id":"0cb09807-72e7-43fc-9e08-b5c6af008dd4","meta":{"profile":["http://hl7.org/fhir/us/core/StructureDefinition/us-core-bmi"]},"status":"final","category":[{"coding":[{"system":"http://terminology.hl7.org/CodeSystem/observation-category","code":"vital-signs","display":"Vital Signs"}]}],"code":{"coding":[{"system":"http://loinc.org","code":"39156-5"}]},"subject":{"reference":"Patient/6f338c08-2b06-4c0d-a778-a65977653a00"},"effectiveDateTime":"2022-07-28T00:00:00+00:00","valueQuantity":{"value":26.39,"unit":"kg/m2","system":"http://unitsofmeasure.org","code":"kg/m2"}}},{"fullUrl":"Observation/b85d4611-532f-4a52-9316-0981e4be50a2","resource":{"resourceType":"Observation","id":"b85d4611-532f-4a52-9316-0981e4be50a2","meta":{"profile":["http://hl7.org/fhir/us/core/StructureDefinition/us-core-head-circumference"]},"status":"final","category":[{"coding":[{"system":"http://terminology.hl7.org/CodeSystem/observation-category","code":"vital-signs","display":"Vital Signs"}]}],"code":{"coding":[{"system":"http://loinc.org","code":"9843-4"}]},"subject":{"reference":"Patient/6f338c08-2b06-4c0d-a778-a65977653a00"},"effectiveDateTime":"2022-10-25T00:00:00+00:00","valueQuantity":{"value":3.9,"unit":"Inch","system":"http://unitsofmeasure.org","code":"[in_i]"}}},{"fullUrl":"Observation/c043641e-235e-4c4e-91f1-e481c39e7177","resource":{"resourceType":"Observation","id":"c043641e-235e-4c4e-91f1-e481c39e7177","meta":{"profile":["http://hl7.org/fhir/us/core/StructureDefinition/us-core-head-circumference"]},"status":"final","category":[{"coding":[{"system":"http://terminology.hl7.org/CodeSystem/observation-category","code":"vital-signs","display":"Vital Signs"}]}],"code":{"coding":[{"system":"http://loinc.org","code":"9843-4"}]},"subject":{"reference":"Patient/6f338c08-2b06-4c0d-a778-a65977653a00"},"effectiveDateTime":"2022-10-02T00:00:00+00:00","valueQuantity":{"value":4,"unit":"Inch","system":"http://unitsofmeasure.org","code":"[in_i]"}}},{"fullUrl":"Observation/5e3a105d-c778-4ba5-89dd-948c4a83fca4","resource":{"resourceType":"Observation","id":"5e3a105d-c778-4ba5-89dd-948c4a83fca4","meta":{"profile":["http://hl7.org/fhir/us/core/StructureDefinition/us-core-body-height"]},"status":"final","category":[{"coding":[{"system":"http://terminology.hl7.org/CodeSystem/observation-category","code":"vital-signs","display":"Vital Signs"}]}],"code":{"coding":[{"system":"http://loinc.org","code":"8302-2"}]},"subject":{"reference":"Patient/6f338c08-2b06-4c0d-a778-a65977653a00"},"effectiveDateTime":"2022-12-12T00:00:00+00:00","valueQuantity":{"value":64.2,"unit":"Inch","system":"http://unitsofmeasure.org","code":"[in_i]"}}},{"fullUrl":"Observation/e382af63-9de6-410b-bd36-c0cc069d2a51","resource":{"resourceType":"Observation","id":"e382af63-9de6-410b-bd36-c0cc069d2a51","meta":{"profile":["http://hl7.org/fhir/us/core/StructureDefinition/us-core-body-height"]},"status":"final","category":[{"coding":[{"system":"http://terminology.hl7.org/CodeSystem/observation-category","code":"vital-signs","display":"Vital Signs"}]}],"code":{"coding":[{"system":"http://loinc.org","code":"8302-2"}]},"subject":{"reference":"Patient/6f338c08-2b06-4c0d-a778-a65977653a00"},"effectiveDateTime":"2022-10-15T00:00:00+00:00","valueQuantity":{"value":83.9,"unit":"Inch","system":"http://unitsofmeasure.org","code":"[in_i]"}}},{"fullUrl":"Observation/f1c575df-207b-4a95-945f-e8bac3e5dfab","resource":{"resourceType":"Observation","id":"f1c575df-207b-4a95-945f-e8bac3e5dfab","meta":{"profile":["http://hl7.org/fhir/us/core/StructureDefinition/us-core-body-weight"]},"status":"final","category":[{"coding":[{"system":"http://terminology.hl7.org/CodeSystem/observation-category","code":"vital-signs","display":"Vital Signs"}]}],"code":{"coding":[{"system":"http://loinc.org","code":"29463-7"}]},"subject":{"reference":"Patient/6f338c08-2b06-4c0d-a778-a65977653a00"},"effectiveDateTime":"2022-02-15T00:00:00+00:00","valueQuantity":{"value":50.51,"unit":"kilogram","system":"http://unitsofmeasure.org","code":"kg"}}},{"fullUrl":"Observation/5387f9ce-b8b0-4423-8140-2c97e2680130","resource":{"resourceType":"Observation","id":"5387f9ce-b8b0-4423-8140-2c97e2680130","meta":{"profile":["http://hl7.org/fhir/us/core/StructureDefinition/us-core-body-temperature"]},"status":"final","category":[{"coding":[{"system":"http://terminology.hl7.org/CodeSystem/observation-category","code":"vital-signs","display":"Vital Signs"}]}],"code":{"coding":[{"system":"http://loinc.org","code":"8310-5"}]},"subject":{"reference":"Patient/6f338c08-2b06-4c0d-a778-a65977653a00"},"effectiveDateTime":"2022-03-15T00:00:00+00:00","valueQuantity":{"value":56.92,"unit":"Degrees Fahrenheit","system":"http://unitsofmeasure.org","code":"[degF]"}}},{"fullUrl":"Observation/ed7d23d6-314e-483f-a386-c1e182aa7655","resource":{"resourceType":"Observation","id":"ed7d23d6-314e-483f-a386-c1e182aa7655","meta":{"profile":["http://hl7.org/fhir/us/core/StructureDefinition/us-core-heart-rate"]},"status":"final","category":[{"coding":[{"system":"http://terminology.hl7.org/CodeSystem/observation-category","code":"vital-signs","display":"Vital Signs"}]}],"code":{"coding":[{"system":"http://loinc.org","code":"8867-4"}]},"subject":{"reference":"Patient/6f338c08-2b06-4c0d-a778-a65977653a00"},"effectiveDateTime":"2022-09-26T00:00:00+00:00","valueQuantity":{"value":96.2,"unit":"Per Minute","system":"http://unitsofmeasure.org","code":"/min"}}},{"fullUrl":"Observation/78074938-8bbb-45be-8d27-9e4656ca9489","resource":{"resourceType":"Observation","id":"78074938-8bbb-45be-8d27-9e4656ca9489","meta":{"profile":["http://hl7.org/fhir/us/core/StructureDefinition/us-core-heart-rate"]},"status":"final","category":[{"coding":[{"system":"http://terminology.hl7.org/CodeSystem/observation-category","code":"vital-signs","display":"Vital Signs"}]}],"code":{"coding":[{"system":"http://loinc.org","code":"8867-4"}]},"subject":{"reference":"Patient/6f338c08-2b06-4c0d-a778-a65977653a00"},"effectiveDateTime":"2022-02-13T00:00:00+00:00","valueQuantity":{"value":97.3,"unit":"Per Minute","system":"http://unitsofmeasure.org","code":"/min"}}},{"fullUrl":"Patient/839751c0-a3e5-425f-9de3-27b2b2ee2bf2","resource":{"resourceType":"Patient","id":"839751c0-a3e5-425f-9de3-27b2b2ee2bf2","meta":{"profile":["http://hl7.org/fhir/us/core/StructureDefinition/us-core-patient"]},"extension":[{"extension":[{"url":"ombCategory","valueCoding":{"system":"http://terminology.hl7.org/CodeSystem/v3-NullFlavor","code":"UNK","display":"unknown"}},{"url":"text","valueString":"unknown"}],"url":"http://hl7.org/fhir/us/core/StructureDefinition/us-core-race"},{"extension":[{"url":"ombCategory","valueCoding":{"system":"urn:oid:2.16.840.1.113883.6.238","code":"2135-2","display":"Hispanic or Latino"}},{"url":"text","valueString":"Hispanic or Latino"}],"url":"http://hl7.org/fhir/us/core/StructureDefinition/us-core-ethnicity"}],"identifier":[{"type":{"coding":[{"system":"http://terminology.hl7.org/CodeSystem/v2-0203","code":"MR"}]},"system":"urn:fhirgen:mrn","value":"579-53-5684"},{"system":"http://hl7.org/fhir/sid/us-ssn","value":"889-07-5150"}],"name":[{"use":"official","family":"Evans","given":["Julie"]},{"use":"maiden","family":"Hawkins"}],"telecom":[{"system":"phone","value":"001-282-041-3146x03089","use":"work"},{"system":"email","value":"jeremymurphy@gmail.com","use":"mobile"}],"gender":"female","birthDate":"2000-04-11","address":[{"use":"home","line":["7067 Kendra Plaza Apt. 584"],"city":"New Jacobstad","state":"WV","postalCode":"40542"},{"use":"old","line":["68141 Jessica Road"],"city":"New Tiffany","state":"NY","postalCode":"40910"}],"maritalStatus":{"coding":[{"system":"http://terminology.hl7.org/CodeSystem/v3-MaritalStatus","code":"M","display":"Married"}]}}},{"fullUrl":"Observation/6ea1658a-73f0-48e7-b4de-371f7d278c87","resource":{"resourceType":"Observation","id":"6ea1658a-73f0-48e7-b4de-371f7d278c87","meta":{"profile":["http://hl7.org/fhir/us/core/StructureDefinition/us-core-observation-lab"]},"status":"final","category":[{"coding":[{"system":"http://terminology.hl7.org/CodeSystem/observation-category","code":"laboratory","display":"Laboratory"}]}],"code":{"coding":[{"system":"http://loinc.org","code":"51475-2"}]},"subject":{"reference":"Patient/839751c0-a3e5-425f-9de3-27b2b2ee2bf2"},"effectiveDateTime":"2022-10-11T00:00:00+00:00","valueRatio":{"numerator":{"value":1},"denominator":{"value":4}}}},{"fullUrl":"Observation/470b38ce-d66f-4cc1-93a1-3158de173029","resource":{"resourceType":"Observation","id":"470b38ce-d66f-4cc1-93a1-3158de173029","meta":{"profile":["http://hl7.org/fhir/us/core/StructureDefinition/us-core-observation-lab"]},"status":"final","category":[{"coding":[{"system":"http://terminology.hl7.org/CodeSystem/observation-category","code":"laboratory","display":"Laboratory"}]}],"code":{"coding":[{"system":"http://loinc.org","code":"31146-4"}]},"subject":{"reference":"Patient/839751c0-a3e5-425f-9de3-27b2b2ee2bf2"},"effectiveDateTime":"2022-03-09T00:00:00+00:00","valueRatio":{"numerator":{"value":1},"denominator":{"value":4}}}},{"fullUrl":"Condition/35dfb658-5320-4194-8211-38c36d7eea0a","resource":{"resourceType":"Condition","id":"35dfb658-5320-4194-8211-38c36d7eea0a","meta":{"profile":["http://hl7.org/fhir/us/core/StructureDefinition/us-core-condition"]},"clinicalStatus":{"coding":[{"system":"http://terminology.hl7.org/CodeSystem/condition-clinical","code":"active","display":"Active"}]},"category":[{"coding":[{"system":"http://terminology.hl7.org/CodeSystem/condition-category","code":"problem-list-item"}]}],"code":{"coding":[{"system":"http://snomed.info/sct","code":"91554004"}]},"subject":{"reference":"Patient/839751c0-a3e5-425f-9de3-27b2b2ee2bf2"},"onsetDateTime":"2022-01-06T00:00:00+00:00"}},{"fullUrl":"Condition/8c3a71ad-2c8a-4b34-b0d5-77f2ff54e0fb","resource":{"resourceType":"Condition","id":"8c3a71ad-2c8a-4b34-b0d5-77f2ff54e0fb","meta":{"profile":["http://hl7.org/fhir/us/core/StructureDefinition/us-core-condition"]},"clinicalStatus":{"coding":[{"system":"http://terminology.hl7.org/CodeSystem/condition-clinical","code":"active","display":"Active"}]},"category":[{"coding":[{"system":"http://terminology.hl7.org/CodeSystem/condition-category","code":"problem-list-item"}]}],"code":{"coding":[{"system":"http://snomed.info/sct","code":"709977002"}]},"subject":{"reference":"Patient/839751c0-a3e5-425f-9de3-27b2b2ee2bf2"},"onsetDateTime":"2022-05-04T00:00:00+00:00"}},{"fullUrl":"Condition/9e647979-a055-4146-b2c0-b3227ecda593","resource":{"resourceType":"Condition","id":"9e647979-a055-4146-b2c0-b3227ecda593","meta":{"profile":["http://hl7.org/fhir/us/core/StructureDefinition/us-core-condition"]},"clinicalStatus":{"coding":[{"system":"http://terminology.hl7.org/CodeSystem/condition-clinical","code":"active","display":"Active"}]},"category":[{"coding":[{"system":"http://terminology.hl7.org/CodeSystem/condition-category","code":"problem-list-item"}]}],"code":{"coding":[{"system":"http://snomed.info/sct","code":"418290006"}]},"subject":{"reference":"Patient/839751c0-a3e5-425f-9de3-27b2b2ee2bf2"},"onsetDateTime":"2022-08-16T00:00:00+00:00"}},{"fullUrl":"Condition/81b075cd-4df9-437a-a0a9-566f6536730d","resource":{"resourceType":"Condition","id":"81b075cd-4df9-437a-a0a9-566f6536730d","meta":{"profile":["http://hl7.org/fhir/us/core/StructureDefinition/us-core-condition"]},"clinicalStatus":{"coding":[{"system":"http://terminology.hl7.org/CodeSystem/condition-clinical","code":"active","display":"Active"}]},"category":[{"coding":[{"system":"http://terminology.hl7.org/CodeSystem/condition-category","code":"problem-list-item"}]}],"code":{"coding":[{"system":"http://snomed.info/sct","code":"418290006"}]},"subject":{"reference":"Patient/839751c0-a3e5-425f-9de3-27b2b2ee2bf2"},"onsetDateTime":"2022-02-25T00:00:00+00:00"}},{"fullUrl":"Condition/a7c2173f-6200-489d-8c16-064e3e06d129","resource":{"resourceType":"Condition","id":"a7c2173f-6200-489d-8c16-064e3e06d129","meta":{"profile":["http://hl7.org/fhir/us/core/StructureDefinition/us-core-condition"]},"clinicalStatus":{"coding":[{"system":"http://terminology.hl7.org/CodeSystem/condition-clinical","code":"active","display":"Active"}]},"category":[{"coding":[{"system":"http://terminology.hl7.org/CodeSystem/condition-category","code":"problem-list-item"}]}],"code":{"coding":[{"system":"http://snomed.info/sct","code":"736686006"}]},"subject":{"reference":"Patient/839751c0-a3e5-425f-9de3-27b2b2ee2bf2"},"onsetDateTime":"2022-09-18T00:00:00+00:00"}},{"fullUrl":"Condition/4e5bdbef-e972-4935-a7ed-b4f659a480c2","resource":{"resourceType":"Condition","id":"4e5bdbef-e972-4935-a7ed-b4f659a480c2","meta":{"profile":["http://hl7.org/fhir/us/core/StructureDefinition/us-core-condition"]},"clinicalStatus":{"coding":[{"system":"http://terminology.hl7.org/CodeSystem/condition-clinical","code":"active","display":"Active"}]},"category":[{"coding":[{"system":"http://terminology.hl7.org/CodeSystem/condition-category","code":"problem-list-item"}]}],"code":{"coding":[{"system":"http://snomed.info/sct","code":"709977002"}]},"subject":{"reference":"Patient/839751c0-a3e5-425f-9de3-27b2b2ee2bf2"},"onsetDateTime":"2022-09-15T00:00:00+00:00"}},{"fullUrl":"Observation/be30bff5-12bf-4f4e-bb49-9de6167c4aaf","resource":{"resourceType":"Observation","id":"be30bff5-12bf-4f4e-bb49-9de6167c4aaf","meta":{"profile":["http://hl7.org/fhir/us/core/StructureDefinition/us-core-observation-lab"]},"status":"final","category":[{"coding":[{"system":"http://terminology.hl7.org/CodeSystem/observation-category","code":"laboratory","display":"Laboratory"}]}],"code":{"coding":[{"system":"http://loinc.org","code":"49498-9"}]},"subject":{"reference":"Patient/839751c0-a3e5-425f-9de3-27b2b2ee2bf2"},"effectiveDateTime":"2022-10-22T00:00:00+00:00","valueQuantity":{"value":9.3}}},{"fullUrl":"Observation/95ba891c-ac7b-4848-b9cd-8ab42ba4d297","resource":{"resourceType":"Observation","id":"95ba891c-ac7b-4848-b9cd-8ab42ba4d297","meta":{"profile":["http://hl7.org/fhir/us/core/StructureDefinition/us-core-observation-lab"]},"status":"final","category":[{"coding":[{"system":"http://terminology.hl7.org/CodeSystem/observation-category","code":"laboratory","display":"Laboratory"}]}],"code":{"coding":[{"system":"http://loinc.org","code":"49498-9"}]},"subject":{"reference":"Patient/839751c0-a3e5-425f-9de3-27b2b2ee2bf2"},"effectiveDateTime":"2022-08-16T00:00:00+00:00","valueQuantity":{"value":9.9}}},{"fullUrl":"Observation/ab435c0a-2735-42cd-8caf-b208b5ef131b","resource":{"resourceType":"Observation","id":"ab435c0a-2735-42cd-8caf-b208b5ef131b","meta":{"profile":["http://hl7.org/fhir/us/core/StructureDefinition/us-core-bmi"]},"status":"final","category":[{"coding":[{"system":"http://terminology.hl7.org/CodeSystem/observation-category","code":"vital-signs","display":"Vital Signs"}]}],"code":{"coding":[{"system":"http://loinc.org","code":"39156-5"}]},"subject":{"reference":"Patient/839751c0-a3e5-425f-9de3-27b2b2ee2bf2"},"effectiveDateTime":"2022-02-10T00:00:00+00:00","valueQuantity":{"value":17.36,"unit":"kg/m2","system":"http://unitsofmeasure.org","code":"kg/m2"}}},{"fullUrl":"Observation/63a4b58d-a5c4-4685-960b-83f5934b71eb","resource":{"resourceType":"Observation","id":"63a4b58d-a5c4-4685-960b-83f5934b71eb","meta":{"profile":["http://hl7.org/fhir/us/core/StructureDefinition/us-core-head-circumference"]},"status":"final","category":[{"coding":[{"system":"http://terminology.hl7.org/CodeSystem/observation-category","code":"vital-signs","display":"Vital Signs"}]}],"code":{"coding":[{"system":"http://loinc.org","code":"9843-4"}]},"subject":{"reference":"Patient/839751c0-a3e5-425f-9de3-27b2b2ee2bf2"},"effectiveDateTime":"2022-05-26T00:00:00+00:00","valueQuantity":{"value":7.8,"unit":"Inch","system":"http://unitsofmeasure.org","code":"[in_i]"}}},{"fullUrl":"Observation/01440bed-1fc7-4456-90c3-a2e2b58beb73","resource":{"resourceType":"Observation","id":"01440bed-1fc7-4456-90c3-a2e2b58beb73","meta":{"profile":["http://hl7.org/fhir/us/core/StructureDefinition/us-core-head-circumference"]},"status":"final","category":[{"coding":[{"system":"http://terminology.hl7.org/CodeSystem/observation-category","code":"vital-signs","display":"Vital Signs"}]}],"code":{"coding":[{"system":"http://loinc.org","code":"9843-4"}]},"subject":{"reference":"Patient/839751c0-a3e5-425f-9de3-27b2b2ee2bf2"},"effectiveDateTime":"2022-04-15T00:00:00+00:00","valueQuantity":{"value":9.2,"unit":"Inch","system":"http://unitsofmeasure.org","code":"[in_i]"}}},{"fullUrl":"Observation/df66be6b-454e-431d-ae0b-bfb49d9d70bd","resource":{"resourceType":"Observation","id":"df66be6b-454e-431d-ae0b-bfb49d9d70bd","meta":{"profile":["http://hl7.org/fhir/us/core/StructureDefinition/us-core-body-height"]},"status":"final","category":[{"coding":[{"system":"http://terminology.hl7.org/CodeSystem/observation-category","code":"vital-signs","display":"Vital Signs"}]}],"code":{"coding":[{"system":"http://loinc.org","code":"8302-2"}]},"subject":{"reference":"Patient/839751c0-a3e5-425f-9de3-27b2b2ee2bf2"},"effectiveDateTime":"2022-05-12T00:00:00+00:00","valueQuantity":{"value":65.9,"unit":"Inch","system":"http://unitsofmeasure.org","code":"[in_i]"}}},{"fullUrl":"Observation/e0bb34d0-c713-4f15-b49a-40c51f198a5a","resource":{"resourceType":"Observation","id":"e0bb34d0-c713-4f15-b49a-40c51f198a5a","meta":{"profile":["http://hl7.org/fhir/us/core/StructureDefinition/us-core-body-height"]},"status":"final","category":[{"coding":[{"system":"http://terminology.hl7.org/CodeSystem/observation-category","code":"vital-signs","display":"Vital Signs"}]}],"code":{"coding":[{"system":"http://loinc.org","code":"8302-2"}]},"subject":{"reference":"Patient/839751c0-a3e5-425f-9de3-27b2b2ee2bf2"},"effectiveDateTime":"2022-03-11T00:00:00+00:00","valueQuantity":{"value":83.5,"unit":"Inch","system":"http://unitsofmeasure.org","code":"[in_i]"}}},{"fullUrl":"Observation/048eeab7-271f-42da-a5e9-e816f7f76c17","resource":{"resourceType":"Observation","id":"048eeab7-271f-42da-a5e9-e816f7f76c17","meta":{"profile":["http://hl7.org/fhir/us/core/StructureDefinition/us-core-body-weight"]},"status":"final","category":[{"coding":[{"system":"http://terminology.hl7.org/CodeSystem/observation-category","code":"vital-signs","display":"Vital Signs"}]}],"code":{"coding":[{"system":"http://loinc.org","code":"29463-7"}]},"subject":{"reference":"Patient/839751c0-a3e5-425f-9de3-27b2b2ee2bf2"},"effectiveDateTime":"2022-10-16T00:00:00+00:00","valueQuantity":{"value":59.43,"unit":"kilogram","system":"http://unitsofmeasure.org","code":"kg"}}},{"fullUrl":"Observation/9abb7e74-d9c5-4375-a5d1-2f135438c1ac","resource":{"resourceType":"Observation","id":"9abb7e74-d9c5-4375-a5d1-2f135438c1ac","meta":{"profile":["http://hl7.org/fhir/us/core/StructureDefinition/us-core-body-temperature"]},"status":"final","category":[{"coding":[{"system":"http://terminology.hl7.org/CodeSystem/observation-category","code":"vital-signs","display":"Vital Signs"}]}],"code":{"coding":[{"system":"http://loinc.org","code":"8310-5"}]},"subject":{"reference":"Patient/839751c0-a3e5-425f-9de3-27b2b2ee2bf2"},"effectiveDateTime":"2022-09-17T00:00:00+00:00","valueQuantity":{"value":22.12,"unit":"Degrees Fahrenheit","system":"http://unitsofmeasure.org","code":"[degF]"}}},{"fullUrl":"Observation/e070f4bb-6c83-481f-ad30-df1538b59dd1","resource":{"resourceType":"Observation","id":"e070f4bb-6c83-481f-ad30-df1538b59dd1","meta":{"profile":["http://hl7.org/fhir/us/core/StructureDefinition/us-core-heart-rate"]},"status":"final","category":[{"coding":[{"system":"http://terminology.hl7.org/CodeSystem/observation-category","code":"vital-signs","display":"Vital Signs"}]}],"code":{"coding":[{"system":"http://loinc.org","code":"8867-4"}]},"subject":{"reference":"Patient/839751c0-a3e5-425f-9de3-27b2b2ee2bf2"},"effectiveDateTime":"2022-04-04T00:00:00+00:00","valueQuantity":{"value":97.4,"unit":"Per Minute","system":"http://unitsofmeasure.org","code":"/min"}}},{"fullUrl":"Patient/e762e87f-1a37-4ed1-9ff0-d1c7eae51c0f","resource":{"resourceType":"Patient","id":"e762e87f-1a37-4ed1-9ff0-d1c7eae51c0f","meta":{"profile":["http://hl7.org/fhir/us/core/StructureDefinition/us-core-patient"]},"extension":[{"extension":[{"url":"ombCategory","valueCoding":{"system":"urn:oid:2.16.840.1.113883.6.238","code":"2106-3","display":"White"}},{"url":"text","valueString":"White"}],"url":"http://hl7.org/fhir/us/core/StructureDefinition/us-core-race"},{"extension":[{"url":"ombCategory","valueCoding":{"system":"urn:oid:2.16.840.1.113883.6.238","code":"2186-5","display":"Not Hispanic or Latino"}},{"url":"text","valueString":"Not Hispanic or Latino"}],"url":"http://hl7.org/fhir/us/core/StructureDefinition/us-core-ethnicity"}],"identifier":[{"type":{"coding":[{"system":"http://terminology.hl7.org/CodeSystem/v2-0203","code":"MR"}]},"system":"urn:fhirgen:mrn","value":"182-60-3406"},{"system":"http://hl7.org/fhir/sid/us-ssn","value":"896-69-8069"}],"name":[{"use":"official","family":"Bray","given":["Laura"]},{"use":"maiden","family":"Payne"}],"telecom":[{"system":"phone","value":"227.510.7107x62913","use":"home"},{"system":"email","value":"danny19@yahoo.com","use":"mobile"}],"gender":"other","birthDate":"1974-03-02","address":[{"use":"home","line":["925 Richard Unions"],"city":"Nicoleborough","state":"MT","postalCode":"68467"},{"use":"old","line":["3316 Lee Fords"],"city":"East Diana","state":"CT","postalCode":"55783"}],"maritalStatus":{"coding":[{"system":"http://terminology.hl7.org/CodeSystem/v3-MaritalStatus","code":"I","display":"Interlocutory"}]}}},{"fullUrl":"Observation/6ad4167e-70f7-4481-96ad-09e3e00f5032","resource":{"resourceType":"Observation","id":"6ad4167e-70f7-4481-96ad-09e3e00f5032","meta":{"profile":["http://hl7.org/fhir/us/core/StructureDefinition/us-core-observation-lab"]},"status":"final","category":[{"coding":[{"system":"http://terminology.hl7.org/CodeSystem/observation-category","code":"laboratory","display":"Laboratory"}]}],"code":{"coding":[{"system":"http://loinc.org","code":"31146-4"}]},"subject":{"reference":"Patient/e762e87f-1a37-4ed1-9ff0-d1c7eae51c0f"},"effectiveDateTime":"2022-07-21T00:00:00+00:00","valueRatio":{"numerator":{"value":1},"denominator":{"value":64}}}},{"fullUrl":"Observation/8cb7dcf7-85c2-4af9-b5e8-14e71654c585","resource":{"resourceType":"Observation","id":"8cb7dcf7-85c2-4af9-b5e8-14e71654c585","meta":{"profile":["http://hl7.org/fhir/us/core/StructureDefinition/us-core-observation-lab"]},"status":"final","category":[{"coding":[{"system":"http://terminology.hl7.org/CodeSystem/observation-category","code":"laboratory","display":"Laboratory"}]}],"code":{"coding":[{"system":"http://loinc.org","code":"87925-4"}]},"subject":{"reference":"Patient/e762e87f-1a37-4ed1-9ff0-d1c7eae51c0f"},"effectiveDateTime":"2022-12-02T00:00:00+00:00","valueRatio":{"numerator":{"value":1},"denominator":{"value":64}}}},{"fullUrl":"Observation/1fdc921b-0810-43dd-8daf-2974cfe04a27","resource":{"resourceType":"Observation","id":"1fdc921b-0810-43dd-8daf-2974cfe04a27","meta":{"profile":["http://hl7.org/fhir/us/core/StructureDefinition/us-core-observation-lab"]},"status":"final","category":[{"coding":[{"system":"http://terminology.hl7.org/CodeSystem/observation-category","code":"laboratory","display":"Laboratory"}]}],"code":{"coding":[{"system":"http://loinc.org","code":"50695-6"}]},"subject":{"reference":"Patient/e762e87f-1a37-4ed1-9ff0-d1c7eae51c0f"},"effectiveDateTime":"2022-08-25T00:00:00+00:00","valueRatio":{"numerator":{"value":1},"denominator":{"value":4}}}},{"fullUrl":"Condition/396ed43c-b80f-4386-b518-42679ec62b8f","resource":{"resourceType":"Condition","id":"396ed43c-b80f-4386-b518-42679ec62b8f","meta":{"profile":["http://hl7.org/fhir/us/core/StructureDefinition/us-core-condition"]},"clinicalStatus":{"coding":[{"system":"http://terminology.hl7.org/CodeSystem/condition-clinical","code":"active","display":"Active"}]},"category":[{"coding":[{"system":"http://terminology.hl7.org/CodeSystem/condition-category","code":"problem-list-item"}]}],"code":{"coding":[{"system":"http://snomed.info/sct","code":"44882003"}]},"subject":{"reference":"Patient/e762e87f-1a37-4ed1-9ff0-d1c7eae51c0f"},"onsetDateTime":"2022-04-20T00:00:00+00:00"}},{"fullUrl":"Condition/15599c17-6693-4749-b9e8-bb35bf1327a7","resource":{"resourceType":"Condition","id":"15599c17-6693-4749-b9e8-bb35bf1327a7","meta":{"profile":["http://hl7.org/fhir/us/core/StructureDefinition/us-core-condition"]},"clinicalStatus":{"coding":[{"system":"http://terminology.hl7.org/CodeSystem/condition-clinical","code":"active","display":"Active"}]},"category":[{"coding":[{"system":"http://terminology.hl7.org/CodeSystem/condition-category","code":"problem-list-item"}]}],"code":{"coding":[{"system":"http://snomed.info/sct","code":"418290006"}]},"subject":{"reference":"Patient/e762e87f-1a37-4ed1-9ff0-d1c7eae51c0f"},"onsetDateTime":"2022-01-09T00:00:00+00:00"}},{"fullUrl":"Condition/960ff857-013f-4c58-9c84-b98155c0a04e","resource":{"resourceType":"Condition","id":"960ff857-013f-4c58-9c84-b98155c0a04e","meta":{"profile":["http://hl7.org/fhir/us/core/StructureDefinition/us-core-condition"]},"clinicalStatus":{"coding":[{"system":"http://terminology.hl7.org/CodeSystem/condition-clinical","code":"active","display":"Active"}]},"category":[{"coding":[{"system":"http://terminology.hl7.org/CodeSystem/condition-category","code":"problem-list-item"}]}],"code":{"coding":[{"system":"http://snomed.info/sct","code":"736686006"}]},"subject":{"reference":"Patient/e762e87f-1a37-4ed1-9ff0-d1c7eae51c0f"},"onsetDateTime":"2022-02-06T00:00:00+00:00"}},{"fullUrl":"Condition/917b15af-6a0c-420c-936f-6fec6dca3217","resource":{"resourceType":"Condition","id":"917b15af-6a0c-420c-936f-6fec6dca3217","meta":{"profile":["http://hl7.org/fhir/us/core/StructureDefinition/us-core-condition"]},"clinicalStatus":{"coding":[{"system":"http://terminology.hl7.org/CodeSystem/condition-clinical","code":"active","display":"Active"}]},"category":[{"coding":[{"system":"http://terminology.hl7.org/CodeSystem/condition-category","code":"problem-list-item"}]}],"code":{"coding":[{"system":"http://snomed.info/sct","code":"709977002"}]},"subject":{"reference":"Patient/e762e87f-1a37-4ed1-9ff0-d1c7eae51c0f"},"onsetDateTime":"2022-01-04T00:00:00+00:00"}},{"fullUrl":"Condition/c3f31204-14b7-4c8a-bb2c-3205106fbc8c","resource":{"resourceType":"Condition","id":"c3f31204-14b7-4c8a-bb2c-3205106fbc8c","meta":{"profile":["http://hl7.org/fhir/us/core/StructureDefinition/us-core-condition"]},"clinicalStatus":{"coding":[{"system":"http://terminology.hl7.org/CodeSystem/condition-clinical","code":"active","display":"Active"}]},"category":[{"coding":[{"system":"http://terminology.hl7.org/CodeSystem/condition-category","code":"problem-list-item"}]}],"code":{"coding":[{"system":"http://snomed.info/sct","code":"91554004"}]},"subject":{"reference":"Patient/e762e87f-1a37-4ed1-9ff0-d1c7eae51c0f"},"onsetDateTime":"2022-03-01T00:00:00+00:00"}},{"fullUrl":"Observation/cb34e771-9e40-4ccd-848c-4507c5745473","resource":{"resourceType":"Observation","id":"cb34e771-9e40-4ccd-848c-4507c5745473","meta":{"profile":["http://hl7.org/fhir/us/core/StructureDefinition/us-core-observation-lab"]},"status":"final","category":[{"coding":[{"system":"http://terminology.hl7.org/CodeSystem/observation-category","code":"laboratory","display":"Laboratory"}]}],"code":{"coding":[{"system":"http://loinc.org","code":"6690-2"}]},"subject":{"reference":"Patient/e762e87f-1a37-4ed1-9ff0-d1c7eae51c0f"},"effectiveDateTime":"2022-02-16T00:00:00+00:00","valueQuantity":{"value":4.2}}},{"fullUrl":"Observation/6c893574-0c30-4e7f-82f8-2043239cd32a","resource":{"resourceType":"Observation","id":"6c893574-0c30-4e7f-82f8-2043239cd32a","meta":{"profile":["http://hl7.org/fhir/us/core/StructureDefinition/us-core-observation-lab"]},"status":"final","category":[{"coding":[{"system":"http://terminology.hl7.org/CodeSystem/observation-category","code":"laboratory","display":"Laboratory"}]}],"code":{"coding":[{"system":"http://loinc.org","code":"26464-8"}]},"subject":{"reference":"Patient/e762e87f-1a37-4ed1-9ff0-d1c7eae51c0f"},"effectiveDateTime":"2022-08-10T00:00:00+00:00","valueQuantity":{"value":4.5}}},{"fullUrl":"Observation/140c87ca-caf5-4ec2-816f-01000292ac45","resource":{"resourceType":"Observation","id":"140c87ca-caf5-4ec2-816f-01000292ac45","meta":{"profile":["http://hl7.org/fhir/us/core/StructureDefinition/us-core-observation-lab"]},"status":"final","category":[{"coding":[{"system":"http://terminology.hl7.org/CodeSystem/observation-category","code":"laboratory","display":"Laboratory"}]}],"code":{"coding":[{"system":"http://loinc.org","code":"804-5"}]},"subject":{"reference":"Patient/e762e87f-1a37-4ed1-9ff0-d1c7eae51c0f"},"effectiveDateTime":"2022-12-12T00:00:00+00:00","valueQuantity":{"value":9.7}}},{"fullUrl":"Observation/4ce05c93-8a09-4a2f-8b5e-f3ea32a25505","resource":{"resourceType":"Observation","id":"4ce05c93-8a09-4a2f-8b5e-f3ea32a25505","meta":{"profile":["http://hl7.org/fhir/us/core/StructureDefinition/us-core-bmi"]},"status":"final","category":[{"coding":[{"system":"http://terminology.hl7.org/CodeSystem/observation-category","code":"vital-signs","display":"Vital Signs"}]}],"code":{"coding":[{"system":"http://loinc.org","code":"39156-5"}]},"subject":{"reference":"Patient/e762e87f-1a37-4ed1-9ff0-d1c7eae51c0f"},"effectiveDateTime":"2022-12-09T00:00:00+00:00","valueQuantity":{"value":24.84,"unit":"kg/m2","system":"http://unitsofmeasure.org","code":"kg/m2"}}},{"fullUrl":"Observation/f20c997c-ac18-400b-ac46-cad61d597c95","resource":{"resourceType":"Observation","id":"f20c997c-ac18-400b-ac46-cad61d597c95","meta":{"profile":["http://hl7.org/fhir/us/core/StructureDefinition/us-core-bmi"]},"status":"final","category":[{"coding":[{"system":"http://terminology.hl7.org/CodeSystem/observation-category","code":"vital-signs","display":"Vital Signs"}]}],"code":{"coding":[{"system":"http://loinc.org","code":"39156-5"}]},"subject":{"reference":"Patient/e762e87f-1a37-4ed1-9ff0-d1c7eae51c0f"},"effectiveDateTime":"2022-05-13T00:00:00+00:00","valueQuantity":{"value":25.96,"unit":"kg/m2","system":"http://unitsofmeasure.org","code":"kg/m2"}}},{"fullUrl":"Observation/2c8033d6-2e6b-4ac8-a63f-2306f2156022","resource":{"resourceType":"Observation","id":"2c8033d6-2e6b-4ac8-a63f-2306f2156022","meta":{"profile":["http://hl7.org/fhir/us/core/StructureDefinition/us-core-head-circumference"]},"status":"final","category":[{"coding":[{"system":"http://terminology.hl7.org/CodeSystem/observation-category","code":"vital-signs","display":"Vital Signs"}]}],"code":{"coding":[{"system":"http://loinc.org","code":"9843-4"}]},"subject":{"reference":"Patient/e762e87f-1a37-4ed1-9ff0-d1c7eae51c0f"},"effectiveDateTime":"2022-04-15T00:00:00+00:00","valueQuantity":{"value":4.4,"unit":"Inch","system":"http://unitsofmeasure.org","code":"[in_i]"}}},{"fullUrl":"Observation/9b23d5b0-c46a-4221-8b17-21b6523b0604","resource":{"resourceType":"Observation","id":"9b23d5b0-c46a-4221-8b17-21b6523b0604","meta":{"profile":["http://hl7.org/fhir/us/core/StructureDefinition/us-core-head-circumference"]},"status":"final","category":[{"coding":[{"system":"http://terminology.hl7.org/CodeSystem/observation-category","code":"vital-signs","display":"Vital Signs"}]}],"code":{"coding":[{"system":"http://loinc.org","code":"9843-4"}]},"subject":{"reference":"Patient/e762e87f-1a37-4ed1-9ff0-d1c7eae51c0f"},"effectiveDateTime":"2022-12-09T00:00:00+00:00","valueQuantity":{"value":5.3,"unit":"Inch","system":"http://unitsofmeasure.org","code":"[in_i]"}}},{"fullUrl":"Observation/440b8d50-4e47-4cdf-8a10-db5786027d2c","resource":{"resourceType":"Observation","id":"440b8d50-4e47-4cdf-8a10-db5786027d2c","meta":{"profile":["http://hl7.org/fhir/us/core/StructureDefinition/us-core-body-height"]},"status":"final","category":[{"coding":[{"system":"http://terminology.hl7.org/CodeSystem/observation-category","code":"vital-signs","display":"Vital Signs"}]}],"code":{"coding":[{"system":"http://loinc.org","code":"8302-2"}]},"subject":{"reference":"Patient/e762e87f-1a37-4ed1-9ff0-d1c7eae51c0f"},"effectiveDateTime":"2022-02-11T00:00:00+00:00","valueQuantity":{"value":74.6,"unit":"Inch","system":"http://unitsofmeasure.org","code":"[in_i]"}}},{"fullUrl":"Observation/c74eeb7d-bba2-4a0d-88ed-218a2d7d9b48","resource":{"resourceType":"Observation","id":"c74eeb7d-bba2-4a0d-88ed-218a2d7d9b48","meta":{"profile":["http://hl7.org/fhir/us/core/StructureDefinition/us-core-body-weight"]},"status":"final","category":[{"coding":[{"system":"http://terminology.hl7.org/CodeSystem/observation-category","code":"vital-signs","display":"Vital Signs"}]}],"code":{"coding":[{"system":"http://loinc.org","code":"29463-7"}]},"subject":{"reference":"Patient/e762e87f-1a37-4ed1-9ff0-d1c7eae51c0f"},"effectiveDateTime":"2022-12-30T00:00:00+00:00","valueQuantity":{"value":70.52,"unit":"kilogram","system":"http://unitsofmeasure.org","code":"kg"}}},{"fullUrl":"Observation/2190af35-29c1-4d2e-87d4-e6486bb01930","resource":{"resourceType":"Observation","id":"2190af35-29c1-4d2e-87d4-e6486bb01930","meta":{"profile":["http://hl7.org/fhir/us/core/StructureDefinition/us-core-body-temperature"]},"status":"final","category":[{"coding":[{"system":"http://terminology.hl7.org/CodeSystem/observation-category","code":"vital-signs","display":"Vital Signs"}]}],"code":{"coding":[{"system":"http://loinc.org","code":"8310-5"}]},"subject":{"reference":"Patient/e762e87f-1a37-4ed1-9ff0-d1c7eae51c0f"},"effectiveDateTime":"2022-05-01T00:00:00+00:00","valueQuantity":{"value":88.43,"unit":"Degrees Fahrenheit","system":"http://unitsofmeasure.org","code":"[degF]"}}},{"fullUrl":"Observation/b1e722c3-afd8-4ae0-a01d-4630c343372b","resource":{"resourceType":"Observation","id":"b1e722c3-afd8-4ae0-a01d-4630c343372b","meta":{"profile":["http://hl7.org/fhir/us/core/StructureDefinition/us-core-heart-rate"]},"status":"final","category":[{"coding":[{"system":"http://terminology.hl7.org/CodeSystem/observation-category","code":"vital-signs","display":"Vital Signs"}]}],"code":{"coding":[{"system":"http://loinc.org","code":"8867-4"}]},"subject":{"reference":"Patient/e762e87f-1a37-4ed1-9ff0-d1c7eae51c0f"},"effectiveDateTime":"2022-06-10T00:00:00+00:00","valueQuantity":{"value":95.3,"unit":"Per Minute","system":"http://unitsofmeasure.org","code":"/min"}}},{"fullUrl":"Observation/dcbe34c8-5ad6-4a12-a07e-31dd5589a718","resource":{"resourceType":"Observation","id":"dcbe34c8-5ad6-4a12-a07e-31dd5589a718","meta":{"profile":["http://hl7.org/fhir/us/core/StructureDefinition/us-core-heart-rate"]},"status":"final","category":[{"coding":[{"system":"http://terminology.hl7.org/CodeSystem/observation-category","code":"vital-signs","display":"Vital Signs"}]}],"code":{"coding":[{"system":"http://loinc.org","code":"8867-4"}]},"subject":{"reference":"Patient/e762e87f-1a37-4ed1-9ff0-d1c7eae51c0f"},"effectiveDateTime":"2022-03-09T00:00:00+00:00","valueQuantity":{"value":98.5,"unit":"Per Minute","system":"http://unitsofmeasure.org","code":"/min"}}}]}