{"resourceType":"Bundle","id":"66f7a905-782e-4c59-b8ca-e172d5458d95","type":"collection","entry":[{"fullUrl":"Patient/6de45857-677c-4038-8853-f2f906edddc1","resource":{"resourceType":"Patient","id":"6de45857-677c-4038-8853-f2f906edddc1","meta":{"profile":["http://hl7.org/fhir/us/core/StructureDefinition/us-core-patient"]},"extension":[{"extension":[{"url":"ombCategory","valueCoding":{"system":"http://terminology.hl7.org/CodeSystem/v3-NullFlavor","code":"UNK","display":"unknown"}},{"url":"text","valueString":"unknown"}],"url":"http://hl7.org/fhir/us/core/StructureDefinition/us-core-race"},{"extension":[{"url":"ombCategory","valueCoding":{"system":"urn:oid:2.16.840.1.113883.6.238","code":"2186-5","display":"Not Hispanic or Latino"}},{"url":"text","valueString":"Not Hispanic or Latino"}],"url":"http://hl7.org/fhir/us/core/StructureDefinition/us-core-ethnicity"}],"identifier":[{"type":{"coding":[{"system":"http://terminology.hl7.org/CodeSystem/v2-0203","code":"MR"}]},"system":"urn:fhirgen:mrn","value":"796-24-7160"},{"system":"http://hl7.org/fhir/sid/us-ssn","value":"891-09-4709"}],"name":[{"use":"official","family":"Webb","given":["Christopher"]},{"use":"maiden","family":"Buckley"}],"telecom":[{"system":"phone","value":"420.702.7663","use":"mobile"},{"system":"email","value":"johncain@yahoo.com","use":"mobile"}],"gender":"male","birthDate":"1957-04-15","address":[{"use":"home","line":["5808 Patrick Street"],"city":"Nelsonport","state":"FL","postalCode":"37561"},{"use":"old","line":["367 Jacobs Squares"],"city":"Josephberg","state":"WY","postalCode":"74869"}],"maritalStatus":{"coding":[{"system":"http://terminology.hl7.org/CodeSystem/v3-MaritalStatus","code":"P","display":"Polygamous"}]}}},{"fullUrl":"Observation/37cce04f-35a2-483b-9497-944afced2dcf","resource":{"resourceType":"Observation","id":"37cce04f-35a2-483b-9497-944afced2dcf","meta":{"profile":["http://hl7.org/fhir/us/core/StructureDefinition/us-core-observation-lab"]},"status":"final","category":[{"coding":[{"system":"http://terminology.hl7.org/CodeSystem/observation-category","code":"laboratory","display":"Laboratory"}]}],"code":{"coding":[{"system":"http://loinc.org","code":"47235-7"}]},"subject":{"reference":"Patient/6de45857-677c-4038-8853-f2f906edddc1"},"effectiveDateTime":"2022-05-29T00:00:00+00:00","valueRatio":{"numerator":{"value":1},"denominator":{"value":4}}}},{"fullUrl":"Observation/ee7328de-96d3-47ab-a178-3ff48b1f2ce7","resource":{"resourceType":"Observation","id":"ee7328de-96d3-47ab-a178-3ff48b1f2ce7","meta":{"profile":["http://hl7.org/fhir/us/core/StructureDefinition/us-core-observation-lab"]},"status":"final","category":[{"coding":[{"system":"http://terminology.hl7.org/CodeSystem/observation-category","code":"laboratory","display":"Laboratory"}]}],"code":{"coding":[{"system":"http://loinc.org","code":"50695-6"}]},"subject":{"reference":"Patient/6de45857-677c-4038-8853-f2f906edddc1"},"effectiveDateTime":"2022-01-07T00:00:00+00:00","valueRatio":{"numerator":{"value":1},"denominator":{"value":64}}}},{"fullUrl":"Observation/224f3792-147f-4522-bcec-e4cc8b612ab1","resource":{"resourceType":"Observation","id":"224f3792-147f-4522-bcec-e4cc8b612ab1","meta":{"profile":["http://hl7.org/fhir/us/core/StructureDefinition/us-core-observation-lab"]},"status":"final","category":[{"coding":[{"system":"http://terminology.hl7.org/CodeSystem/observation-category","code":"laboratory","display":"Laboratory"}]}],"code":{"coding":[{"system":"http://loinc.org","code":"46203-6"}]},"subject":{"reference":"Patient/6de45857-677c-4038-8853-f2f906edddc1"},"effectiveDateTime":"2022-02-06T00:00:00+00:00","valueRatio":{"numerator":{"value":1},"denominator":{"value":4}}}},{"fullUrl":"Condition/4de7b2a8-35e3-4573-803a-bd61c3e77fe8","resource":{"resourceType":"Condition","id":"4de7b2a8-35e3-4573-803a-bd61c3e77fe8","meta":{"profile":["http://hl7.org/fhir/us/core/StructureDefinition/us-core-condition"]},"clinicalStatus":{"coding":[{"system":"http://terminology.hl7.org/CodeSystem/condition-clinical","code":"active","display":"Active"}]},"category":[{"coding":[{"system":"http://terminology.hl7.org/CodeSystem/condition-category","code":"problem-list-item"}]}],"code":{"coding":[{"system":"http://snomed.info/sct","code":"418290006"}]},"subject":{"reference":"Patient/6de45857-677c-4038-8853-f2f906edddc1"},"onsetDateTime":"2022-01-01T00:00:00+00:00"}},{"fullUrl":"Condition/0ea11fdc-eeb4-41f1-98ce-67fd53d04eaa","resource":{"resourceType":"Condition","id":"0ea11fdc-eeb4-41f1-98ce-67fd53d04eaa","meta":{"profile":["http://hl7.org/fhir/us/core/StructureDefinition/us-core-condition"]},"clinicalStatus":{"coding":[{"system":"http://terminology.hl7.org/CodeSystem/condition-clinical","code":"active","display":"Active"}]},"category":[{"coding":[{"system":"http://terminology.hl7.org/CodeSystem/condition-category","code":"problem-list-item"}]}],"code":{"coding":[{"system":"http://snomed.info/sct","code":"44882003"}]},"subject":{"reference":"Patient/6de45857-677c-4038-8853-f2f906edddc1"},"onsetDateTime":"2022-01-03T00:00:00+00:00"}},{"fullUrl":"Condition/afbeb20c-63c7-4343-bf34-a4e1cec53b64","resource":{"resourceType":"Condition","id":"afbeb20c-63c7-4343-bf34-a4e1cec53b64","meta":{"profile":["http://hl7.org/fhir/us/core/StructureDefinition/us-core-condition"]},"clinicalStatus":{"coding":[{"system":"http://terminology.hl7.org/CodeSystem/condition-clinical","code":"active","display":"Active"}]},"category":[{"coding":[{"system":"http://terminology.hl7.org/CodeSystem/condition-category","code":"problem-list-item"}]}],"code":{"coding":[{"system":"http://snomed.info/sct","code":"44882003"}]},"subject":{"reference":"Patient/6de45857-677c-4038-8853-f2f906edddc1"},"onsetDateTime":"2022-11-14T00:00:00+00:00"}},{"fullUrl":"Observation/8962c7fc-6f44-4f3c-aadc-b6a5010b8e9e","resource":{"resourceType":"Observation","id":"8962c7fc-6f44-4f3c-aadc-b6a5010b8e9e","meta":{"profile":["http://hl7.org/fhir/us/core/StructureDefinition/us-core-observation-lab"]},"status":"final","category":[{"coding":[{"system":"http://terminology.hl7.org/CodeSystem/observation-category","code":"laboratory","display":"Laboratory"}]}],"code":{"coding":[{"system":"http://loinc.org","code":"804-5"}]},"subject":{"reference":"Patient/6de45857-677c-4038-8853-f2f906edddc1"},"effectiveDateTime":"2022-07-04T00:00:00+00:00","valueQuantity":{"value":6.6}}},{"fullUrl":"Observation/d1179d4e-5c68-4fd5-bf19-badd3aef5cd8","resource":{"resourceType":"Observation","id":"d1179d4e-5c68-4fd5-bf19-badd3aef5cd8","meta":{"profile":["http://hl7.org/fhir/us/core/StructureDefinition/us-core-observation-lab"]},"status":"final","category":[{"coding":[{"system":"http://terminology.hl7.org/CodeSystem/observation-category","code":"laboratory","display":"Laboratory"}]}],"code":{"coding":[{"system":"http://loinc.org","code":"804-5"}]},"subject":{"reference":"Patient/6de45857-677c-4038-8853-f2f906edddc1"},"effectiveDateTime":"2022-12-28T00:00:00+00:00","valueQuantity":{"value":11}}},{"fullUrl":"Observation/1ef76464-f60d-4598-b660-7aa217fff02c","resource":{"resourceType":"Observation","id":"1ef76464-f60d-4598-b660-7aa217fff02c","meta":{"profile":["http://hl7.org/fhir/us/core/StructureDefinition/us-core-bmi"]},"status":"final","category":[{"coding":[{"system":"http://terminology.hl7.org/CodeSystem/observation-category","code":"vital-signs","display":"Vital Signs"}]}],"code":{"coding":[{"system":"http://loinc.org","code":"39156-5"}]},"subject":{"reference":"Patient/6de45857-677c-4038-8853-f2f906edddc1"},"effectiveDateTime":"2022-04-05T00:00:00+00:00","valueQuantity":{"value":27.31,"unit":"kg/m2","system":"http://unitsofmeasure.org","code":"kg/m2"}}},{"fullUrl":"Observation/7b6a757b-5144-457d-b325-3f0c70bff7a0","resource":{"resourceType":"Observation","id":"7b6a757b-5144-457d-b325-3f0c70bff7a0","meta":{"profile":["http://hl7.org/fhir/us/core/StructureDefinition/us-core-head-circumference"]},"status":"final","category":[{"coding":[{"system":"http://terminology.hl7.org/CodeSystem/observation-category","code":"vital-signs","display":"Vital Signs"}]}],"code":{"coding":[{"system":"http://loinc.org","code":"9843-4"}]},"subject":{"reference":"Patient/6de45857-677c-4038-8853-f2f906edddc1"},"effectiveDateTime":"2022-02-18T00:00:00+00:00","valueQuantity":{"value":6,"unit":"Inch","system":"http://unitsofmeasure.org","code":"[in_i]"}}},{"fullUrl":"Observation/29a14ef2-3c58-42ba-b432-9073a268c4df","resource":{"resourceType":"Observation","id":"29a14ef2-3c58-42ba-b432-9073a268c4df","meta":{"profile":["http://hl7.org/fhir/us/core/StructureDefinition/us-core-body-height"]},"status":"final","category":[{"coding":[{"system":"http://terminology.hl7.org/CodeSystem/observation-category","code":"vital-signs","display":"Vital Signs"}]}],"code":{"coding":[{"system":"http://loinc.org","code":"8302-2"}]},"subject":{"reference":"Patient/6de45857-677c-4038-8853-f2f906edddc1"},"effectiveDateTime":"2022-01-27T00:00:00+00:00","valueQuantity":{"value":74.2,"unit":"Inch","system":"http://unitsofmeasure.org","code":"[in_i]"}}},{"fullUrl":"Observation/8d014475-573f-4b1e-b9d0-0adffc71ad1f","resource":{"resourceType":"Observation","id":"8d014475-573f-4b1e-b9d0-0adffc71ad1f","meta":{"profile":["http://hl7.org/fhir/us/core/StructureDefinition/us-core-body-height"]},"status":"final","category":[{"coding":[{"system":"http://terminology.hl7.org/CodeSystem/observation-category","code":"vital-signs","display":"Vital Signs"}]}],"code":{"coding":[{"system":"http://loinc.org","code":"8302-2"}]},"subject":{"reference":"Patient/6de45857-677c-4038-8853-f2f906edddc1"},"effectiveDateTime":"2022-02-24T00:00:00+00:00","valueQuantity":{"value":68.1,"unit":"Inch","system":"http://unitsofmeasure.org","code":"[in_i]"}}},{"fullUrl":"Observation/fe723098-2a29-4bb7-afed-fe57cf68e2e8","resource":{"resourceType":"Observation","id":"fe723098-2a29-4bb7-afed-fe57cf68e2e8","meta":{"profile":["http://hl7.org/fhir/us/core/StructureDefinition/us-core-body-weight"]},"status":"final","category":[{"coding":[{"system":"http://terminology.hl7.org/CodeSystem/observation-category","code":"vital-signs","display":"Vital Signs"}]}],"code":{"coding":[{"system":"http://loinc.org","code":"29463-7"}]},"subject":{"reference":"Patient/6de45857-677c-4038-8853-f2f906edddc1"},"effectiveDateTime":"2022-09-27T00:00:00+00:00","valueQuantity":{"value":87.65,"unit":"kilogram","system":"http://unitsofmeasure.org","code":"kg"}}},{"fullUrl":"Observation/e37ec853-e646-444d-8b53-8c37b39ecea3","resource":{"resourceType":"Observation","id":"e37ec853-e646-444d-8b53-8c37b39ecea3","meta":{"profile":["http://hl7.org/fhir/us/core/StructureDefinition/us-core-body-weight"]},"status":"final","category":[{"coding":[{"system":"http://terminology.hl7.org/CodeSystem/observation-category","code":"vital-signs","display":"Vital Signs"}]}],"code":{"coding":[{"system":"http://loinc.org","code":"29463-7"}]},"subject":{"reference":"Patient/6de45857-677c-4038-8853-f2f906edddc1"},"effectiveDateTime":"2022-08-18T00:00:00+00:00","valueQuantity":{"value":66.39,"unit":"kilogram","system":"http://unitsofmeasure.org","code":"kg"}}},{"fullUrl":"Observation/dfb2964b-a709-40dd-8f80-128b8f07ace5","resource":{"resourceType":"Observation","id":"dfb2964b-a709-40dd-8f80-128b8f07ace5","meta":{"profile":["http://hl7.org/fhir/us/core/StructureDefinition/us-core-body-temperature"]},"status":"final","category":[{"coding":[{"system":"http://terminology.hl7.org/CodeSystem/observation-category","code":"vital-signs","display":"Vital Signs"}]}],"code":{"coding":[{"system":"http://loinc.org","code":"8310-5"}]},"subject":{"reference":"Patient/6de45857-677c-4038-8853-f2f906edddc1"},"effectiveDateTime":"2022-03-31T00:00:00+00:00","valueQuantity":{"value":137.09,"unit":"Degrees Fahrenheit","system":"http://unitsofmeasure.org","code":"[degF]"}}},{"fullUrl":"Observation/3788c828-6c2e-4fed-bd6e-965fbf82b8b0","resource":{"resourceType":"Observation","id":"3788c828-6c2e-4fed-bd6e-965fbf82b8b0","meta":{"profile":["http://hl7.org/fhir/us/core/StructureDefinition/us-core-body-temperature"]},"status":"final","category":[{"coding":[{"system":"http://terminology.hl7.org/CodeSystem/observation-category","code":"vital-signs","display":"Vital Signs"}]}],"code":{"coding":[{"system":"http://loinc.org","code":"8310-5"}]},"subject":{"reference":"Patient/6de45857-677c-4038-8853-f2f906edddc1"},"effectiveDateTime":"2022-12-05T00:00:00+00:00","valueQuantity":{"value":148.22,"unit":"Degrees Fahrenheit","system":"http://unitsofmeasure.org","code":"[degF]"}}},{"fullUrl":"Observation/1da06dff-4fd1-4053-ae9a-5307debe75c5","resource":{"resourceType":"Observation","id":"1da06dff-4fd1-4053-ae9a-5307debe75c5","meta":{"profile":["http://hl7.org/fhir/us/core/StructureDefinition/us-core-heart-rate"]},"status":"final","category":[{"coding":[{"system":"http://terminology.hl7.org/CodeSystem/observation-category","code":"vital-signs","display":"Vital Signs"}]}],"code":{"coding":[{"system":"http://loinc.org","code":"8867-4"}]},"subject":{"reference":"Patient/6de45857-677c-4038-8853-f2f906edddc1"},"effectiveDateTime":"2022-05-24T00:00:00+00:00","valueQuantity":{"value":101.6,"unit":"Per Minute","system":"http://unitsofmeasure.org","code":"/min"}}},{"fullUrl":"Patient/2124d376-87b9-4478-a933-b14522a82948","resource":{"resourceType":"Patient","id":"2124d376-87b9-4478-a933-b14522a82948","meta":{"profile":["http://hl7.org/fhir/us/core/StructureDefinition/us-core-patient"]},"extension":[{"extension":[{"url":"ombCategory","valueCoding":{"system":"http://terminology.hl7.org/CodeSystem/v3-NullFlavor","code":"ASKU","display":"asked but unknown"}},{"url":"text","valueString":"asked but unknown"}],"url":"http://hl7.org/fhir/us/core/StructureDefinition/us-core-race"},{"extension":[{"url":"ombCategory","valueCoding":{"system":"urn:oid:2.16.840.1.113883.6.238","code":"2135-2","display":"Hispanic or Latino"}},{"url":"text","valueString":"Hispanic or Latino"}],"url":"http://hl7.org/fhir/us/core/StructureDefinition/us-core-ethnicity"}],"identifier":[{"type":{"coding":[{"system":"http://terminology.hl7.org/CodeSystem/v2-0203","code":"MR"}]},"system":"urn:fhirgen:mrn","value":"889-42-6544"},{"system":"http://hl7.org/fhir/sid/us-ssn","value":"435-62-7854"}],"name":[{"use":"official","family":"Mccullough","given":["Zachary"]},{"use":"maiden","family":"Callahan"}],"telecom":[{"system":"phone","value":"001-005-397-0576x41888","use":"work"},{"system":"email","value":"wgreene@hotmail.com","use":"work"}],"gender":"male","birthDate":"1970-09-18","address":[{"use":"home","line":["9709 Johnson Street Apt. 600"],"city":"Stephenberg","state":"MO","postalCode":"56692"},{"use":"old","line":["94099 Beverly Locks"],"city":"West Wayneside","state":"WV","postalCode":"13810"}],"maritalStatus":{"coding":[{"system":"http://terminology.hl7.org/CodeSystem/v3-MaritalStatus","code":"U","display":"unmarried"}]}}},{"fullUrl":"Observation/136747a8-4724-4e38-8605-715c8451da1b","resource":{"resourceType":"Observation","id":"136747a8-4724-4e38-8605-715c8451da1b","meta":{"profile":["http://hl7.org/fhir/us/core/StructureDefinition/us-core-observation-lab"]},"status":"final","category":[{"coding":[{"system":"http://terminology.hl7.org/CodeSystem/observation-category","code":"laboratory","display":"Laboratory"}]}],"code":{"coding":[{"system":"http://loinc.org","code":"50690-7"}]},"subject":{"reference":"Patient/2124d376-87b9-4478-a933-b14522a82948"},"effectiveDateTime":"2022-04-01T00:00:00+00:00","valueRatio":{"numerator":{"value":1},"denominator":{"value":4}}}},{"fullUrl":"Observation/5841e0df-0287-430e-8881-f99dbd05524c","resource":{"resourceType":"Observation","id":"5841e0df-0287-430e-8881-f99dbd05524c","meta":{"profile":["http://hl7.org/fhir/us/core/StructureDefinition/us-core-observation-lab"]},"status":"final","category":[{"coding":[{"system":"http://terminology.hl7.org/CodeSystem/observation-category","code":"laboratory","display":"Laboratory"}]}],"code":{"coding":[{"system":"http://loinc.org","code":"47235-7"}]},"subject":{"reference":"Patient/2124d376-87b9-4478-a933-b14522a82948"},"effectiveDateTime":"2022-04-02T00:00:00+00:00","valueRatio":{"numerator":{"value":1},"denominator":{"value":32}}}},{"fullUrl":"Observation/f3070eec-da35-42fc-8e91-68e31b9531e1","resource":{"resourceType":"Observation","id":"f3070eec-da35-42fc-8e91-68e31b9531e1","meta":{"profile":["http://hl7.org/fhir/us/core/StructureDefinition/us-core-observation-lab"]},"status":"final","category":[{"coding":[{"system":"http://terminology.hl7.org/CodeSystem/observation-category","code":"laboratory","display":"Laboratory"}]}],"code":{"coding":[{"system":"http://loinc.org","code":"31146-4"}]},"subject":{"reference":"Patient/2124d376-87b9-4478-a933-b14522a82948"},"effectiveDateTime":"2022-02-16T00:00:00+00:00","valueRatio":{"numerator":{"value":1},"denominator":{"value":4}}}},{"fullUrl":"Condition/56e9a6e2-68c0-45bf-8d18-65244f202da9","resource":{"resourceType":"Condition","id":"56e9a6e2-68c0-45bf-8d18-65244f202da9","meta":{"profile":["http://hl7.org/fhir/us/core/StructureDefinition/us-core-condition"]},"clinicalStatus":{"coding":[{"system":"http://terminology.hl7.org/CodeSystem/condition-clinical","code":"active","display":"Active"}]},"category":[{"coding":[{"system":"http://terminology.hl7.org/CodeSystem/condition-category","code":"problem-list-item"}]}],"code":{"coding":[{"system":"http://snomed.info/sct","code":"736686006"}]},"subject":{"reference":"Patient/2124d376-87b9-4478-a933-b14522a82948"},"onsetDateTime":"2022-05-22T00:00:00+00:00"}},{"fullUrl":"Condition/9b5bde40-2019-4ee1-9bc3-1151d7978b0c","resource":{"resourceType":"Condition","id":"9b5bde40-2019-4ee1-9bc3-1151d7978b0c","meta":{"profile":["http://hl7.org/fhir/us/core/StructureDefinition/us-core-condition"]},"clinicalStatus":{"coding":[{"system":"http://terminology.hl7.org/CodeSystem/condition-clinical","code":"active","display":"Active"}]},"category":[{"coding":[{"system":"http://terminology.hl7.org/CodeSystem/condition-category","code":"problem-list-item"}]}],"code":{"coding":[{"system":"http://snomed.info/sct","code":"44882003"}]},"subject":{"reference":"Patient/2124d376-87b9-4478-a933-b14522a82948"},"onsetDateTime":"2022-08-23T00:00:00+00:00"}},{"fullUrl":"Condition/cc0e385d-ed76-4aaa-b369-9bb7e7c8dd3c","resource":{"resourceType":"Condition","id":"cc0e385d-ed76-4aaa-b369-9bb7e7c8dd3c","meta":{"profile":["http://hl7.org/fhir/us/core/StructureDefinition/us-core-condition"]},"clinicalStatus":{"coding":[{"system":"http://terminology.hl7.org/CodeSystem/condition-clinical","code":"active","display":"Active"}]},"category":[{"coding":[{"system":"http://terminology.hl7.org/CodeSystem/condition-category","code":"problem-list-item"}]}],"code":{"coding":[{"system":"http://snomed.info/sct","code":"736686006"}]},"subject":{"reference":"Patient/2124d376-87b9-4478-a933-b14522a82948"},"onsetDateTime":"2022-09-06T00:00:00+00:00"}},{"fullUrl":"Condition/d0b34c17-a95c-4f92-991c-db8d39fb5c00","resource":{"resourceType":"Condition","id":"d0b34c17-a95c-4f92-991c-db8d39fb5c00","meta":{"profile":["http://hl7.org/fhir/us/core/StructureDefinition/us-core-condition"]},"clinicalStatus":{"coding":[{"system":"http://terminology.hl7.org/CodeSystem/condition-clinical","code":"active","display":"Active"}]},"category":[{"coding":[{"system":"http://terminology.hl7.org/CodeSystem/condition-category","code":"problem-list-item"}]}],"code":{"coding":[{"system":"http://snomed.info/sct","code":"709977002"}]},"subject":{"reference":"Patient/2124d376-87b9-4478-a933-b14522a82948"},"onsetDateTime":"2022-02-26T00:00:00+00:00"}},{"fullUrl":"Condition/eff40338-12bf-4d78-93a4-c49b945a14b3","resource":{"resourceType":"Condition","id":"eff40338-12bf-4d78-93a4-c49b945a14b3","meta":{"profile":["http://hl7.org/fhir/us/core/StructureDefinition/us-core-condition"]},"clinicalStatus":{"coding":[{"system":"http://terminology.hl7.org/CodeSystem/condition-clinical","code":"active","display":"Active"}]},"category":[{"coding":[{"system":"http://terminology.hl7.org/CodeSystem/condition-category","code":"problem-list-item"}]}],"code":{"coding":[{"system":"http://snomed.info/sct","code":"736686006"}]},"subject":{"reference":"Patient/2124d376-87b9-4478-a933-b14522a82948"},"onsetDateTime":"2022-11-08T00:00:00+00:00"}},{"fullUrl":"Condition/1ad645fb-e03b-4535-aa21-5219ad157855","resource":{"resourceType":"Condition","id":"1ad645fb-e03b-4535-aa21-5219ad157855","meta":{"profile":["http://hl7.org/fhir/us/core/StructureDefinition/us-core-condition"]},"clinicalStatus":{"coding":[{"system":"http://terminology.hl7.org/CodeSystem/condition-clinical","code":"active","display":"Active"}]},"category":[{"coding":[{"system":"http://terminology.hl7.org/CodeSystem/condition-category","code":"problem-list-item"}]}],"code":{"coding":[{"system":"http://snomed.info/sct","code":"91554004"}]},"subject":{"reference":"Patient/2124d376-87b9-4478-a933-b14522a82948"},"onsetDateTime":"2022-10-11T00:00:00+00:00"}},{"fullUrl":"Observation/cfef60c4-cbfb-46ad-b128-e29f1e56470b","resource":{"resourceType":"Observation","id":"cfef60c4-cbfb-46ad-b128-e29f1e56470b","meta":{"profile":["http://hl7.org/fhir/us/core/StructureDefinition/us-core-observation-lab"]},"status":"final","category":[{"coding":[{"system":"http://terminology.hl7.org/CodeSystem/observation-category","code":"laboratory","display":"Laboratory"}]}],"code":{"coding":[{"system":"http://loinc.org","code":"49498-9"}]},"subject":{"reference":"Patient/2124d376-87b9-4478-a933-b14522a82948"},"effectiveDateTime":"2022-09-13T00:00:00+00:00","valueQuantity":{"value":8.7}}},{"fullUrl":"Observation/48b892ff-3d99-4c73-bd27-285c3e0c3fba","resource":{"resourceType":"Observation","id":"48b892ff-3d99-4c73-bd27-285c3e0c3fba","meta":{"profile":["http://hl7.org/fhir/us/core/StructureDefinition/us-core-observation-lab"]},"status":"final","category":[{"coding":[{"system":"http://terminology.hl7.org/CodeSystem/observation-category","code":"laboratory","display":"Laboratory"}]}],"code":{"coding":[{"system":"http://loinc.org","code":"6690-2"}]},"subject":{"reference":"Patient/2124d376-87b9-4478-a933-b14522a82948"},"effectiveDateTime":"2022-11-27T00:00:00+00:00","valueQuantity":{"value":9.6}}},{"fullUrl":"Observation/8cd9163a-35fe-42af-a216-fbed49dd4619","resource":{"resourceType":"Observation","id":"8cd9163a-35fe-42af-a216-fbed49dd4619","meta":{"profile":["http://hl7.org/fhir/us/core/StructureDefinition/us-core-observation-lab"]},"status":"final","category":[{"coding":[{"system":"http://terminology.hl7.org/CodeSystem/observation-category","code":"laboratory","display":"Laboratory"}]}],"code":{"coding":[{"system":"http://loinc.org","code":"49498-9"}]},"subject":{"reference":"Patient/2124d376-87b9-4478-a933-b14522a82948"},"effectiveDateTime":"2022-01-22T00:00:00+00:00","valueQuantity":{"value":8.4}}},{"fullUrl":"Observation/88b0f8e8-5222-4bf0-99d8-e36201f307cf","resource":{"resourceType":"Observation","id":"88b0f8e8-5222-4bf0-99d8-e36201f307cf","meta":{"profile":["http://hl7.org/fhir/us/core/StructureDefinition/us-core-bmi"]},"status":"final","category":[{"coding":[{"system":"http://terminology.hl7.org/CodeSystem/observation-category","code":"vital-signs","display":"Vital Signs"}]}],"code":{"coding":[{"system":"http://loinc.org","code":"39156-5"}]},"subject":{"reference":"Patient/2124d376-87b9-4478-a933-b14522a82948"},"effectiveDateTime":"2022-11-07T00:00:00+00:00","valueQuantity":{"value":21.61,"unit":"kg/m2","system":"http://unitsofmeasure.org","code":"kg/m2"}}},{"fullUrl":"Observation/a0df5391-b37c-4738-a256-3780ee902bd3","resource":{"resourceType":"Observation","id":"a0df5391-b37c-4738-a256-3780ee902bd3","meta":{"profile":["http://hl7.org/fhir/us/core/StructureDefinition/us-core-bmi"]},"status":"final","category":[{"coding":[{"system":"http://terminology.hl7.org/CodeSystem/observation-category","code":"vital-signs","display":"Vital Signs"}]}],"code":{"coding":[{"system":"http://loinc.org","code":"39156-5"}]},"subject":{"reference":"Patient/2124d376-87b9-4478-a933-b14522a82948"},"effectiveDateTime":"2022-04-13T00:00:00+00:00","valueQuantity":{"value":23.04,"unit":"kg/m2","system":"http://unitsofmeasure.org","code":"kg/m2"}}},{"fullUrl":"Observation/7b3d8d83-07f7-4210-b169-98ef79045d0f","resource":{"resourceType":"Observation","id":"7b3d8d83-07f7-4210-b169-98ef79045d0f","meta":{"profile":["http://hl7.org/fhir/us/core/StructureDefinition/us-core-head-circumference"]},"status":"final","category":[{"coding":[{"system":"http://terminology.hl7.org/CodeSystem/observation-category","code":"vital-signs","display":"Vital Signs"}]}],"code":{"coding":[{"system":"http://loinc.org","code":"9843-4"}]},"subject":{"reference":"Patient/2124d376-87b9-4478-a933-b14522a82948"},"effectiveDateTime":"2022-01-15T00:00:00+00:00","valueQuantity":{"value":8.8,"unit":"Inch","system":"http://unitsofmeasure.org","code":"[in_i]"}}},{"fullUrl":"Observation/f1e72a75-3a1a-4261-af53-5b1086267290","resource":{"resourceType":"Observation","id":"f1e72a75-3a1a-4261-af53-5b1086267290","meta":{"profile":["http://hl7.org/fhir/us/core/StructureDefinition/us-core-head-circumference"]},"status":"final","category":[{"coding":[{"system":"http://terminology.hl7.org/CodeSystem/observation-category","code":"vital-signs","display":"Vital Signs"}]}],"code":{"coding":[{"system":"http://loinc.org","code":"9843-4"}]},"subject":{"reference":"Patient/2124d376-87b9-4478-a933-b14522a82948"},"effectiveDateTime":"2022-08-10T00:00:00+00:00","valueQuantity":{"value":1.9,"unit":"Inch","system":"http://unitsofmeasure.org","code":"[in_i]"}}},{"fullUrl":"Observation/a890d23d-138c-4513-97da-6fc25c7f95fa","resource":{"resourceType":"Observation","id":"a890d23d-138c-4513-97da-6fc25c7f95fa","meta":{"profile":["http://hl7.org/fhir/us/core/StructureDefinition/us-core-body-height"]},"status":"final","category":[{"coding":[{"system":"http://terminology.hl7.org/CodeSystem/observation-category","code":"vital-signs","display":"Vital Signs"}]}],"code":{"coding":[{"system":"http://loinc.org","code":"8302-2"}]},"subject":{"reference":"Patient/2124d376-87b9-4478-a933-b14522a82948"},"effectiveDateTime":"2022-08-25T00:00:00+00:00","valueQuantity":{"value":64,"unit":"Inch","system":"http://unitsofmeasure.org","code":"[in_i]"}}},{"fullUrl":"Observation/809a934f-5375-4896-b858-330ac581412c","resource":{"resourceType":"Observation","id":"809a934f-5375-4896-b858-330ac581412c","meta":{"profile":["http://hl7.org/fhir/us/core/StructureDefinition/us-core-body-height"]},"status":"final","category":[{"coding":[{"system":"http://terminology.hl7.org/CodeSystem/observation-category","code":"vital-signs","display":"Vital Signs"}]}],"code":{"coding":[{"system":"http://loinc.org","code":"8302-2"}]},"subject":{"reference":"Patient/2124d376-87b9-4478-a933-b14522a82948"},"effectiveDateTime":"2022-01-19T00:00:00+00:00","valueQuantity":{"value":60.4,"unit":"Inch","system":"http://unitsofmeasure.org","code":"[in_i]"}}},{"fullUrl":"Observation/6f676fbe-4f54-4769-95fb-033e9d8de30b","resource":{"resourceType":"Observation","id":"6f676fbe-4f54-4769-95fb-033e9d8de30b","meta":{"profile":["http://hl7.org/fhir/us/core/StructureDefinition/us-core-body-weight"]},"status":"final","category":[{"coding":[{"system":"http://terminology.hl7.org/CodeSystem/observation-category","code":"vital-signs","display":"Vital Signs"}]}],"code":{"coding":[{"system":"http://loinc.org","code":"29463-7"}]},"subject":{"reference":"Patient/2124d376-87b9-4478-a933-b14522a82948"},"effectiveDateTime":"2022-04-21T00:00:00+00:00","valueQuantity":{"value":130.99,"unit":"kilogram","system":"http://unitsofmeasure.org","code":"kg"}}},{"fullUrl":"Observation/712e248c-7ca7-468a-ab82-941437d031ae","resource":{"resourceType":"Observation","id":"712e248c-7ca7-468a-ab82-941437d031ae","meta":{"profile":["http://hl7.org/fhir/us/core/StructureDefinition/us-core-body-temperature"]},"status":"final","category":[{"coding":[{"system":"http://terminology.hl7.org/CodeSystem/observation-category","code":"vital-signs","display":"Vital Signs"}]}],"code":{"coding":[{"system":"http://loinc.org","code":"8310-5"}]},"subject":{"reference":"Patient/2124d376-87b9-4478-a933-b14522a82948"},"effectiveDateTime":"2022-02-14T00:00:00+00:00","valueQuantity":{"value":66.09,"unit":"Degrees Fahrenheit","system":"http://unitsofmeasure.org","code":"[degF]"}}},{"fullUrl":"Observation/fab54da8-3884-4e62-ba33-fa5b60f46f35","resource":{"resourceType":"Observation","id":"fab54da8-3884-4e62-ba33-fa5b60f46f35","meta":{"profile":["http://hl7.org/fhir/us/core/StructureDefinition/us-core-body-temperature"]},"status":"final","category":[{"coding":[{"system":"http://terminology.hl7.org/CodeSystem/observation-category","code":"vital-signs","display":"Vital Signs"}]}],"code":{"coding":[{"system":"http://loinc.org","code":"8310-5"}]},"subject":{"reference":"Patient/2124d376-87b9-4478-a933-b14522a82948"},"effectiveDateTime":"2022-04-23T00:00:00+00:00","valueQuantity":{"value":95.93,"unit":"Degrees Fahrenheit","system":"http://unitsofmeasure.org","code":"[degF]"}}},{"fullUrl":"Observation/2c10511f-f9c5-41c7-b567-3e230245bcb5","resource":{"resourceType":"Observation","id":"2c10511f-f9c5-41c7-b567-3e230245bcb5","meta":{"profile":["http://hl7.org/fhir/us/core/StructureDefinition/us-core-heart-rate"]},"status":"final","category":[{"coding":[{"system":"http://terminology.hl7.org/CodeSystem/observation-category","code":"vital-signs","display":"Vital Signs"}]}],"code":{"coding":[{"system":"http://loinc.org","code":"8867-4"}]},"subject":{"reference":"Patient/2124d376-87b9-4478-a933-b14522a82948"},"effectiveDateTime":"2022-11-14T00:00:00+00:00","valueQuantity":{"value":98.4,"unit":"Per Minute","system":"http://unitsofmeasure.org","code":"/min"}}},{"fullUrl":"Observation/56bd04ac-e640-4f0e-86ba-bbdc0c8819a3","resource":{"resourceType":"Observation","id":"56bd04ac-e640-4f0e-86ba-bbdc0c8819a3","meta":{"profile":["http://hl7.org/fhir/us/core/StructureDefinition/us-core-heart-rate"]},"status":"final","category":[{"coding":[{"system":"http://terminology.hl7.org/CodeSystem/observation-category","code":"vital-signs","display":"Vital Signs"}]}],"code":{"coding":[{"system":"http://loinc.org","code":"8867-4"}]},"subject":{"reference":"Patient/2124d376-87b9-4478-a933-b14522a82948"},"effectiveDateTime":"2022-12-01T00:00:00+00:00","valueQuantity":{"value":100.9,"unit":"Per Minute","system":"http://unitsofmeasure.org","code":"/min"}}},{"fullUrl":"Patient/4b9ad857-249c-45e3-be06-a88fd97361f4","resource":{"resourceType":"Patient","id":"4b9ad857-249c-45e3-be06-a88fd97361f4","meta":{"profile":["http://hl7.org/fhir/us/core/StructureDefinition/us-core-patient"]},"extension":[{"extension":[{"url":"ombCategory","valueCoding":{"system":"urn:oid:2.16.840.1.113883.6.238","code":"2106-3","display":"White"}},{"url":"text","valueString":"White"}],"url":"http://hl7.org/fhir/us/core/StructureDefinition/us-core-race"},{"extension":[{"url":"ombCategory","valueCoding":{"system":"urn:oid:2.16.840.1.113883.6.238","code":"2186-5","display":"Not Hispanic or Latino"}},{"url":"text","valueString":"Not Hispanic or Latino"}],"url":"http://hl7.org/fhir/us/core/StructureDefinition/us-core-ethnicity"}],"identifier":[{"type":{"coding":[{"system":"http://terminology.hl7.org/CodeSystem/v2-0203","code":"MR"}]},"system":"urn:fhirgen:mrn","value":"456-65-8622"},{"system":"http://hl7.org/fhir/sid/us-ssn","value":"551-72-7644"}],"name":[{"use":"official","family":"Young","given":["Kristy"]},{"use":"maiden","family":"Williamson"}],"telecom":[{"system":"phone","value":"465.277.8440x04650","use":"work"},{"system":"email","value":"michael35@yahoo.com","use":"mobile"}],"gender":"female","birthDate":"1969-04-13","address":[{"use":"home","line":["709 Martinez Ridges Apt. 059"],"city":"West Kathleen","state":"RI","postalCode":"13912"},{"use":"old","line":["1423 Kevin Loop"],"city":"South Wendyberg","state":"NY","postalCode":"62377"}],"maritalStatus":{"coding":[{"system":"http://terminology.hl7.org/CodeSystem/v3-MaritalStatus","code":"M","display":"Married"}]}}},{"fullUrl":"Observation/a4b4fef0-6602-422b-83d6-e936dd2ebeb1","resource":{"resourceType":"Observation","id":"a4b4fef0-6602-422b-83d6-e936dd2ebeb1","meta":{"profile":["http://hl7.org/fhir/us/core/StructureDefinition/us-core-observation-lab"]},"status":"final","category":[{"coding":[{"system":"http://terminology.hl7.org/CodeSystem/observation-category","code":"laboratory","display":"Laboratory"}]}],"code":{"coding":[{"system":"http://loinc.org","code":"26009-1"}]},"subject":{"reference":"Patient/4b9ad857-249c-45e3-be06-a88fd97361f4"},"effectiveDateTime":"2022-09-29T00:00:00+00:00","valueRatio":{"numerator":{"value":1},"denominator":{"value":32}}}},{"fullUrl":"Observation/e5b33e63-ed47-47fa-bbb1-f7f27649da8f","resource":{"resourceType":"Observation","id":"e5b33e63-ed47-47fa-bbb1-f7f27649da8f","meta":{"profile":["http://hl7.org/fhir/us/core/StructureDefinition/us-core-observation-lab"]},"status":"final","category":[{"coding":[{"system":"http://terminology.hl7.org/CodeSystem/observation-category","code":"laboratory","display":"Laboratory"}]}],"code":{"coding":[{"system":"http://loinc.org","code":"50690-7"}]},"subject":{"reference":"Patient/4b9ad857-249c-45e3-be06-a88fd97361f4"},"effectiveDateTime":"2022-06-04T00:00:00+00:00","valueRatio":{"numerator":{"value":1},"denominator":{"value":64}}}},{"fullUrl":"Condition/706b4eab-448e-4a38-966a-ec94c95be73b","resource":{"resourceType":"Condition","id":"706b4eab-448e-4a38-966a-ec94c95be73b","meta":{"profile":["http://hl7.org/fhir/us/core/StructureDefinition/us-core-condition"]},"clinicalStatus":{"coding":[{"system":"http://terminology.hl7.org/CodeSystem/condition-clinical","code":"active","display":"Active"}]},"category":[{"coding":[{"system":"http://terminology.hl7.org/CodeSystem/condition-category","code":"problem-list-item"}]}],"code":{"coding":[{"system":"http://snomed.info/sct","code":"91554004"}]},"subject":{"reference":"Patient/4b9ad857-249c-45e3-be06-a88fd97361f4"},"onsetDateTime":"2022-07-29T00:00:00+00:00"}},{"fullUrl":"Condition/09213d8d-bde9-4e90-b188-bb3b93da61a7","resource":{"resourceType":"Condition","id":"09213d8d-bde9-4e90-b188-bb3b93da61a7","meta":{"profile":["http://hl7.org/fhir/us/core/StructureDefinition/us-core-condition"]},"clinicalStatus":{"coding":[{"system":"http://terminology.hl7.org/CodeSystem/condition-clinical","code":"active","display":"Active"}]},"category":[{"coding":[{"system":"http://terminology.hl7.org/CodeSystem/condition-category","code":"problem-list-item"}]}],"code":{"coding":[{"system":"http://snomed.info/sct","code":"709977002"}]},"subject":{"reference":"Patient/4b9ad857-249c-45e3-be06-a88fd97361f4"},"onsetDateTime":"2022-12-04T00:00:00+00:00"}},{"fullUrl":"Condition/a23223c9-6c5d-4ddb-9397-e941fafa1081","resource":{"resourceType":"Condition","id":"a23223c9-6c5d-4ddb-9397-e941fafa1081","meta":{"profile":["http://hl7.org/fhir/us/core/StructureDefinition/us-core-condition"]},"clinicalStatus":{"coding":[{"system":"http://terminology.hl7.org/CodeSystem/condition-clinical","code":"active","display":"Active"}]},"category":[{"coding":[{"system":"http://terminology.hl7.org/CodeSystem/condition-category","code":"problem-list-item"}]}],"code":{"coding":[{"system":"http://snomed.info/sct","code":"44882003"}]},"subject":{"reference":"Patient/4b9ad857-249c-45e3-be06-a88fd97361f4"},"onsetDateTime":"2022-01-30T00:00:00+00:00"}},{"fullUrl":"Condition/dd925d9d-9298-4471-bdfb-7ec234fb3f53","resource":{"resourceType":"Condition","id":"dd925d9d-9298-4471-bdfb-7ec234fb3f53","meta":{"profile":["http://hl7.org/fhir/us/core/StructureDefinition/us-core-condition"]},"clinicalStatus":{"coding":[{"system":"http://terminology.hl7.org/CodeSystem/condition-clinical","code":"active","display":"Active"}]},"category":[{"coding":[{"system":"http://terminology.hl7.org/CodeSystem/condition-category","code":"problem-list-item"}]}],"code":{"coding":[{"system":"http://snomed.info/sct","code":"44882003"}]},"subject":{"reference":"Patient/4b9ad857-249c-45e3-be06-a88fd97361f4"},"onsetDateTime":"2022-09-24T00:00:00+00:00"}},{"fullUrl":"Condition/16e580d3-dedb-465d-8972-e4e4c6d172cf","resource":{"resourceType":"Condition","id":"16e580d3-dedb-465d-8972-e4e4c6d172cf","meta":{"profile":["http://hl7.org/fhir/us/core/StructureDefinition/us-core-condition"]},"clinicalStatus":{"coding":[{"system":"http://terminology.hl7.org/CodeSystem/condition-clinical","code":"active","display":"Active"}]},"category":[{"coding":[{"system":"http://terminology.hl7.org/CodeSystem/condition-category","code":"problem-list-item"}]}],"code":{"coding":[{"system":"http://snomed.info/sct","code":"418290006"}]},"subject":{"reference":"Patient/4b9ad857-249c-45e3-be06-a88fd97361f4"},"onsetDateTime":"2022-10-05T00:00:00+00:00"}},{"fullUrl":"Condition/0230bff4-0b0a-4c35-9307-cad840b5f096","resource":{"resourceType":"Condition","id":"0230bff4-0b0a-4c35-9307-cad840b5f096","meta":{"profile":["http://hl7.org/fhir/us/core/StructureDefinition/us-core-condition"]},"clinicalStatus":{"coding":[{"system":"http://terminology.hl7.org/CodeSystem/condition-clinical","code":"active","display":"Active"}]},"category":[{"coding":[{"system":"http://terminology.hl7.org/CodeSystem/condition-category","code":"problem-list-item"}]}],"code":{"coding":[{"system":"http://snomed.info/sct","code":"91554004"}]},"subject":{"reference":"Patient/4b9ad857-249c-45e3-be06-a88fd97361f4"},"onsetDateTime":"2022-01-07T00:00:00+00:00"}},{"fullUrl":"Observation/e3c3d908-79f7-44d4-b56d-628132831da4","resource":{"resourceType":"Observation","id":"e3c3d908-79f7-44d4-b56d-628132831da4","meta":{"profile":["http://hl7.org/fhir/us/core/StructureDefinition/us-core-observation-lab"]},"status":"final","category":[{"coding":[{"system":"http://terminology.hl7.org/CodeSystem/observation-category","code":"laboratory","display":"Laboratory"}]}],"code":{"coding":[{"system":"http://loinc.org","code":"49498-9"}]},"subject":{"reference":"Patient/4b9ad857-249c-45e3-be06-a88fd97361f4"},"effectiveDateTime":"2022-06-04T00:00:00+00:00","valueQuantity":{"value":5.7}}},{"fullUrl":"Observation/45b6facb-d0d6-4ec3-84c6-020ffbd5bb1b","resource":{"resourceType":"Observation","id":"45b6facb-d0d6-4ec3-84c6-020ffbd5bb1b","meta":{"profile":["http://hl7.org/fhir/us/core/StructureDefinition/us-core-observation-lab"]},"status":"final","category":[{"coding":[{"system":"http://terminology.hl7.org/CodeSystem/observation-category","code":"laboratory","display":"Laboratory"}]}],"code":{"coding":[{"system":"http://loinc.org","code":"49498-9"}]},"subject":{"reference":"Patient/4b9ad857-249c-45e3-be06-a88fd97361f4"},"effectiveDateTime":"2022-01-15T00:00:00+00:00","valueQuantity":{"value":4.4}}},{"fullUrl":"Observation/3f2a1cbc-057e-4d63-ac6d-96323d0d8603","resource":{"resourceType":"Observation","id":"3f2a1cbc-057e-4d63-ac6d-96323d0d8603","meta":{"profile":["http://hl7.org/fhir/us/core/StructureDefinition/us-core-observation-lab"]},"status":"final","category":[{"coding":[{"system":"http://terminology.hl7.org/CodeSystem/observation-category","code":"laboratory","display":"Laboratory"}]}],"code":{"coding":[{"system":"http://loinc.org","code":"26464-8"}]},"subject":{"reference":"Patient/4b9ad857-249c-45e3-be06-a88fd97361f4"},"effectiveDateTime":"2022-08-17T00:00:00+00:00","valueQuantity":{"value":8.3}}},{"fullUrl":"Observation/25ef1739-042a-4c05-a578-e15df3db352e","resource":{"resourceType":"Observation","id":"25ef1739-042a-4c05-a578-e15df3db352e","meta":{"profile":["http://hl7.org/fhir/us/core/StructureDefinition/us-core-bmi"]},"status":"final","category":[{"coding":[{"system":"http://terminology.hl7.org/CodeSystem/observation-category","code":"vital-signs","display":"Vital Signs"}]}],"code":{"coding":[{"system":"http://loinc.org","code":"39156-5"}]},"subject":{"reference":"Patient/4b9ad857-249c-45e3-be06-a88fd97361f4"},"effectiveDateTime":"2022-12-22T00:00:00+00:00","valueQuantity":{"value":18.24,"unit":"kg/m2","system":"http://unitsofmeasure.org","code":"kg/m2"}}},{"fullUrl":"Observation/121eeb12-de8c-45b2-9bba-cbe24cf2dddb","resource":{"resourceType":"Observation","id":"121eeb12-de8c-45b2-9bba-cbe24cf2dddb","meta":{"profile":["http://hl7.org/fhir/us/core/StructureDefinition/us-core-bmi"]},"status":"final","category":[{"coding":[{"system":"http://terminology.hl7.org/CodeSystem/observation-category","code":"vital-signs","display":"Vital Signs"}]}],"code":{"coding":[{"system":"http://loinc.org","code":"39156-5"}]},"subject":{"reference":"Patient/4b9ad857-249c-45e3-be06-a88fd97361f4"},"effectiveDateTime":"2022-10-02T00:00:00+00:00","valueQuantity":{"value":12.12,"unit":"kg/m2","system":"http://unitsofmeasure.org","code":"kg/m2"}}},{"fullUrl":"Observation/3f7fbe39-ebef-4a20-96ea-6f854c8fad68","resource":{"resourceType":"Observation","id":"3f7fbe39-ebef-4a20-96ea-6f854c8fad68","meta":{"profile":["http://hl7.org/fhir/us/core/StructureDefinition/us-core-head-circumference"]},"status":"final","category":[{"coding":[{"system":"http://terminology.hl7.org/CodeSystem/observation-category","code":"vital-signs","display":"Vital Signs"}]}],"code":{"coding":[{"system":"http://loinc.org","code":"9843-4"}]},"subject":{"reference":"Patient/4b9ad857-249c-45e3-be06-a88fd97361f4"},"effectiveDateTime":"2022-09-26T00:00:00+00:00","valueQuantity":{"value":7,"unit":"Inch","system":"http://unitsofmeasure.org","code":"[in_i]"}}},{"fullUrl":"Observation/b74f524d-043d-4d13-9cec-211a2f00d81e","resource":{"resourceType":"Observation","id":"b74f524d-043d-4d13-9cec-211a2f00d81e","meta":{"profile":["http://hl7.org/fhir/us/core/StructureDefinition/us-core-head-circumference"]},"status":"final","category":[{"coding":[{"system":"http://terminology.hl7.org/CodeSystem/observation-category","code":"vital-signs","display":"Vital Signs"}]}],"code":{"coding":[{"system":"http://loinc.org","code":"9843-4"}]},"subject":{"reference":"Patient/4b9ad857-249c-45e3-be06-a88fd97361f4"},"effectiveDateTime":"2022-10-03T00:00:00+00:00","valueQuantity":{"value":8.6,"unit":"Inch","system":"http://unitsofmeasure.org","code":"[in_i]"}}},{"fullUrl":"Observation/f41583b1-2596-4db2-b8ed-a5916191fe26","resource":{"resourceType":"Observation","id":"f41583b1-2596-4db2-b8ed-a5916191fe26","meta":{"profile":["http://hl7.org/fhir/us/core/StructureDefinition/us-core-body-height"]},"status":"final","category":[{"coding":[{"system":"http://terminology.hl7.org/CodeSystem/observation-category","code":"vital-signs","display":"Vital Signs"}]}],"code":{"coding":[{"system":"http://loinc.org","code":"8302-2"}]},"subject":{"reference":"Patient/4b9ad857-249c-45e3-be06-a88fd97361f4"},"effectiveDateTime":"2022-08-15T00:00:00+00:00","valueQuantity":{"value":60.8,"unit":"Inch","system":"http://unitsofmeasure.org","code":"[in_i]"}}},{"fullUrl":"Observation/cf4c4313-6fe6-41ca-9690-6eaaef5ceebb","resource":{"resourceType":"Observation","id":"cf4c4313-6fe6-41ca-9690-6eaaef5ceebb","meta":{"profile":["http://hl7.org/fhir/us/core/StructureDefinition/us-core-body-height"]},"status":"final","category":[{"coding":[{"system":"http://terminology.hl7.org/CodeSystem/observation-category","code":"vital-signs","display":"Vital Signs"}]}],"code":{"coding":[{"system":"http://loinc.org","code":"8302-2"}]},"subject":{"reference":"Patient/4b9ad857-249c-45e3-be06-a88fd97361f4"},"effectiveDateTime":"2022-03-24T00:00:00+00:00","valueQuantity":{"value":62.4,"unit":"Inch","system":"http://unitsofmeasure.org","code":"[in_i]"}}},{"fullUrl":"Observation/c5edd34a-86f3-4ba8-b0c5-63f36001dfad","resource":{"resourceType":"Observation","id":"c5edd34a-86f3-4ba8-b0c5-63f36001dfad","meta":{"profile":["http://hl7.org/fhir/us/core/StructureDefinition/us-core-body-weight"]},"status":"final","category":[{"coding":[{"system":"http://terminology.hl7.org/CodeSystem/observation-category","code":"vital-signs","display":"Vital Signs"}]}],"code":{"coding":[{"system":"http://loinc.org","code":"29463-7"}]},"subject":{"reference":"Patient/4b9ad857-249c-45e3-be06-a88fd97361f4"},"effectiveDateTime":"2022-10-02T00:00:00+00:00","valueQuantity":{"value":34.5,"unit":"kilogram","system":"http://unitsofmeasure.org","code":"kg"}}},{"fullUrl":"Observation/17a98b18-c429-4c88-99d5-96c4eefe1230","resource":{"resourceType":"Observation","id":"17a98b18-c429-4c88-99d5-96c4eefe1230","meta":{"profile":["http://hl7.org/fhir/us/core/StructureDefinition/us-core-body-weight"]},"status":"final","category":[{"coding":[{"system":"http://terminology.hl7.org/CodeSystem/observation-category","code":"vital-signs","display":"Vital Signs"}]}],"code":{"coding":[{"system":"http://loinc.org","code":"29463-7"}]},"subject":{"reference":"Patient/4b9ad857-249c-45e3-be06-a88fd97361f4"},"effectiveDateTime":"2022-02-24T00:00:00+00:00","valueQuantity":{"value":26.01,"unit":"kilogram","system":"http://unitsofmeasure.org","code":"kg"}}},{"fullUrl":"Observation/da6eff17-4d3a-4474-a1d0-2d44dca628a9","resource":{"resourceType":"Observation","id":"da6eff17-4d3a-4474-a1d0-2d44dca628a9","meta":{"profile":["http://hl7.org/fhir/us/core/StructureDefinition/us-core-body-temperature"]},"status":"final","category":[{"coding":[{"system":"http://terminology.hl7.org/CodeSystem/observation-category","code":"vital-signs","display":"Vital Signs"}]}],"code":{"coding":[{"system":"http://loinc.org","code":"8310-5"}]},"subject":{"reference":"Patient/4b9ad857-249c-45e3-be06-a88fd97361f4"},"effectiveDateTime":"2022-10-28T00:00:00+00:00","valueQuantity":{"value":22.85,"unit":"Degrees Fahrenheit","system":"http://unitsofmeasure.org","code":"[degF]"}}},{"fullUrl":"Observation/117b68b7-003a-4fad-86ba-dead109f26b3","resource":{"resourceType":"Observation","id":"117b68b7-003a-4fad-86ba-dead109f26b3","meta":{"profile":["http://hl7.org/fhir/us/core/StructureDefinition/us-core-body-temperature"]},"status":"final","category":[{"coding":[{"system":"http://terminology.hl7.org/CodeSystem/observation-category","code":"vital-signs","display":"Vital Signs"}]}],"code":{"coding":[{"system":"http://loinc.org","code":"8310-5"}]},"subject":{"reference":"Patient/4b9ad857-249c-45e3-be06-a88fd97361f4"},"effectiveDateTime":"2022-02-02T00:00:00+00:00","valueQuantity":{"value":62.91,"unit":"Degrees Fahrenheit","system":"http://unitsofmeasure.org","code":"[degF]"}}},{"fullUrl":"Observation/99027f4e-632f-420c-93d5-3096e0e012a3","resource":{"resourceType":"Observation","id":"99027f4e-632f-420c-93d5-3096e0e012a3","meta":{"profile":["http://hl7.org/fhir/us/core/StructureDefinition/us-core-heart-rate"]},"status":"final","category":[{"coding":[{"system":"http://terminology.hl7.org/CodeSystem/observation-category","code":"vital-signs","display":"Vital Signs"}]}],"code":{"coding":[{"system":"http://loinc.org","code":"8867-4"}]},"subject":{"reference":"Patient/4b9ad857-249c-45e3-be06-a88fd97361f4"},"effectiveDateTime":"2022-03-04T00:00:00+00:00","valueQuantity":{"value":99.4,"unit":"Per Minute","system":"http://unitsofmeasure.org","code":"/min"}}},{"fullUrl":"Observation/5b3ff458-953c-4a18-9128-cf5177c91003","resource":{"resourceType":"Observation","id":"5b3ff458-953c-4a18-9128-cf5177c91003","meta":{"profile":["http://hl7.org/fhir/us/core/StructureDefinition/us-core-heart-rate"]},"status":"final","category":[{"coding":[{"system":"http://terminology.hl7.org/CodeSystem/observation-category","code":"vital-signs","display":"Vital Signs"}]}],"code":{"coding":[{"system":"http://loinc.org","code":"8867-4"}]},"subject":{"reference":"Patient/4b9ad857-249c-45e3-be06-a88fd97361f4"},"effectiveDateTime":"2022-05-02T00:00:00+00:00","valueQuantity":{"value":97.5,"unit":"Per Minute","system":"http://unitsofmeasure.org","code":"/min"}}},{"fullUrl":"Patient/bf934e74-2cb7-4179-9c6b-788210fdeba9","resource":{"resourceType":"Patient","id":"bf934e74-2cb7-4179-9c6b-788210fdeba9","meta":{"profile":["http://hl7.org/fhir/us/core/StructureDefinition/us-core-patient"]},"extension":[{"extension":[{"url":"ombCategory","valueCoding":{"system":"http://terminology.hl7.org/CodeSystem/v3-NullFlavor","code":"UNK","display":"unknown"}},{"url":"text","valueString":"unknown"}],"url":"http://hl7.org/fhir/us/core/StructureDefinition/us-core-race"},{"extension":[{"url":"ombCategory","valueCoding":{"system":"urn:oid:2.16.840.1.113883.6.238","code":"2135-2","display":"Hispanic or Latino"}},{"url":"text","valueString":"Hispanic or Latino"}],"url":"http://hl7.org/fhir/us/core/StructureDefinition/us-core-ethnicity"}],"identifier":[{"type":{"coding":[{"system":"http://terminology.hl7.org/CodeSystem/v2-0203","code":"MR"}]},"system":"urn:fhirgen:mrn","value":"424-10-8528"},{"system":"http://hl7.org/fhir/sid/us-ssn","value":"048-85-9278"}],"name":[{"use":"official","family":"Martin","given":["Alyssa"]},{"use":"maiden","family":"Peck"}],"telecom":[{"system":"phone","value":"866.891.5031x26356","use":"home"},{"system":"email","value":"manningmarvin@gmail.com","use":"mobile"}],"gender":"female","birthDate":"1958-02-12","address":[{"use":"home","line":["7665 James Branch"],"city":"Michaelfurt","state":"ME","postalCode":"68776"},{"use":"old","line":["351 Jonathan Run"],"city":"Kellerbury","state":"NE","postalCode":"90804"}],"maritalStatus":{"coding":[{"system":"http://terminology.hl7.org/CodeSystem/v3-MaritalStatus","code":"U","display":"unmarried"}]}}},{"fullUrl":"Observation/96a0c863-7bcd-4203-8885-4602c6119a06","resource":{"resourceType":"Observation","id":"96a0c863-7bcd-4203-8885-4602c6119a06","meta":{"profile":["http://hl7.org/fhir/us/core/StructureDefinition/us-core-observation-lab"]},"status":"final","category":[{"coding":[{"system":"http://terminology.hl7.org/CodeSystem/observation-category","code":"laboratory","display":"Laboratory"}]}],"code":{"coding":[{"system":"http://loinc.org","code":"47235-7"}]},"subject":{"reference":"Patient/bf934e74-2cb7-4179-9c6b-788210fdeba9"},"effectiveDateTime":"2022-09-24T00:00:00+00:00","valueRatio":{"numerator":{"value":1},"denominator":{"value":32}}}},{"fullUrl":"Observation/228e9faa-d5dd-4418-b412-52144d404d18","resource":{"resourceType":"Observation","id":"228e9faa-d5dd-4418-b412-52144d404d18","meta":{"profile":["http://hl7.org/fhir/us/core/StructureDefinition/us-core-observation-lab"]},"status":"final","category":[{"coding":[{"system":"http://terminology.hl7.org/CodeSystem/observation-category","code":"laboratory","display":"Laboratory"}]}],"code":{"coding":[{"system":"http://loinc.org","code":"50690-7"}]},"subject":{"reference":"Patient/bf934e74-2cb7-4179-9c6b-788210fdeba9"},"effectiveDateTime":"2022-01-18T00:00:00+00:00","valueRatio":{"numerator":{"value":1},"denominator":{"value":64}}}},{"fullUrl":"Observation/0b2456e2-afe1-463e-80be-512c7e6a8e4d","resource":{"resourceType":"Observation","id":"0b2456e2-afe1-463e-80be-512c7e6a8e4d","meta":{"profile":["http://hl7.org/fhir/us/core/StructureDefinition/us-core-observation-lab"]},"status":"final","category":[{"coding":[{"system":"http://terminology.hl7.org/CodeSystem/observation-category","code":"laboratory","display":"Laboratory"}]}],"code":{"coding":[{"system":"http://loinc.org","code":"11084-1"}]},"subject":{"reference":"Patient/bf934e74-2cb7-4179-9c6b-788210fdeba9"},"effectiveDateTime":"2022-08-29T00:00:00+00:00","valueRatio":{"numerator":{"value":1},"denominator":{"value":32}}}},{"fullUrl":"Condition/23e0947a-397b-48eb-991c-afe251bb18d7","resource":{"resourceType":"Condition","id":"23e0947a-397b-48eb-991c-afe251bb18d7","meta":{"profile":["http://hl7.org/fhir/us/core/StructureDefinition/us-core-condition"]},"clinicalStatus":{"coding":[{"system":"http://terminology.hl7.org/CodeSystem/condition-clinical","code":"active","display":"Active"}]},"category":[{"coding":[{"system":"http://terminology.hl7.org/CodeSystem/condition-category","code":"problem-list-item"}]}],"code":{"coding":[{"system":"http://snomed.info/sct","code":"418290006"}]},"subject":{"reference":"Patient/bf934e74-2cb7-4179-9c6b-788210fdeba9"},"onsetDateTime":"2022-03-07T00:00:00+00:00"}},{"fullUrl":"Condition/4012e9ea-af74-49e9-8842-b05761e25611","resource":{"resourceType":"Condition","id":"4012e9ea-af74-49e9-8842-b05761e25611","meta":{"profile":["http://hl7.org/fhir/us/core/StructureDefinition/us-core-condition"]},"clinicalStatus":{"coding":[{"system":"http://terminology.hl7.org/CodeSystem/condition-clinical","code":"active","display":"Active"}]},"category":[{"coding":[{"system":"http://terminology.hl7.org/CodeSystem/condition-category","code":"problem-list-item"}]}],"code":{"coding":[{"system":"http://snomed.info/sct","code":"44882003"}]},"subject":{"reference":"Patient/bf934e74-2cb7-4179-9c6b-788210fdeba9"},"onsetDateTime":"2022-07-21T00:00:00+00:00"}},{"fullUrl":"Condition/f5151478-fd37-47d3-a51e-1c1f72f6579f","resource":{"resourceType":"Condition","id":"f5151478-fd37-47d3-a51e-1c1f72f6579f","meta":{"profile":["http://hl7.org/fhir/us/core/StructureDefinition/us-core-condition"]},"clinicalStatus":{"coding":[{"system":"http://terminology.hl7.org/CodeSystem/condition-clinical","code":"active","display":"Active"}]},"category":[{"coding":[{"system":"http://terminology.hl7.org/CodeSystem/condition-category","code":"problem-list-item"}]}],"code":{"coding":[{"system":"http://snomed.info/sct","code":"736686006"}]},"subject":{"reference":"Patient/bf934e74-2cb7-4179-9c6b-788210fdeba9"},"onsetDateTime":"2022-07-25T00:00:00+00:00"}},{"fullUrl":"Condition/a0e67158-c73b-4b09-bc1c-9b07c2170e86","resource":{"resourceType":"Condition","id":"a0e67158-c73b-4b09-bc1c-9b07c2170e86","meta":{"profile":["http://hl7.org/fhir/us/core/StructureDefinition/us-core-condition"]},"clinicalStatus":{"coding":[{"system":"http://terminology.hl7.org/CodeSystem/condition-clinical","code":"active","display":"Active"}]},"category":[{"coding":[{"system":"http://terminology.hl7.org/CodeSystem/condition-category","code":"problem-list-item"}]}],"code":{"coding":[{"system":"http://snomed.info/sct","code":"91554004"}]},"subject":{"reference":"Patient/bf934e74-2cb7-4179-9c6b-788210fdeba9"},"onsetDateTime":"2022-05-29T00:00:00+00:00"}},{"fullUrl":"Condition/2283e6a8-a941-40d1-a69f-3e9701885d7b","resource":{"resourceType":"Condition","id":"2283e6a8-a941-40d1-a69f-3e9701885d7b","meta":{"profile":["http://hl7.org/fhir/us/core/StructureDefinition/us-core-condition"]},"clinicalStatus":{"coding":[{"system":"http://terminology.hl7.org/CodeSystem/condition-clinical","code":"active","display":"Active"}]},"category":[{"coding":[{"system":"http://terminology.hl7.org/CodeSystem/condition-category","code":"problem-list-item"}]}],"code":{"coding":[{"system":"http://snomed.info/sct","code":"91554004"}]},"subject":{"reference":"Patient/bf934e74-2cb7-4179-9c6b-788210fdeba9"},"onsetDateTime":"2022-06-21T00:00:00+00:00"}},{"fullUrl":"Observation/7aff9b9f-09ac-4bec-9ec4-b5cc1cc394cd","resource":{"resourceType":"Observation","id":"7aff9b9f-09ac-4bec-9ec4-b5cc1cc394cd","meta":{"profile":["http://hl7.org/fhir/us/core/StructureDefinition/us-core-observation-lab"]},"status":"final","category":[{"coding":[{"system":"http://terminology.hl7.org/CodeSystem/observation-category","code":"laboratory","display":"Laboratory"}]}],"code":{"coding":[{"system":"http://loinc.org","code":"26464-8"}]},"subject":{"reference":"Patient/bf934e74-2cb7-4179-9c6b-788210fdeba9"},"effectiveDateTime":"2022-09-27T00:00:00+00:00","valueQuantity":{"value":8.3}}},{"fullUrl":"Observation/2cdb4413-a9ed-43e1-b3f1-f1e98b4035d3","resource":{"resourceType":"Observation","id":"2cdb4413-a9ed-43e1-b3f1-f1e98b4035d3","meta":{"profile":["http://hl7.org/fhir/us/core/StructureDefinition/us-core-observation-lab"]},"status":"final","category":[{"coding":[{"system":"http://terminology.hl7.org/CodeSystem/observation-category","code":"laboratory","display":"Laboratory"}]}],"code":{"coding":[{"system":"http://loinc.org","code":"6690-2"}]},"subject":{"reference":"Patient/bf934e74-2cb7-4179-9c6b-788210fdeba9"},"effectiveDateTime":"2022-10-31T00:00:00+00:00","valueQuantity":{"value":7.4}}},{"fullUrl":"Observation/e90d52e6-af32-4b95-ab29-b5eeefd2318b","resource":{"resourceType":"Observation","id":"e90d52e6-af32-4b95-ab29-b5eeefd2318b","meta":{"profile":["http://hl7.org/fhir/us/core/StructureDefinition/us-core-bmi"]},"status":"final","category":[{"coding":[{"system":"http://terminology.hl7.org/CodeSystem/observation-category","code":"vital-signs","display":"Vital Signs"}]}],"code":{"coding":[{"system":"http://loinc.org","code":"39156-5"}]},"subject":{"reference":"Patient/bf934e74-2cb7-4179-9c6b-788210fdeba9"},"effectiveDateTime":"2022-07-21T00:00:00+00:00","valueQuantity":{"value":13.83,"unit":"kg/m2","system":"http://unitsofmeasure.org","code":"kg/m2"}}},{"fullUrl":"Observation/6f512a69-4eb0-4cc7-b9cb-bc517a6ce0b6","resource":{"resourceType":"Observation","id":"6f512a69-4eb0-4cc7-b9cb-bc517a6ce0b6","meta":{"profile":["http://hl7.org/fhir/us/core/StructureDefinition/us-core-bmi"]},"status":"final","category":[{"coding":[{"system":"http://terminology.hl7.org/CodeSystem/observation-category","code":"vital-signs","display":"Vital Signs"}]}],"code":{"coding":[{"system":"http://loinc.org","code":"39156-5"}]},"subject":{"reference":"Patient/bf934e74-2cb7-4179-9c6b-788210fdeba9"},"effectiveDateTime":"2022-02-27T00:00:00+00:00","valueQuantity":{"value":12.7,"unit":"kg/m2","system":"http://unitsofmeasure.org","code":"kg/m2"}}},{"fullUrl":"Observation/21cbb972-08df-4e44-a2e3-96508d57b378","resource":{"resourceType":"Observation","id":"21cbb972-08df-4e44-a2e3-96508d57b378","meta":{"profile":["http://hl7.org/fhir/us/core/StructureDefinition/us-core-head-circumference"]},"status":"final","category":[{"coding":[{"system":"http://terminology.hl7.org/CodeSystem/observation-category","code":"vital-signs","display":"Vital Signs"}]}],"code":{"coding":[{"system":"http://loinc.org","code":"9843-4"}]},"subject":{"reference":"Patient/bf934e74-2cb7-4179-9c6b-788210fdeba9"},"effectiveDateTime":"2022-01-02T00:00:00+00:00","valueQuantity":{"value":2.6,"unit":"Inch","system":"http://unitsofmeasure.org","code":"[in_i]"}}},{"fullUrl":"Observation/97928464-b7eb-484d-b50b-1a76cb16a400","resource":{"resourceType":"Observation","id":"97928464-b7eb-484d-b50b-1a76cb16a400","meta":{"profile":["http://hl7.org/fhir/us/core/StructureDefinition/us-core-head-circumference"]},"status":"final","category":[{"coding":[{"system":"http://terminology.hl7.org/CodeSystem/observation-category","code":"vital-signs","display":"Vital Signs"}]}],"code":{"coding":[{"system":"http://loinc.org","code":"9843-4"}]},"subject":{"reference":"Patient/bf934e74-2cb7-4179-9c6b-788210fdeba9"},"effectiveDateTime":"2022-11-13T00:00:00+00:00","valueQuantity":{"value":7.9,"unit":"Inch","system":"http://unitsofmeasure.org","code":"[in_i]"}}},{"fullUrl":"Observation/b17dfd57-5bd5-41c3-bbb6-055151779fb1","resource":{"resourceType":"Observation","id":"b17dfd57-5bd5-41c3-bbb6-055151779fb1","meta":{"profile":["http://hl7.org/fhir/us/core/StructureDefinition/us-core-body-height"]},"status":"final","category":[{"coding":[{"system":"http://terminology.hl7.org/CodeSystem/observation-category","code":"vital-signs","display":"Vital Signs"}]}],"code":{"coding":[{"system":"http://loinc.org","code":"8302-2"}]},"subject":{"reference":"Patient/bf934e74-2cb7-4179-9c6b-788210fdeba9"},"effectiveDateTime":"2022-06-22T00:00:00+00:00","valueQuantity":{"value":65.5,"unit":"Inch","system":"http://unitsofmeasure.org","code":"[in_i]"}}},{"fullUrl":"Observation/c08b13b4-7855-4513-9115-d28819d5a2e1","resource":{"resourceType":"Observation","id":"c08b13b4-7855-4513-9115-d28819d5a2e1","meta":{"profile":["http://hl7.org/fhir/us/core/StructureDefinition/us-core-body-weight"]},"status":"final","category":[{"coding":[{"system":"http://terminology.hl7.org/CodeSystem/observation-category","code":"vital-signs","display":"Vital Signs"}]}],"code":{"coding":[{"system":"http://loinc.org","code":"29463-7"}]},"subject":{"reference":"Patient/bf934e74-2cb7-4179-9c6b-788210fdeba9"},"effectiveDateTime":"2022-03-28T00:00:00+00:00","valueQuantity":{"value":24.67,"unit":"kilogram","system":"http://unitsofmeasure.org","code":"kg"}}},{"fullUrl":"Observation/9bf3fa65-2c6b-4432-b660-6964c4f3256c","resource":{"resourceType":"Observation","id":"9bf3fa65-2c6b-4432-b660-6964c4f3256c","meta":{"profile":["http://hl7.org/fhir/us/core/StructureDefinition/us-core-body-weight"]},"status":"final","category":[{"coding":[{"system":"http://terminology.hl7.org/CodeSystem/observation-category","code":"vital-signs","display":"Vital Signs"}]}],"code":{"coding":[{"system":"http://loinc.org","code":"29463-7"}]},"subject":{"reference":"Patient/bf934e74-2cb7-4179-9c6b-788210fdeba9"},"effectiveDateTime":"2022-07-02T00:00:00+00:00","valueQuantity":{"value":66.05,"unit":"kilogram","system":"http://unitsofmeasure.org","code":"kg"}}},{"fullUrl":"Observation/75b01cb5-e675-4a94-8f66-78fe2691998e","resource":{"resourceType":"Observation","id":"75b01cb5-e675-4a94-8f66-78fe2691998e","meta":{"profile":["http://hl7.org/fhir/us/core/StructureDefinition/us-core-body-temperature"]},"status":"final","category":[{"coding":[{"system":"http://terminology.hl7.org/CodeSystem/observation-category","code":"vital-signs","display":"Vital Signs"}]}],"code":{"coding":[{"system":"http://loinc.org","code":"8310-5"}]},"subject":{"reference":"Patient/bf934e74-2cb7-4179-9c6b-788210fdeba9"},"effectiveDateTime":"2022-02-18T00:00:00+00:00","valueQuantity":{"value":115.83,"unit":"Degrees Fahrenheit","system":"http://unitsofmeasure.org","code":"[degF]"}}},{"fullUrl":"Observation/c901dbc6-5eb5-4774-9460-ac67a7d6580a","resource":{"resourceType":"Observation","id":"c901dbc6-5eb5-4774-9460-ac67a7d6580a","meta":{"profile":["http://hl7.org/fhir/us/core/StructureDefinition/us-core-heart-rate"]},"status":"final","category":[{"coding":[{"system":"http://terminology.hl7.org/CodeSystem/observation-category","code":"vital-signs","display":"Vital Signs"}]}],"code":{"coding":[{"system":"http://loinc.org","code":"8867-4"}]},"subject":{"reference":"Patient/bf934e74-2cb7-4179-9c6b-788210fdeba9"},"effectiveDateTime":"2022-08-19T00:00:00+00:00","valueQuantity":{"value":95.4,"unit":"Per Minute","system":"http://unitsofmeasure.org","code":"/min"}}},{"fullUrl":"Patient/04cfe7d2-87f4-4a81-99b6-df8902ea88e1","resource":{"resourceType":"Patient","id":"04cfe7d2-87f4-4a81-99b6-df8902ea88e1","meta":{"profile":["http://hl7.org/fhir/us/core/StructureDefinition/us-core-patient"]},"extension":[{"extension":[{"url":"ombCategory","valueCoding":{"system":"http://terminology.hl7.org/CodeSystem/v3-NullFlavor","code":"UNK","display":"unknown"}},{"url":"text","valueString":"unknown"}],"url":"http://hl7.org/fhir/us/core/StructureDefinition/us-core-race"},{"extension":[{"url":"ombCategory","valueCoding":{"system":"urn:oid:2.16.840.1.113883.6.238","code":"2135-2","display":"Hispanic or Latino"}},{"url":"text","valueString":"Hispanic or Latino"}],"url":"http://hl7.org/fhir/us/core/StructureDefinition/us-core-ethnicity"}],"identifier":[{"type":{"coding":[{"system":"http://terminology.hl7.org/CodeSystem/v2-0203","code":"MR"}]},"system":"urn:fhirgen:mrn","value":"157-83-1730"},{"system":"http://hl7.org/fhir/sid/us-ssn","value":"059-73-3056"}],"name":[{"use":"official","family":"Cabrera","given":["Michelle"]},{"use":"maiden","family":"Bishop"}],"telecom":[{"system":"phone","value":"(607)044-7530","use":"mobile"},{"system":"email","value":"fuenteskaren@hotmail.com","use":"work"}],"gender":"other","birthDate":"1964-02-20","address":[{"use":"home","line":["537 Joshua Causeway Apt. 759"],"city":"New Timothyton","state":"IN","postalCode":"77837"},{"use":"old","line":["239 Barry Streets Suite 940"],"city":"East Brian","state":"HI","postalCode":"88384"}],"maritalStatus":{"coding":[{"system":"http://terminology.hl7.org/CodeSystem/v3-MaritalStatus","code":"M","display":"Married"}]}}},{"fullUrl":"Observation/91b5aaee-619a-4998-8031-b0f89bc2513e","resource":{"resourceType":"Observation","id":"91b5aaee-619a-4998-8031-b0f89bc2513e","meta":{"profile":["http://hl7.org/fhir/us/core/StructureDefinition/us-core-observation-lab"]},"status":"final","category":[{"coding":[{"system":"http://terminology.hl7.org/CodeSystem/observation-category","code":"laboratory","display":"Laboratory"}]}],"code":{"coding":[{"system":"http://loinc.org","code":"26009-1"}]},"subject":{"reference":"Patient/04cfe7d2-87f4-4a81-99b6-df8902ea88e1"},"effectiveDateTime":"2022-04-11T00:00:00+00:00","valueRatio":{"numerator":{"value":1},"denominator":{"value":64}}}},{"fullUrl":"Observation/2e2fbd8c-1cc6-4b30-a6f0-10a4b7017eb3","resource":{"resourceType":"Observation","id":"2e2fbd8c-1cc6-4b30-a6f0-10a4b7017eb3","meta":{"profile":["http://hl7.org/fhir/us/core/StructureDefinition/us-core-observation-lab"]},"status":"final","category":[{"coding":[{"system":"http://terminology.hl7.org/CodeSystem/observation-category","code":"laboratory","display":"Laboratory"}]}],"code":{"coding":[{"system":"http://loinc.org","code":"5394-2"}]},"subject":{"reference":"Patient/04cfe7d2-87f4-4a81-99b6-df8902ea88e1"},"effectiveDateTime":"2022-03-06T00:00:00+00:00","valueRatio":{"numerator":{"value":1},"denominator":{"value":32}}}},{"fullUrl":"Observation/933e967d-9e48-4cd5-9604-86a882cb139a","resource":{"resourceType":"Observation","id":"933e967d-9e48-4cd5-9604-86a882cb139a","meta":{"profile":["http://hl7.org/fhir/us/core/StructureDefinition/us-core-observation-lab"]},"status":"final","category":[{"coding":[{"system":"http://terminology.hl7.org/CodeSystem/observation-category","code":"laboratory","display":"Laboratory"}]}],"code":{"coding":[{"system":"http://loinc.org","code":"26009-1"}]},"subject":{"reference":"Patient/04cfe7d2-87f4-4a81-99b6-df8902ea88e1"},"effectiveDateTime":"2022-01-24T00:00:00+00:00","valueRatio":{"numerator":{"value":1},"denominator":{"value":64}}}},{"fullUrl":"Condition/829c095c-c2b5-484d-9cd2-4cbe2b5083bb","resource":{"resourceType":"Condition","id":"829c095c-c2b5-484d-9cd2-4cbe2b5083bb","meta":{"profile":["http://hl7.org/fhir/us/core/StructureDefinition/us-core-condition"]},"clinicalStatus":{"coding":[{"system":"http://terminology.hl7.org/CodeSystem/condition-clinical","code":"active","display":"Active"}]},"category":[{"coding":[{"system":"http://terminology.hl7.org/CodeSystem/condition-category","code":"problem-list-item"}]}],"code":{"coding":[{"system":"http://snomed.info/sct","code":"709977002"}]},"subject":{"reference":"Patient/04cfe7d2-87f4-4a81-99b6-df8902ea88e1"},"onsetDateTime":"2022-11-02T00:00:00+00:00"}},{"fullUrl":"Condition/5fefc3fb-3d70-4e00-a3c6-19144e05eb40","resource":{"resourceType":"Condition","id":"5fefc3fb-3d70-4e00-a3c6-19144e05eb40","meta":{"profile":["http://hl7.org/fhir/us/core/StructureDefinition/us-core-condition"]},"clinicalStatus":{"coding":[{"system":"http://terminology.hl7.org/CodeSystem/condition-clinical","code":"active","display":"Active"}]},"category":[{"coding":[{"system":"http://terminology.hl7.org/CodeSystem/condition-category","code":"problem-list-item"}]}],"code":{"coding":[{"system":"http://snomed.info/sct","code":"91554004"}]},"subject":{"reference":"Patient/04cfe7d2-87f4-4a81-99b6-df8902ea88e1"},"onsetDateTime":"2022-10-08T00:00:00+00:00"}},{"fullUrl":"Condition/c698c27a-d2dc-4870-86d3-d30ab132c0a2","resource":{"resourceType":"Condition","id":"c698c27a-d2dc-4870-86d3-d30ab132c0a2","meta":{"profile":["http://hl7.org/fhir/us/core/StructureDefinition/us-core-condition"]},"clinicalStatus":{"coding":[{"system":"http://terminology.hl7.org/CodeSystem/condition-clinical","code":"active","display":"Active"}]},"category":[{"coding":[{"system":"http://terminology.hl7.org/CodeSystem/condition-category","code":"problem-list-item"}]}],"code":{"coding":[{"system":"http://snomed.info/sct","code":"91554004"}]},"subject":{"reference":"Patient/04cfe7d2-87f4-4a81-99b6-df8902ea88e1"},"onsetDateTime":"2022-02-20T00:00:00+00:00"}},{"fullUrl":"Condition/d683387a-cb55-40af-ac56-e9e597b5ccff","resource":{"resourceType":"Condition","id":"d683387a-cb55-40af-ac56-e9e597b5ccff","meta":{"profile":["http://hl7.org/fhir/us/core/StructureDefinition/us-core-condition"]},"clinicalStatus":{"coding":[{"system":"http://terminology.hl7.org/CodeSystem/condition-clinical","code":"active","display":"Active"}]},"category":[{"coding":[{"system":"http://terminology.hl7.org/CodeSystem/condition-category","code":"problem-list-item"}]}],"code":{"coding":[{"system":"http://snomed.info/sct","code":"418290006"}]},"subject":{"reference":"Patient/04cfe7d2-87f4-4a81-99b6-df8902ea88e1"},"onsetDateTime":"2022-03-22T00:00:00+00:00"}},{"fullUrl":"Condition/595228fc-ec32-4ece-802b-498a803f6d6c","resource":{"resourceType":"Condition","id":"595228fc-ec32-4ece-802b-498a803f6d6c","meta":{"profile":["http://hl7.org/fhir/us/core/StructureDefinition/us-core-condition"]},"clinicalStatus":{"coding":[{"system":"http://terminology.hl7.org/CodeSystem/condition-clinical","code":"active","display":"Active"}]},"category":[{"coding":[{"system":"http://terminology.hl7.org/CodeSystem/condition-category","code":"problem-list-item"}]}],"code":{"coding":[{"system":"http://snomed.info/sct","code":"91554004"}]},"subject":{"reference":"Patient/04cfe7d2-87f4-4a81-99b6-df8902ea88e1"},"onsetDateTime":"2022-04-27T00:00:00+00:00"}},{"fullUrl":"Condition/790fa47b-d68d-4a8d-b0c3-890df9ca73e1","resource":{"resourceType":"Condition","id":"790fa47b-d68d-4a8d-b0c3-890df9ca73e1","meta":{"profile":["http://hl7.org/fhir/us/core/StructureDefinition/us-core-condition"]},"clinicalStatus":{"coding":[{"system":"http://terminology.hl7.org/CodeSystem/condition-clinical","code":"active","display":"Active"}]},"category":[{"coding":[{"system":"http://terminology.hl7.org/CodeSystem/condition-category","code":"problem-list-item"}]}],"code":{"coding":[{"system":"http://snomed.info/sct","code":"418290006"}]},"subject":{"reference":"Patient/04cfe7d2-87f4-4a81-99b6-df8902ea88e1"},"onsetDateTime":"2022-03-09T00:00:00+00:00"}},{"fullUrl":"Condition/c4c79fef-c086-4d36-9ac8-3459e1bd93d0","resource":{"resourceType":"Condition","id":"c4c79fef-c086-4d36-9ac8-3459e1bd93d0","meta":{"profile":["http://hl7.org/fhir/us/core/StructureDefinition/us-core-condition"]},"clinicalStatus":{"coding":[{"system":"http://terminology.hl7.org/CodeSystem/condition-clinical","code":"active","display":"Active"}]},"category":[{"coding":[{"system":"http://terminology.hl7.org/CodeSystem/condition-category","code":"problem-list-item"}]}],"code":{"coding":[{"system":"http://snomed.info/sct","code":"418290006"}]},"subject":{"reference":"Patient/04cfe7d2-87f4-4a81-99b6-df8902ea88e1"},"onsetDateTime":"2022-06-02T00:00:00+00:00"}},{"fullUrl":"Condition/9eb570cd-4456-483a-9f2f-82f3fd77ef28","resource":{"resourceType":"Condition","id":"9eb570cd-4456-483a-9f2f-82f3fd77ef28","meta":{"profile":["http://hl7.org/fhir/us/core/StructureDefinition/us-core-condition"]},"clinicalStatus":{"coding":[{"system":"http://terminology.hl7.org/CodeSystem/condition-clinical","code":"active","display":"Active"}]},"category":[{"coding":[{"system":"http://terminology.hl7.org/CodeSystem/condition-category","code":"problem-list-item"}]}],"code":{"coding":[{"system":"http://snomed.info/sct","code":"44882003"}]},"subject":{"reference":"Patient/04cfe7d2-87f4-4a81-99b6-df8902ea88e1"},"onsetDateTime":"2022-08-04T00:00:00+00:00"}},{"fullUrl":"Observation/aafa1721-9da8-415d-9f62-7d6d4cd7651a","resource":{"resourceType":"Observation","id":"aafa1721-9da8-415d-9f62-7d6d4cd7651a","meta":{"profile":["http://hl7.org/fhir/us/core/StructureDefinition/us-core-observation-lab"]},"status":"final","category":[{"coding":[{"system":"http://terminology.hl7.org/CodeSystem/observation-category","code":"laboratory","display":"Laboratory"}]}],"code":{"coding":[{"system":"http://loinc.org","code":"804-5"}]},"subject":{"reference":"Patient/04cfe7d2-87f4-4a81-99b6-df8902ea88e1"},"effectiveDateTime":"2022-01-28T00:00:00+00:00","valueQuantity":{"value":10.3}}},{"fullUrl":"Observation/dd3a190f-02a0-4b16-8e03-573b66017f91","resource":{"resourceType":"Observation","id":"dd3a190f-02a0-4b16-8e03-573b66017f91","meta":{"profile":["http://hl7.org/fhir/us/core/StructureDefinition/us-core-observation-lab"]},"status":"final","category":[{"coding":[{"system":"http://terminology.hl7.org/CodeSystem/observation-category","code":"laboratory","display":"Laboratory"}]}],"code":{"coding":[{"system":"http://loinc.org","code":"26464-8"}]},"subject":{"reference":"Patient/04cfe7d2-87f4-4a81-99b6-df8902ea88e1"},"effectiveDateTime":"2022-08-27T00:00:00+00:00","valueQuantity":{"value":8.6}}},{"fullUrl":"Observation/5788c1d0-5d93-419d-b547-9957879ba65a","resource":{"resourceType":"Observation","id":"5788c1d0-5d93-419d-b547-9957879ba65a","meta":{"profile":["http://hl7.org/fhir/us/core/StructureDefinition/us-core-observation-lab"]},"status":"final","category":[{"coding":[{"system":"http://terminology.hl7.org/CodeSystem/observation-category","code":"laboratory","display":"Laboratory"}]}],"code":{"coding":[{"system":"http://loinc.org","code":"49498-9"}]},"subject":{"reference":"Patient/04cfe7d2-87f4-4a81-99b6-df8902ea88e1"},"effectiveDateTime":"2022-10-11T00:00:00+00:00","valueQuantity":{"value":9.8}}},{"fullUrl":"Observation/4b47528a-20c0-4801-bc5a-e5709861ad49","resource":{"resourceType":"Observation","id":"4b47528a-20c0-4801-bc5a-e5709861ad49","meta":{"profile":["http://hl7.org/fhir/us/core/StructureDefinition/us-core-bmi"]},"status":"final","category":[{"coding":[{"system":"http://terminology.hl7.org/CodeSystem/observation-category","code":"vital-signs","display":"Vital Signs"}]}],"code":{"coding":[{"system":"http://loinc.org","code":"39156-5"}]},"subject":{"reference":"Patient/04cfe7d2-87f4-4a81-99b6-df8902ea88e1"},"effectiveDateTime":"2022-09-29T00:00:00+00:00","valueQuantity":{"value":10.44,"unit":"kg/m2","system":"http://unitsofmeasure.org","code":"kg/m2"}}},{"fullUrl":"Observation/aec52dcb-6bdb-4c5d-bfc4-a6916f386010","resource":{"resourceType":"Observation","id":"aec52dcb-6bdb-4c5d-bfc4-a6916f386010","meta":{"profile":["http://hl7.org/fhir/us/core/StructureDefinition/us-core-bmi"]},"status":"final","category":[{"coding":[{"system":"http://terminology.hl7.org/CodeSystem/observation-category","code":"vital-signs","display":"Vital Signs"}]}],"code":{"coding":[{"system":"http://loinc.org","code":"39156-5"}]},"subject":{"reference":"Patient/04cfe7d2-87f4-4a81-99b6-df8902ea88e1"},"effectiveDateTime":"2022-02-22T00:00:00+00:00","valueQuantity":{"value":12.03,"unit":"kg/m2","system":"http://unitsofmeasure.org","code":"kg/m2"}}},{"fullUrl":"Observation/dafcdf43-c95c-4939-ade5-90bc592bd12b","resource":{"resourceType":"Observation","id":"dafcdf43-c95c-4939-ade5-90bc592bd12b","meta":{"profile":["http://hl7.org/fhir/us/core/StructureDefinition/us-core-head-circumference"]},"status":"final","category":[{"coding":[{"system":"http://terminology.hl7.org/CodeSystem/observation-category","code":"vital-signs","display":"Vital Signs"}]}],"code":{"coding":[{"system":"http://loinc.org","code":"9843-4"}]},"subject":{"reference":"Patient/04cfe7d2-87f4-4a81-99b6-df8902ea88e1"},"effectiveDateTime":"2022-03-06T00:00:00+00:00","valueQuantity":{"value":1.9,"unit":"Inch","system":"http://unitsofmeasure.org","code":"[in_i]"}}},{"fullUrl":"Observation/ca8f76a2-d396-41e4-b6d2-03faa7fc386a","resource":{"resourceType":"Observation","id":"ca8f76a2-d396-41e4-b6d2-03faa7fc386a","meta":{"profile":["http://hl7.org/fhir/us/core/StructureDefinition/us-core-body-height"]},"status":"final","category":[{"coding":[{"system":"http://terminology.hl7.org/CodeSystem/observation-category","code":"vital-signs","display":"Vital Signs"}]}],"code":{"coding":[{"system":"http://loinc.org","code":"8302-2"}]},"subject":{"reference":"Patient/04cfe7d2-87f4-4a81-99b6-df8902ea88e1"},"effectiveDateTime":"2022-12-10T00:00:00+00:00","valueQuantity":{"value":68.2,"unit":"Inch","system":"http://unitsofmeasure.org","code":"[in_i]"}}},{"fullUrl":"Observation/f277318c-fbfa-45ce-a81f-2f8c9274b498","resource":{"resourceType":"Observation","id":"f277318c-fbfa-45ce-a81f-2f8c9274b498","meta":{"profile":["http://hl7.org/fhir/us/core/StructureDefinition/us-core-body-weight"]},"status":"final","category":[{"coding":[{"system":"http://terminology.hl7.org/CodeSystem/observation-category","code":"vital-signs","display":"Vital Signs"}]}],"code":{"coding":[{"system":"http://loinc.org","code":"29463-7"}]},"subject":{"reference":"Patient/04cfe7d2-87f4-4a81-99b6-df8902ea88e1"},"effectiveDateTime":"2022-11-11T00:00:00+00:00","valueQuantity":{"value":57.05,"unit":"kilogram","system":"http://unitsofmeasure.org","code":"kg"}}},{"fullUrl":"Observation/9c511784-5ccf-4cea-af85-cf69dec71c9b","resource":{"resourceType":"Observation","id":"9c511784-5ccf-4cea-af85-cf69dec71c9b","meta":{"profile":["http://hl7.org/fhir/us/core/StructureDefinition/us-core-body-weight"]},"status":"final","category":[{"coding":[{"system":"http://terminology.hl7.org/CodeSystem/observation-category","code":"vital-signs","display":"Vital Signs"}]}],"code":{"coding":[{"system":"http://loinc.org","code":"29463-7"}]},"subject":{"reference":"Patient/04cfe7d2-87f4-4a81-99b6-df8902ea88e1"},"effectiveDateTime":"2022-10-26T00:00:00+00:00","valueQuantity":{"value":57.9,"unit":"kilogram","system":"http://unitsofmeasure.org","code":"kg"}}},{"fullUrl":"Observation/9e2c4762-c7a1-4cbb-b78f-4bc0791b6a87","resource":{"resourceType":"Observation","id":"9e2c4762-c7a1-4cbb-b78f-4bc0791b6a87","meta":{"profile":["http://hl7.org/fhir/us/core/StructureDefinition/us-core-body-temperature"]},"status":"final","category":[{"coding":[{"system":"http://terminology.hl7.org/CodeSystem/observation-category","code":"vital-signs","display":"Vital Signs"}]}],"code":{"coding":[{"system":"http://loinc.org","code":"8310-5"}]},"subject":{"reference":"Patient/04cfe7d2-87f4-4a81-99b6-df8902ea88e1"},"effectiveDateTime":"2022-08-04T00:00:00+00:00","valueQuantity":{"value":128.24,"unit":"Degrees Fahrenheit","system":"http://unitsofmeasure.org","code":"[degF]"}}},{"fullUrl":"Observation/95f9fa7a-8bb6-4641-a4dc-67a989d7be52","resource":{"resourceType":"Observation","id":"95f9fa7a-8bb6-4641-a4dc-67a989d7be52","meta":{"profile":["http://hl7.org/fhir/us/core/StructureDefinition/us-core-body-temperature"]},"status":"final","category":[{"coding":[{"system":"http://terminology.hl7.org/CodeSystem/observation-category","code":"vital-signs","display":"Vital Signs"}]}],"code":{"coding":[{"system":"http://loinc.org","code":"8310-5"}]},"subject":{"reference":"Patient/04cfe7d2-87f4-4a81-99b6-df8902ea88e1"},"effectiveDateTime":"2022-10-25T00:00:00+00:00","valueQuantity":{"value":51.79,"unit":"Degrees Fahrenheit","system":"http://unitsofmeasure.org","code":"[degF]"}}},{"fullUrl":"Observation/a2e04bb0-0681-415b-9eb7-c635ef3f875b","resource":{"resourceType":"Observation","id":"a2e04bb0-0681-415b-9eb7-c635ef3f875b","meta":{"profile":["http://hl7.org/fhir/us/core/StructureDefinition/us-core-heart-rate"]},"status":"final","category":[{"coding":[{"system":"http://terminology.hl7.org/CodeSystem/observation-category","code":"vital-signs","display":"Vital Signs"}]}],"code":{"coding":[{"system":"http://loinc.org","code":"8867-4"}]},"subject":{"reference":"Patient/04cfe7d2-87f4-4a81-99b6-df8902ea88e1"},"effectiveDateTime":"2022-11-03T00:00:00+00:00","valueQuantity":{"value":96.8,"unit":"Per Minute","system":"http://unitsofmeasure.org","code":"/min"}}}]}