{"resourceType":"Bundle","id":"8a44d3d9-1d9d-4b0d-87a2-c6b92dc3fe23","type":"transaction","entry":[{"fullUrl":"Patient/cab2fdc8-b178-49f4-9b4c-634c6c993f2c","resource":{"resourceType":"Patient","id":"cab2fdc8-b178-49f4-9b4c-634c6c993f2c","meta":{"profile":["http://hl7.org/fhir/us/core/StructureDefinition/us-core-patient"]},"identifier":[{"type":{"coding":[{"system":"http://terminology.hl7.org/CodeSystem/v2-0203","code":"MR"}]},"system":"urn:fhirgen:mrn","value":"357-72-7906"}],"name":[{"family":"Torres","given":["Patrick"]}],"gender":"male","birthDate":"1989-03-28","address":[{"line":["87722 Swanson Extension Apt. 143"],"city":"Jasonshire","state":"Florida"}]},"request":{"method":"POST","url":"Patient"}},{"fullUrl":"Observation/79c09d8d-ad2a-4813-8441-80c2ea2ef319","resource":{"resourceType":"Observation","id":"79c09d8d-ad2a-4813-8441-80c2ea2ef319","meta":{"profile":["http://hl7.org/fhir/us/core/StructureDefinition/us-core-observation-lab"]},"status":"final","category":[{"coding":[{"system":"http://terminology.hl7.org/CodeSystem/observation-category","code":"laboratory","display":"Laboratory"}]}],"code":{"coding":[{"system":"http://loinc.org","code":"5394-2"}]},"subject":{"reference":"Patient/cab2fdc8-b178-49f4-9b4c-634c6c993f2c"},"effectiveDateTime":"2022-09-09T00:00:00+00:00","valueRatio":{"numerator":{"value":1.0},"denominator":{"value":32.0}}},"request":{"method":"POST","url":"Observation"}},{"fullUrl":"Observation/37978694-e84a-44c7-a634-5ac99a106144","resource":{"resourceType":"Observation","id":"37978694-e84a-44c7-a634-5ac99a106144","meta":{"profile":["http://hl7.org/fhir/us/core/StructureDefinition/us-core-observation-lab"]},"status":"final","category":[{"coding":[{"system":"http://terminology.hl7.org/CodeSystem/observation-category","code":"laboratory","display":"Laboratory"}]}],"code":{"coding":[{"system":"http://loinc.org","code":"5394-2"}]},"subject":{"reference":"Patient/cab2fdc8-b178-49f4-9b4c-634c6c993f2c"},"effectiveDateTime":"2022-10-13T00:00:00+00:00","valueRatio":{"numerator":{"value":1.0},"denominator":{"value":4.0}}},"request":{"method":"POST","url":"Observation"}},{"fullUrl":"Observation/98cb5cae-bcfb-49e6-9328-53bec57bda09","resource":{"resourceType":"Observation","id":"98cb5cae-bcfb-49e6-9328-53bec57bda09","meta":{"profile":["http://hl7.org/fhir/us/core/StructureDefinition/us-core-observation-lab"]},"status":"final","category":[{"coding":[{"system":"http://terminology.hl7.org/CodeSystem/observation-category","code":"laboratory","display":"Laboratory"}]}],"code":{"coding":[{"system":"http://loinc.org","code":"50695-6"}]},"subject":{"reference":"Patient/cab2fdc8-b178-49f4-9b4c-634c6c993f2c"},"effectiveDateTime":"2022-02-24T00:00:00+00:00","valueRatio":{"numerator":{"value":1.0},"denominator":{"value":64.0}}},"request":{"method":"POST","url":"Observation"}},{"fullUrl":"Condition/4def7b6a-801c-49d2-9777-4362ff557080","resource":{"resourceType":"Condition","id":"4def7b6a-801c-49d2-9777-4362ff557080","meta":{"profile":["http://hl7.org/fhir/us/core/StructureDefinition/us-core-condition"]},"clinicalStatus":{"coding":[{"system":"http://terminology.hl7.org/CodeSystem/condition-clinical","code":"active","display":"Active"}]},"category":[{"coding":[{"system":"http://terminology.hl7.org/CodeSystem/condition-ver-status","code":"confirmed"}]}],"code":{"coding":[{"system":"http://snomed.info/sct","code":"44882003"}]},"subject":{"reference":"Patient/cab2fdc8-b178-49f4-9b4c-634c6c993f2c"},"onsetDateTime":"2022-12-24T00:00:00+00:00"},"request":{"method":"POST","url":"Condition"}},{"fullUrl":"Condition/ecdba011-7893-48f7-88f1-210dd80e0502","resource":{"resourceType":"Condition","id":"ecdba011-7893-48f7-88f1-210dd80e0502","meta":{"profile":["http://hl7.org/fhir/us/core/StructureDefinition/us-core-condition"]},"clinicalStatus":{"coding":[{"system":"http://terminology.hl7.org/CodeSystem/condition-clinical","code":"active","display":"Active"}]},"category":[{"coding":[{"system":"http://terminology.hl7.org/CodeSystem/condition-ver-status","code":"confirmed"}]}],"code":{"coding":[{"system":"http://snomed.info/sct","code":"91554004"}]},"subject":{"reference":"Patient/cab2fdc8-b178-49f4-9b4c-634c6c993f2c"},"onsetDateTime":"2022-03-21T00:00:00+00:00"},"request":{"method":"POST","url":"Condition"}},{"fullUrl":"Condition/403f6b3e-02c2-458d-86ba-6083dac8fa0e","resource":{"resourceType":"Condition","id":"403f6b3e-02c2-458d-86ba-6083dac8fa0e","meta":{"profile":["http://hl7.org/fhir/us/core/StructureDefinition/us-core-condition"]},"clinicalStatus":{"coding":[{"system":"http://terminology.hl7.org/CodeSystem/condition-clinical","code":"active","display":"Active"}]},"category":[{"coding":[{"system":"http://terminology.hl7.org/CodeSystem/condition-ver-status","code":"confirmed"}]}],"code":{"coding":[{"system":"http://snomed.info/sct","code":"44882003"}]},"subject":{"reference":"Patient/cab2fdc8-b178-49f4-9b4c-634c6c993f2c"},"onsetDateTime":"2022-04-15T00:00:00+00:00"},"request":{"method":"POST","url":"Condition"}},{"fullUrl":"Observation/93bc7011-6813-47ee-8d05-1548d03847f0","resource":{"resourceType":"Observation","id":"93bc7011-6813-47ee-8d05-1548d03847f0","meta":{"profile":["http://hl7.org/fhir/us/core/StructureDefinition/us-core-observation-lab"]},"status":"final","category":[{"coding":[{"system":"http://terminology.hl7.org/CodeSystem/observation-category","code":"laboratory","display":"Laboratory"}]}],"code":{"coding":[{"system":"http://loinc.org","code":"804-5"}]},"subject":{"reference":"Patient/cab2fdc8-b178-49f4-9b4c-634c6c993f2c"},"effectiveDateTime":"2022-06-20T00:00:00+00:00","valueQuantity":{"value":9.6}},"request":{"method":"POST","url":"Observation"}},{"fullUrl":"Observation/10712f54-18e8-48a8-a5c6-b78a562a9c2e","resource":{"resourceType":"Observation","id":"10712f54-18e8-48a8-a5c6-b78a562a9c2e","meta":{"profile":["http://hl7.org/fhir/us/core/StructureDefinition/us-core-observation-lab"]},"status":"final","category":[{"coding":[{"system":"http://terminology.hl7.org/CodeSystem/observation-category","code":"laboratory","display":"Laboratory"}]}],"code":{"coding":[{"system":"http://www.ama-assn.org/go/cpt","code":"85048"}]},"subject":{"reference":"Patient/cab2fdc8-b178-49f4-9b4c-634c6c993f2c"},"effectiveDateTime":"2022-05-14T00:00:00+00:00","valueQuantity":{"value":9.7}},"request":{"method":"POST","url":"Observation"}},{"fullUrl":"Observation/87f7bf46-ff9b-4660-801c-9e5c6d4c75f0","resource":{"resourceType":"Observation","id":"87f7bf46-ff9b-4660-801c-9e5c6d4c75f0","meta":{"profile":["http://hl7.org/fhir/us/core/StructureDefinition/us-core-observation-lab"]},"status":"final","category":[{"coding":[{"system":"http://terminology.hl7.org/CodeSystem/observation-category","code":"laboratory","display":"Laboratory"}]}],"code":{"coding":[{"system":"http://loinc.org","code":"6690-2"}]},"subject":{"reference":"Patient/cab2fdc8-b178-49f4-9b4c-634c6c993f2c"},"effectiveDateTime":"2022-12-29T00:00:00+00:00","valueQuantity":{"value":8.9}},"request":{"method":"POST","url":"Observation"}},{"fullUrl":"Observation/7bcc95ec-8869-483d-b1b4-31aa3d8d0546","resource":{"resourceType":"Observation","id":"7bcc95ec-8869-483d-b1b4-31aa3d8d0546","meta":{"profile":["http://hl7.org/fhir/us/core/StructureDefinition/us-core-bmi"]},"status":"final","category":[{"coding":[{"system":"http://terminology.hl7.org/CodeSystem/observation-category","code":"vital-signs","display":"Vital Signs"}]}],"code":{"coding":[{"system":"http://loinc.org","code":"39156-5"}]},"subject":{"reference":"Patient/cab2fdc8-b178-49f4-9b4c-634c6c993f2c"},"effectiveDateTime":"2022-10-20T00:00:00+00:00","valueQuantity":{"value":20.8,"unit":"kg/m2","system":"http://unitsofmeasure.org","code":"kg/m2"}},"request":{"method":"POST","url":"Observation"}},{"fullUrl":"Observation/93edd66e-288d-4fd9-bc48-435a5ca31338","resource":{"resourceType":"Observation","id":"93edd66e-288d-4fd9-bc48-435a5ca31338","meta":{"profile":["http://hl7.org/fhir/us/core/StructureDefinition/us-core-head-circumference"]},"status":"final","category":[{"coding":[{"system":"http://terminology.hl7.org/CodeSystem/observation-category","code":"vital-signs","display":"Vital Signs"}]}],"code":{"coding":[{"system":"http://loinc.org","code":"9843-4"}]},"subject":{"reference":"Patient/cab2fdc8-b178-49f4-9b4c-634c6c993f2c"},"effectiveDateTime":"2022-09-12T00:00:00+00:00","valueQuantity":{"value":4.9,"unit":"Inch","system":"http://unitsofmeasure.org","code":"[in_i]"}},"request":{"method":"POST","url":"Observation"}},{"fullUrl":"Observation/b9969dfd-6617-415e-b3cd-c258dd9d3fb7","resource":{"resourceType":"Observation","id":"b9969dfd-6617-415e-b3cd-c258dd9d3fb7","meta":{"profile":["http://hl7.org/fhir/us/core/StructureDefinition/us-core-body-height"]},"status":"final","category":[{"coding":[{"system":"http://terminology.hl7.org/CodeSystem/observation-category","code":"vital-signs","display":"Vital Signs"}]}],"code":{"coding":[{"system":"http://loinc.org","code":"8302-2"}]},"subject":{"reference":"Patient/cab2fdc8-b178-49f4-9b4c-634c6c993f2c"},"effectiveDateTime":"2022-06-22T00:00:00+00:00","valueQuantity":{"value":74.3,"unit":"Inch","system":"http://unitsofmeasure.org","code":"[in_i]"}},"request":{"method":"POST","url":"Observation"}},{"fullUrl":"Observation/9904f0cd-51bc-4647-a605-620c450e893d","resource":{"resourceType":"Observation","id":"9904f0cd-51bc-4647-a605-620c450e893d","meta":{"profile":["http://hl7.org/fhir/us/core/StructureDefinition/us-core-body-weight"]},"status":"final","category":[{"coding":[{"system":"http://terminology.hl7.org/CodeSystem/observation-category","code":"vital-signs","display":"Vital Signs"}]}],"code":{"coding":[{"system":"http://loinc.org","code":"29463-7"}]},"subject":{"reference":"Patient/cab2fdc8-b178-49f4-9b4c-634c6c993f2c"},"effectiveDateTime":"2022-05-08T00:00:00+00:00","valueQuantity":{"value":53.18,"unit":"kilogram","system":"http://unitsofmeasure.org","code":"kg"}},"request":{"method":"POST","url":"Observation"}},{"fullUrl":"Observation/d02bd9ce-5f37-4d32-802b-f8d3ee065631","resource":{"resourceType":"Observation","id":"d02bd9ce-5f37-4d32-802b-f8d3ee065631","meta":{"profile":["http://hl7.org/fhir/us/core/StructureDefinition/us-core-body-temperature"]},"status":"final","category":[{"coding":[{"system":"http://terminology.hl7.org/CodeSystem/observation-category","code":"vital-signs","display":"Vital Signs"}]}],"code":{"coding":[{"system":"http://loinc.org","code":"8310-5"}]},"subject":{"reference":"Patient/cab2fdc8-b178-49f4-9b4c-634c6c993f2c"},"effectiveDateTime":"2022-09-23T00:00:00+00:00","valueQuantity":{"value":120.25,"unit":"kilogram","system":"http://unitsofmeasure.org","code":"kg"}},"request":{"method":"POST","url":"Observation"}},{"fullUrl":"Observation/55e56476-6b38-4bc5-882d-d8074d758c47","resource":{"resourceType":"Observation","id":"55e56476-6b38-4bc5-882d-d8074d758c47","meta":{"profile":["http://hl7.org/fhir/us/core/StructureDefinition/us-core-body-temperature"]},"status":"final","category":[{"coding":[{"system":"http://terminology.hl7.org/CodeSystem/observation-category","code":"vital-signs","display":"Vital Signs"}]}],"code":{"coding":[{"system":"http://loinc.org","code":"8310-5"}]},"subject":{"reference":"Patient/cab2fdc8-b178-49f4-9b4c-634c6c993f2c"},"effectiveDateTime":"2022-12-02T00:00:00+00:00","valueQuantity":{"value":90.03,"unit":"kilogram","system":"http://unitsofmeasure.org","code":"kg"}},"request":{"method":"POST","url":"Observation"}},{"fullUrl":"Observation/fc2c30cc-f7f8-468d-a937-a95365a8a135","resource":{"resourceType":"Observation","id":"fc2c30cc-f7f8-468d-a937-a95365a8a135","meta":{"profile":["http://hl7.org/fhir/us/core/StructureDefinition/us-core-heart-rate"]},"status":"final","category":[{"coding":[{"system":"http://terminology.hl7.org/CodeSystem/observation-category","code":"vital-signs","display":"Vital Signs"}]}],"code":{"coding":[{"system":"http://loinc.org","code":"8867-4"}]},"subject":{"reference":"Patient/cab2fdc8-b178-49f4-9b4c-634c6c993f2c"},"effectiveDateTime":"2022-05-25T00:00:00+00:00","valueQuantity":{"value":98.0,"unit":"Degrees Fahrenheit","system":"http://unitsofmeasure.org","code":"[degF]"}},"request":{"method":"POST","url":"Observation"}},{"fullUrl":"Patient/736be66d-b2a3-4537-b58f-ee6bc52e9a3d","resource":{"resourceType":"Patient","id":"736be66d-b2a3-4537-b58f-ee6bc52e9a3d","meta":{"profile":["http://hl7.org/fhir/us/core/StructureDefinition/us-core-patient"]},"identifier":[{"type":{"coding":[{"system":"http://terminology.hl7.org/CodeSystem/v2-0203","code":"MR"}]},"system":"urn:fhirgen:mrn","value":"303-57-0844"}],"name":[{"family":"Barnes","given":["Jack"]}],"gender":"male","birthDate":"1983-01-25","address":[{"line":["058 Robinson Walk"],"city":"Catherineport","state":"Wyoming"}]},"request":{"method":"POST","url":"Patient"}},{"fullUrl":"Observation/e5086f6e-f6c8-4717-b504-94dc7f998292","resource":{"resourceType":"Observation","id":"e5086f6e-f6c8-4717-b504-94dc7f998292","meta":{"profile":["http://hl7.org/fhir/us/core/StructureDefinition/us-core-observation-lab"]},"status":"final","category":[{"coding":[{"system":"http://terminology.hl7.org/CodeSystem/observation-category","code":"laboratory","display":"Laboratory"}]}],"code":{"coding":[{"system":"http://loinc.org","code":"50690-7"}]},"subject":{"reference":"Patient/736be66d-b2a3-4537-b58f-ee6bc52e9a3d"},"effectiveDateTime":"2022-01-29T00:00:00+00:00","valueRatio":{"numerator":{"value":1.0},"denominator":{"value":64.0}}},"request":{"method":"POST","url":"Observation"}},{"fullUrl":"Observation/54f667c3-c32d-4d1e-be2b-4cc3fbdc34ae","resource":{"resourceType":"Observation","id":"54f667c3-c32d-4d1e-be2b-4cc3fbdc34ae","meta":{"profile":["http://hl7.org/fhir/us/core/StructureDefinition/us-core-observation-lab"]},"status":"final","category":[{"coding":[{"system":"http://terminology.hl7.org/CodeSystem/observation-category","code":"laboratory","display":"Laboratory"}]}],"code":{"coding":[{"system":"http://loinc.org","code":"34382-2"}]},"subject":{"reference":"Patient/736be66d-b2a3-4537-b58f-ee6bc52e9a3d"},"effectiveDateTime":"2022-11-14T00:00:00+00:00","valueRatio":{"numerator":{"value":1.0},"denominator":{"value":64.0}}},"request":{"method":"POST","url":"Observation"}},{"fullUrl":"Condition/1f7e799a-43c0-498e-83df-b99a9d0798b9","resource":{"resourceType":"Condition","id":"1f7e799a-43c0-498e-83df-b99a9d0798b9","meta":{"profile":["http://hl7.org/fhir/us/core/StructureDefinition/us-core-condition"]},"clinicalStatus":{"coding":[{"system":"http://terminology.hl7.org/CodeSystem/condition-clinical","code":"active","display":"Active"}]},"category":[{"coding":[{"system":"http://terminology.hl7.org/CodeSystem/condition-ver-status","code":"confirmed"}]}],"code":{"coding":[{"system":"http://snomed.info/sct","code":"91554004"}]},"subject":{"reference":"Patient/736be66d-b2a3-4537-b58f-ee6bc52e9a3d"},"onsetDateTime":"2022-12-03T00:00:00+00:00"},"request":{"method":"POST","url":"Condition"}},{"fullUrl":"Condition/dea1359f-9aa7-4aad-a615-54e7b9d0f179","resource":{"resourceType":"Condition","id":"dea1359f-9aa7-4aad-a615-54e7b9d0f179","meta":{"profile":["http://hl7.org/fhir/us/core/StructureDefinition/us-core-condition"]},"clinicalStatus":{"coding":[{"system":"http://terminology.hl7.org/CodeSystem/condition-clinical","code":"active","display":"Active"}]},"category":[{"coding":[{"system":"http://terminology.hl7.org/CodeSystem/condition-ver-status","code":"confirmed"}]}],"code":{"coding":[{"system":"http://snomed.info/sct","code":"44882003"}]},"subject":{"reference":"Patient/736be66d-b2a3-4537-b58f-ee6bc52e9a3d"},"onsetDateTime":"2022-09-02T00:00:00+00:00"},"request":{"method":"POST","url":"Condition"}},{"fullUrl":"Condition/ec846011-9220-4d34-9980-9e6c3f52c0ff","resource":{"resourceType":"Condition","id":"ec846011-9220-4d34-9980-9e6c3f52c0ff","meta":{"profile":["http://hl7.org/fhir/us/core/StructureDefinition/us-core-condition"]},"clinicalStatus":{"coding":[{"system":"http://terminology.hl7.org/CodeSystem/condition-clinical","code":"active","display":"Active"}]},"category":[{"coding":[{"system":"http://terminology.hl7.org/CodeSystem/condition-ver-status","code":"confirmed"}]}],"code":{"coding":[{"system":"http://snomed.info/sct","code":"418290006"}]},"subject":{"reference":"Patient/736be66d-b2a3-4537-b58f-ee6bc52e9a3d"},"onsetDateTime":"2022-05-23T00:00:00+00:00"},"request":{"method":"POST","url":"Condition"}},{"fullUrl":"Condition/fcf8edd0-a855-490f-97d5-7a55e582771a","resource":{"resourceType":"Condition","id":"fcf8edd0-a855-490f-97d5-7a55e582771a","meta":{"profile":["http://hl7.org/fhir/us/core/StructureDefinition/us-core-condition"]},"clinicalStatus":{"coding":[{"system":"http://terminology.hl7.org/CodeSystem/condition-clinical","code":"active","display":"Active"}]},"category":[{"coding":[{"system":"http://terminology.hl7.org/CodeSystem/condition-ver-status","code":"confirmed"}]}],"code":{"coding":[{"system":"http://snomed.info/sct","code":"736686006"}]},"subject":{"reference":"Patient/736be66d-b2a3-4537-b58f-ee6bc52e9a3d"},"onsetDateTime":"2022-12-12T00:00:00+00:00"},"request":{"method":"POST","url":"Condition"}},{"fullUrl":"Observation/2d0118a2-51cf-4da3-a539-55efd7fb642f","resource":{"resourceType":"Observation","id":"2d0118a2-51cf-4da3-a539-55efd7fb642f","meta":{"profile":["http://hl7.org/fhir/us/core/StructureDefinition/us-core-observation-lab"]},"status":"final","category":[{"coding":[{"system":"http://terminology.hl7.org/CodeSystem/observation-category","code":"laboratory","display":"Laboratory"}]}],"code":{"coding":[{"system":"http://loinc.org","code":"6690-2"}]},"subject":{"reference":"Patient/736be66d-b2a3-4537-b58f-ee6bc52e9a3d"},"effectiveDateTime":"2022-05-04T00:00:00+00:00","valueQuantity":{"value":8.4}},"request":{"method":"POST","url":"Observation"}},{"fullUrl":"Observation/5629b1f8-3242-426c-8be1-73c0fd6d6776","resource":{"resourceType":"Observation","id":"5629b1f8-3242-426c-8be1-73c0fd6d6776","meta":{"profile":["http://hl7.org/fhir/us/core/StructureDefinition/us-core-observation-lab"]},"status":"final","category":[{"coding":[{"system":"http://terminology.hl7.org/CodeSystem/observation-category","code":"laboratory","display":"Laboratory"}]}],"code":{"coding":[{"system":"http://www.ama-assn.org/go/cpt","code":"85048"}]},"subject":{"reference":"Patient/736be66d-b2a3-4537-b58f-ee6bc52e9a3d"},"effectiveDateTime":"2022-10-31T00:00:00+00:00","valueQuantity":{"value":5.5}},"request":{"method":"POST","url":"Observation"}},{"fullUrl":"Observation/2603a1b5-8076-40a0-846c-d13520536431","resource":{"resourceType":"Observation","id":"2603a1b5-8076-40a0-846c-d13520536431","meta":{"profile":["http://hl7.org/fhir/us/core/StructureDefinition/us-core-bmi"]},"status":"final","category":[{"coding":[{"system":"http://terminology.hl7.org/CodeSystem/observation-category","code":"vital-signs","display":"Vital Signs"}]}],"code":{"coding":[{"system":"http://loinc.org","code":"39156-5"}]},"subject":{"reference":"Patient/736be66d-b2a3-4537-b58f-ee6bc52e9a3d"},"effectiveDateTime":"2022-07-19T00:00:00+00:00","valueQuantity":{"value":13.23,"unit":"kg/m2","system":"http://unitsofmeasure.org","code":"kg/m2"}},"request":{"method":"POST","url":"Observation"}},{"fullUrl":"Observation/96049107-96cf-4e18-af4d-dd0648e35a54","resource":{"resourceType":"Observation","id":"96049107-96cf-4e18-af4d-dd0648e35a54","meta":{"profile":["http://hl7.org/fhir/us/core/StructureDefinition/us-core-head-circumference"]},"status":"final","category":[{"coding":[{"system":"http://terminology.hl7.org/CodeSystem/observation-category","code":"vital-signs","display":"Vital Signs"}]}],"code":{"coding":[{"system":"http://loinc.org","code":"9843-4"}]},"subject":{"reference":"Patient/736be66d-b2a3-4537-b58f-ee6bc52e9a3d"},"effectiveDateTime":"2022-02-17T00:00:00+00:00","valueQuantity":{"value":8.3,"unit":"Inch","system":"http://unitsofmeasure.org","code":"[in_i]"}},"request":{"method":"POST","url":"Observation"}},{"fullUrl":"Observation/b739d0e9-0e64-4614-8f08-44aa4b3ff4bf","resource":{"resourceType":"Observation","id":"b739d0e9-0e64-4614-8f08-44aa4b3ff4bf","meta":{"profile":["http://hl7.org/fhir/us/core/StructureDefinition/us-core-body-height"]},"status":"final","category":[{"coding":[{"system":"http://terminology.hl7.org/CodeSystem/observation-category","code":"vital-signs","display":"Vital Signs"}]}],"code":{"coding":[{"system":"http://loinc.org","code":"8302-2"}]},"subject":{"reference":"Patient/736be66d-b2a3-4537-b58f-ee6bc52e9a3d"},"effectiveDateTime":"2022-05-07T00:00:00+00:00","valueQuantity":{"value":71.9,"unit":"Inch","system":"http://unitsofmeasure.org","code":"[in_i]"}},"request":{"method":"POST","url":"Observation"}},{"fullUrl":"Observation/4fb7cf72-3a5e-4a9f-91ed-ecbb0ccbe123","resource":{"resourceType":"Observation","id":"4fb7cf72-3a5e-4a9f-91ed-ecbb0ccbe123","meta":{"profile":["http://hl7.org/fhir/us/core/StructureDefinition/us-core-body-height"]},"status":"final","category":[{"coding":[{"system":"http://terminology.hl7.org/CodeSystem/observation-category","code":"vital-signs","display":"Vital Signs"}]}],"code":{"coding":[{"system":"http://loinc.org","code":"8302-2"}]},"subject":{"reference":"Patient/736be66d-b2a3-4537-b58f-ee6bc52e9a3d"},"effectiveDateTime":"2022-10-07T00:00:00+00:00","valueQuantity":{"value":64.7,"unit":"Inch","system":"http://unitsofmeasure.org","code":"[in_i]"}},"request":{"method":"POST","url":"Observation"}},{"fullUrl":"Observation/5826c876-5238-433c-bf1b-6616dce69a56","resource":{"resourceType":"Observation","id":"5826c876-5238-433c-bf1b-6616dce69a56","meta":{"profile":["http://hl7.org/fhir/us/core/StructureDefinition/us-core-body-weight"]},"status":"final","category":[{"coding":[{"system":"http://terminology.hl7.org/CodeSystem/observation-category","code":"vital-signs","display":"Vital Signs"}]}],"code":{"coding":[{"system":"http://loinc.org","code":"29463-7"}]},"subject":{"reference":"Patient/736be66d-b2a3-4537-b58f-ee6bc52e9a3d"},"effectiveDateTime":"2022-11-08T00:00:00+00:00","valueQuantity":{"value":35.64,"unit":"kilogram","system":"http://unitsofmeasure.org","code":"kg"}},"request":{"method":"POST","url":"Observation"}},{"fullUrl":"Observation/caff4244-2eac-4c5f-96b8-20c68c355e25","resource":{"resourceType":"Observation","id":"caff4244-2eac-4c5f-96b8-20c68c355e25","meta":{"profile":["http://hl7.org/fhir/us/core/StructureDefinition/us-core-body-weight"]},"status":"final","category":[{"coding":[{"system":"http://terminology.hl7.org/CodeSystem/observation-category","code":"vital-signs","display":"Vital Signs"}]}],"code":{"coding":[{"system":"http://loinc.org","code":"29463-7"}]},"subject":{"reference":"Patient/736be66d-b2a3-4537-b58f-ee6bc52e9a3d"},"effectiveDateTime":"2022-08-19T00:00:00+00:00","valueQuantity":{"value":89.46,"unit":"kilogram","system":"http://unitsofmeasure.org","code":"kg"}},"request":{"method":"POST","url":"Observation"}},{"fullUrl":"Observation/ad54aa1e-7e3b-4f49-81c7-2e2c1a33854e","resource":{"resourceType":"Observation","id":"ad54aa1e-7e3b-4f49-81c7-2e2c1a33854e","meta":{"profile":["http://hl7.org/fhir/us/core/StructureDefinition/us-core-body-temperature"]},"status":"final","category":[{"coding":[{"system":"http://terminology.hl7.org/CodeSystem/observation-category","code":"vital-signs","display":"Vital Signs"}]}],"code":{"coding":[{"system":"http://loinc.org","code":"8310-5"}]},"subject":{"reference":"Patient/736be66d-b2a3-4537-b58f-ee6bc52e9a3d"},"effectiveDateTime":"2022-04-18T00:00:00+00:00","valueQuantity":{"value":21.0,"unit":"kilogram","system":"http://unitsofmeasure.org","code":"kg"}},"request":{"method":"POST","url":"Observation"}},{"fullUrl":"Observation/ea0c51b2-b19f-437d-a69f-24f076f0df75","resource":{"resourceType":"Observation","id":"ea0c51b2-b19f-437d-a69f-24f076f0df75","meta":{"profile":["http://hl7.org/fhir/us/core/StructureDefinition/us-core-body-temperature"]},"status":"final","category":[{"coding":[{"system":"http://terminology.hl7.org/CodeSystem/observation-category","code":"vital-signs","display":"Vital Signs"}]}],"code":{"coding":[{"system":"http://loinc.org","code":"8310-5"}]},"subject":{"reference":"Patient/736be66d-b2a3-4537-b58f-ee6bc52e9a3d"},"effectiveDateTime":"2022-10-19T00:00:00+00:00","valueQuantity":{"value":46.67,"unit":"kilogram","system":"http://unitsofmeasure.org","code":"kg"}},"request":{"method":"POST","url":"Observation"}},{"fullUrl":"Observation/2e88a6a0-d9a6-4a69-8393-5f664f4a462c","resource":{"resourceType":"Observation","id":"2e88a6a0-d9a6-4a69-8393-5f664f4a462c","meta":{"profile":["http://hl7.org/fhir/us/core/StructureDefinition/us-core-heart-rate"]},"status":"final","category":[{"coding":[{"system":"http://terminology.hl7.org/CodeSystem/observation-category","code":"vital-signs","display":"Vital Signs"}]}],"code":{"coding":[{"system":"http://loinc.org","code":"8867-4"}]},"subject":{"reference":"Patient/736be66d-b2a3-4537-b58f-ee6bc52e9a3d"},"effectiveDateTime":"2022-11-19T00:00:00+00:00","valueQuantity":{"value":97.5,"unit":"Degrees Fahrenheit","system":"http://unitsofmeasure.org","code":"[degF]"}},"request":{"method":"POST","url":"Observation"}},{"fullUrl":"Patient/ec898e3c-e91d-4473-967a-a54b9e98cda1","resource":{"resourceType":"Patient","id":"ec898e3c-e91d-4473-967a-a54b9e98cda1","meta":{"profile":["http://hl7.org/fhir/us/core/StructureDefinition/us-core-patient"]},"identifier":[{"type":{"coding":[{"system":"http://terminology.hl7.org/CodeSystem/v2-0203","code":"MR"}]},"system":"urn:fhirgen:mrn","value":"738-22-7782"}],"name":[{"family":"Hernandez","given":["Stephanie"]}],"gender":"female","birthDate":"1993-11-05","address":[{"line":["4279 Patton Corner"],"city":"Fergusonburgh","state":"Ohio"}]},"request":{"method":"POST","url":"Patient"}},{"fullUrl":"Observation/a5eb3d44-2006-43ab-a780-b75225c5570b","resource":{"resourceType":"Observation","id":"a5eb3d44-2006-43ab-a780-b75225c5570b","meta":{"profile":["http://hl7.org/fhir/us/core/StructureDefinition/us-core-observation-lab"]},"status":"final","category":[{"coding":[{"system":"http://terminology.hl7.org/CodeSystem/observation-category","code":"laboratory","display":"Laboratory"}]}],"code":{"coding":[{"system":"http://loinc.org","code":"47476-7"}]},"subject":{"reference":"Patient/ec898e3c-e91d-4473-967a-a54b9e98cda1"},"effectiveDateTime":"2022-07-01T00:00:00+00:00","valueRatio":{"numerator":{"value":1.0},"denominator":{"value":32.0}}},"request":{"method":"POST","url":"Observation"}},{"fullUrl":"Observation/c8bab995-502a-4dba-80eb-710461a2e2cd","resource":{"resourceType":"Observation","id":"c8bab995-502a-4dba-80eb-710461a2e2cd","meta":{"profile":["http://hl7.org/fhir/us/core/StructureDefinition/us-core-observation-lab"]},"status":"final","category":[{"coding":[{"system":"http://terminology.hl7.org/CodeSystem/observation-category","code":"laboratory","display":"Laboratory"}]}],"code":{"coding":[{"system":"http://loinc.org","code":"26009-1"}]},"subject":{"reference":"Patient/ec898e3c-e91d-4473-967a-a54b9e98cda1"},"effectiveDateTime":"2022-06-23T00:00:00+00:00","valueRatio":{"numerator":{"value":1.0},"denominator":{"value":4.0}}},"request":{"method":"POST","url":"Observation"}},{"fullUrl":"Observation/ca9f086a-e379-4d5d-85e7-51fb8eaed3b9","resource":{"resourceType":"Observation","id":"ca9f086a-e379-4d5d-85e7-51fb8eaed3b9","meta":{"profile":["http://hl7.org/fhir/us/core/StructureDefinition/us-core-observation-lab"]},"status":"final","category":[{"coding":[{"system":"http://terminology.hl7.org/CodeSystem/observation-category","code":"laboratory","display":"Laboratory"}]}],"code":{"coding":[{"system":"http://loinc.org","code":"11084-1"}]},"subject":{"reference":"Patient/ec898e3c-e91d-4473-967a-a54b9e98cda1"},"effectiveDateTime":"2022-01-19T00:00:00+00:00","valueRatio":{"numerator":{"value":1.0},"denominator":{"value":32.0}}},"request":{"method":"POST","url":"Observation"}},{"fullUrl":"Condition/9acf5c54-5e9e-4d18-924b-316791423900","resource":{"resourceType":"Condition","id":"9acf5c54-5e9e-4d18-924b-316791423900","meta":{"profile":["http://hl7.org/fhir/us/core/StructureDefinition/us-core-condition"]},"clinicalStatus":{"coding":[{"system":"http://terminology.hl7.org/CodeSystem/condition-clinical","code":"active","display":"Active"}]},"category":[{"coding":[{"system":"http://terminology.hl7.org/CodeSystem/condition-ver-status","code":"confirmed"}]}],"code":{"coding":[{"system":"http://snomed.info/sct","code":"736686006"}]},"subject":{"reference":"Patient/ec898e3c-e91d-4473-967a-a54b9e98cda1"},"onsetDateTime":"2022-12-19T00:00:00+00:00"},"request":{"method":"POST","url":"Condition"}},{"fullUrl":"Condition/88a7403d-1215-459a-945a-ef26158db478","resource":{"resourceType":"Condition","id":"88a7403d-1215-459a-945a-ef26158db478","meta":{"profile":["http://hl7.org/fhir/us/core/StructureDefinition/us-core-condition"]},"clinicalStatus":{"coding":[{"system":"http://terminology.hl7.org/CodeSystem/condition-clinical","code":"active","display":"Active"}]},"category":[{"coding":[{"system":"http://terminology.hl7.org/CodeSystem/condition-ver-status","code":"confirmed"}]}],"code":{"coding":[{"system":"http://snomed.info/sct","code":"709977002"}]},"subject":{"reference":"Patient/ec898e3c-e91d-4473-967a-a54b9e98cda1"},"onsetDateTime":"2022-10-06T00:00:00+00:00"},"request":{"method":"POST","url":"Condition"}},{"fullUrl":"Condition/4f8e7bda-7e23-4881-abb7-6230cf4d6e4b","resource":{"resourceType":"Condition","id":"4f8e7bda-7e23-4881-abb7-6230cf4d6e4b","meta":{"profile":["http://hl7.org/fhir/us/core/StructureDefinition/us-core-condition"]},"clinicalStatus":{"coding":[{"system":"http://terminology.hl7.org/CodeSystem/condition-clinical","code":"active","display":"Active"}]},"category":[{"coding":[{"system":"http://terminology.hl7.org/CodeSystem/condition-ver-status","code":"confirmed"}]}],"code":{"coding":[{"system":"http://snomed.info/sct","code":"91554004"}]},"subject":{"reference":"Patient/ec898e3c-e91d-4473-967a-a54b9e98cda1"},"onsetDateTime":"2022-10-02T00:00:00+00:00"},"request":{"method":"POST","url":"Condition"}},{"fullUrl":"Condition/5bce92e8-1633-4965-8705-3c346c7c324d","resource":{"resourceType":"Condition","id":"5bce92e8-1633-4965-8705-3c346c7c324d","meta":{"profile":["http://hl7.org/fhir/us/core/StructureDefinition/us-core-condition"]},"clinicalStatus":{"coding":[{"system":"http://terminology.hl7.org/CodeSystem/condition-clinical","code":"active","display":"Active"}]},"category":[{"coding":[{"system":"http://terminology.hl7.org/CodeSystem/condition-ver-status","code":"confirmed"}]}],"code":{"coding":[{"system":"http://snomed.info/sct","code":"418290006"}]},"subject":{"reference":"Patient/ec898e3c-e91d-4473-967a-a54b9e98cda1"},"onsetDateTime":"2022-08-16T00:00:00+00:00"},"request":{"method":"POST","url":"Condition"}},{"fullUrl":"Condition/e9f9812a-1ac8-490a-bea8-4f5c1e30c1b8","resource":{"resourceType":"Condition","id":"e9f9812a-1ac8-490a-bea8-4f5c1e30c1b8","meta":{"profile":["http://hl7.org/fhir/us/core/StructureDefinition/us-core-condition"]},"clinicalStatus":{"coding":[{"system":"http://terminology.hl7.org/CodeSystem/condition-clinical","code":"active","display":"Active"}]},"category":[{"coding":[{"system":"http://terminology.hl7.org/CodeSystem/condition-ver-status","code":"confirmed"}]}],"code":{"coding":[{"system":"http://snomed.info/sct","code":"709977002"}]},"subject":{"reference":"Patient/ec898e3c-e91d-4473-967a-a54b9e98cda1"},"onsetDateTime":"2022-11-21T00:00:00+00:00"},"request":{"method":"POST","url":"Condition"}},{"fullUrl":"Condition/7359ab2e-886c-4728-9a57-145390c24192","resource":{"resourceType":"Condition","id":"7359ab2e-886c-4728-9a57-145390c24192","meta":{"profile":["http://hl7.org/fhir/us/core/StructureDefinition/us-core-condition"]},"clinicalStatus":{"coding":[{"system":"http://terminology.hl7.org/CodeSystem/condition-clinical","code":"active","display":"Active"}]},"category":[{"coding":[{"system":"http://terminology.hl7.org/CodeSystem/condition-ver-status","code":"confirmed"}]}],"code":{"coding":[{"system":"http://snomed.info/sct","code":"44882003"}]},"subject":{"reference":"Patient/ec898e3c-e91d-4473-967a-a54b9e98cda1"},"onsetDateTime":"2022-10-02T00:00:00+00:00"},"request":{"method":"POST","url":"Condition"}},{"fullUrl":"Condition/7755966f-5c59-4c9c-b96c-a7cabb7b7515","resource":{"resourceType":"Condition","id":"7755966f-5c59-4c9c-b96c-a7cabb7b7515","meta":{"profile":["http://hl7.org/fhir/us/core/StructureDefinition/us-core-condition"]},"clinicalStatus":{"coding":[{"system":"http://terminology.hl7.org/CodeSystem/condition-clinical","code":"active","display":"Active"}]},"category":[{"coding":[{"system":"http://terminology.hl7.org/CodeSystem/condition-ver-status","code":"confirmed"}]}],"code":{"coding":[{"system":"http://snomed.info/sct","code":"91554004"}]},"subject":{"reference":"Patient/ec898e3c-e91d-4473-967a-a54b9e98cda1"},"onsetDateTime":"2022-05-23T00:00:00+00:00"},"request":{"method":"POST","url":"Condition"}},{"fullUrl":"Observation/6999a033-9e01-4fdd-a915-3ee3676e1446","resource":{"resourceType":"Observation","id":"6999a033-9e01-4fdd-a915-3ee3676e1446","meta":{"profile":["http://hl7.org/fhir/us/core/StructureDefinition/us-core-observation-lab"]},"status":"final","category":[{"coding":[{"system":"http://terminology.hl7.org/CodeSystem/observation-category","code":"laboratory","display":"Laboratory"}]}],"code":{"coding":[{"system":"http://loinc.org","code":"804-5"}]},"subject":{"reference":"Patient/ec898e3c-e91d-4473-967a-a54b9e98cda1"},"effectiveDateTime":"2022-12-31T00:00:00+00:00","valueQuantity":{"value":6.6}},"request":{"method":"POST","url":"Observation"}},{"fullUrl":"Observation/3a334dc4-cd7a-4240-ae04-cd320e35464d","resource":{"resourceType":"Observation","id":"3a334dc4-cd7a-4240-ae04-cd320e35464d","meta":{"profile":["http://hl7.org/fhir/us/core/StructureDefinition/us-core-observation-lab"]},"status":"final","category":[{"coding":[{"system":"http://terminology.hl7.org/CodeSystem/observation-category","code":"laboratory","display":"Laboratory"}]}],"code":{"coding":[{"system":"http://loinc.org","code":"49498-9"}]},"subject":{"reference":"Patient/ec898e3c-e91d-4473-967a-a54b9e98cda1"},"effectiveDateTime":"2022-01-03T00:00:00+00:00","valueQuantity":{"value":8.3}},"request":{"method":"POST","url":"Observation"}},{"fullUrl":"Observation/17d4f18f-639c-40d0-b5c8-43fcd454ad8e","resource":{"resourceType":"Observation","id":"17d4f18f-639c-40d0-b5c8-43fcd454ad8e","meta":{"profile":["http://hl7.org/fhir/us/core/StructureDefinition/us-core-bmi"]},"status":"final","category":[{"coding":[{"system":"http://terminology.hl7.org/CodeSystem/observation-category","code":"vital-signs","display":"Vital Signs"}]}],"code":{"coding":[{"system":"http://loinc.org","code":"39156-5"}]},"subject":{"reference":"Patient/ec898e3c-e91d-4473-967a-a54b9e98cda1"},"effectiveDateTime":"2022-01-16T00:00:00+00:00","valueQuantity":{"value":11.11,"unit":"kg/m2","system":"http://unitsofmeasure.org","code":"kg/m2"}},"request":{"method":"POST","url":"Observation"}},{"fullUrl":"Observation/52a81345-be4d-484a-a88c-3de15a0cf612","resource":{"resourceType":"Observation","id":"52a81345-be4d-484a-a88c-3de15a0cf612","meta":{"profile":["http://hl7.org/fhir/us/core/StructureDefinition/us-core-head-circumference"]},"status":"final","category":[{"coding":[{"system":"http://terminology.hl7.org/CodeSystem/observation-category","code":"vital-signs","display":"Vital Signs"}]}],"code":{"coding":[{"system":"http://loinc.org","code":"9843-4"}]},"subject":{"reference":"Patient/ec898e3c-e91d-4473-967a-a54b9e98cda1"},"effectiveDateTime":"2022-02-07T00:00:00+00:00","valueQuantity":{"value":4.1,"unit":"Inch","system":"http://unitsofmeasure.org","code":"[in_i]"}},"request":{"method":"POST","url":"Observation"}},{"fullUrl":"Observation/7197dc7f-49cc-4a3c-8d1a-9e3cfee18b87","resource":{"resourceType":"Observation","id":"7197dc7f-49cc-4a3c-8d1a-9e3cfee18b87","meta":{"profile":["http://hl7.org/fhir/us/core/StructureDefinition/us-core-head-circumference"]},"status":"final","category":[{"coding":[{"system":"http://terminology.hl7.org/CodeSystem/observation-category","code":"vital-signs","display":"Vital Signs"}]}],"code":{"coding":[{"system":"http://loinc.org","code":"9843-4"}]},"subject":{"reference":"Patient/ec898e3c-e91d-4473-967a-a54b9e98cda1"},"effectiveDateTime":"2022-11-11T00:00:00+00:00","valueQuantity":{"value":8.1,"unit":"Inch","system":"http://unitsofmeasure.org","code":"[in_i]"}},"request":{"method":"POST","url":"Observation"}},{"fullUrl":"Observation/23204a6f-5a61-4e0d-af4d-3d63f20cf1f3","resource":{"resourceType":"Observation","id":"23204a6f-5a61-4e0d-af4d-3d63f20cf1f3","meta":{"profile":["http://hl7.org/fhir/us/core/StructureDefinition/us-core-body-height"]},"status":"final","category":[{"coding":[{"system":"http://terminology.hl7.org/CodeSystem/observation-category","code":"vital-signs","display":"Vital Signs"}]}],"code":{"coding":[{"system":"http://loinc.org","code":"8302-2"}]},"subject":{"reference":"Patient/ec898e3c-e91d-4473-967a-a54b9e98cda1"},"effectiveDateTime":"2022-07-20T00:00:00+00:00","valueQuantity":{"value":63.0,"unit":"Inch","system":"http://unitsofmeasure.org","code":"[in_i]"}},"request":{"method":"POST","url":"Observation"}},{"fullUrl":"Observation/ac861a08-8a2f-4627-a513-cc89a322d0ac","resource":{"resourceType":"Observation","id":"ac861a08-8a2f-4627-a513-cc89a322d0ac","meta":{"profile":["http://hl7.org/fhir/us/core/StructureDefinition/us-core-body-height"]},"status":"final","category":[{"coding":[{"system":"http://terminology.hl7.org/CodeSystem/observation-category","code":"vital-signs","display":"Vital Signs"}]}],"code":{"coding":[{"system":"http://loinc.org","code":"8302-2"}]},"subject":{"reference":"Patient/ec898e3c-e91d-4473-967a-a54b9e98cda1"},"effectiveDateTime":"2022-10-05T00:00:00+00:00","valueQuantity":{"value":76.5,"unit":"Inch","system":"http://unitsofmeasure.org","code":"[in_i]"}},"request":{"method":"POST","url":"Observation"}},{"fullUrl":"Observation/70f938e2-58be-4f8f-b22f-630ad7a8f0a1","resource":{"resourceType":"Observation","id":"70f938e2-58be-4f8f-b22f-630ad7a8f0a1","meta":{"profile":["http://hl7.org/fhir/us/core/StructureDefinition/us-core-body-weight"]},"status":"final","category":[{"coding":[{"system":"http://terminology.hl7.org/CodeSystem/observation-category","code":"vital-signs","display":"Vital Signs"}]}],"code":{"coding":[{"system":"http://loinc.org","code":"29463-7"}]},"subject":{"reference":"Patient/ec898e3c-e91d-4473-967a-a54b9e98cda1"},"effectiveDateTime":"2022-03-10T00:00:00+00:00","valueQuantity":{"value":114.87,"unit":"kilogram","system":"http://unitsofmeasure.org","code":"kg"}},"request":{"method":"POST","url":"Observation"}},{"fullUrl":"Observation/c83cc343-269a-4113-871d-2899ee28fe11","resource":{"resourceType":"Observation","id":"c83cc343-269a-4113-871d-2899ee28fe11","meta":{"profile":["http://hl7.org/fhir/us/core/StructureDefinition/us-core-body-weight"]},"status":"final","category":[{"coding":[{"system":"http://terminology.hl7.org/CodeSystem/observation-category","code":"vital-signs","display":"Vital Signs"}]}],"code":{"coding":[{"system":"http://loinc.org","code":"29463-7"}]},"subject":{"reference":"Patient/ec898e3c-e91d-4473-967a-a54b9e98cda1"},"effectiveDateTime":"2022-04-03T00:00:00+00:00","valueQuantity":{"value":27.08,"unit":"kilogram","system":"http://unitsofmeasure.org","code":"kg"}},"request":{"method":"POST","url":"Observation"}},{"fullUrl":"Observation/9e0f747b-090a-4160-b60e-6a81ca3a29d5","resource":{"resourceType":"Observation","id":"9e0f747b-090a-4160-b60e-6a81ca3a29d5","meta":{"profile":["http://hl7.org/fhir/us/core/StructureDefinition/us-core-body-temperature"]},"status":"final","category":[{"coding":[{"system":"http://terminology.hl7.org/CodeSystem/observation-category","code":"vital-signs","display":"Vital Signs"}]}],"code":{"coding":[{"system":"http://loinc.org","code":"8310-5"}]},"subject":{"reference":"Patient/ec898e3c-e91d-4473-967a-a54b9e98cda1"},"effectiveDateTime":"2022-05-06T00:00:00+00:00","valueQuantity":{"value":60.25,"unit":"kilogram","system":"http://unitsofmeasure.org","code":"kg"}},"request":{"method":"POST","url":"Observation"}},{"fullUrl":"Observation/85f2e748-4b44-4a82-a4a3-73661576a185","resource":{"resourceType":"Observation","id":"85f2e748-4b44-4a82-a4a3-73661576a185","meta":{"profile":["http://hl7.org/fhir/us/core/StructureDefinition/us-core-body-temperature"]},"status":"final","category":[{"coding":[{"system":"http://terminology.hl7.org/CodeSystem/observation-category","code":"vital-signs","display":"Vital Signs"}]}],"code":{"coding":[{"system":"http://loinc.org","code":"8310-5"}]},"subject":{"reference":"Patient/ec898e3c-e91d-4473-967a-a54b9e98cda1"},"effectiveDateTime":"2022-07-10T00:00:00+00:00","valueQuantity":{"value":145.87,"unit":"kilogram","system":"http://unitsofmeasure.org","code":"kg"}},"request":{"method":"POST","url":"Observation"}},{"fullUrl":"Observation/7584333f-d9be-468b-b3e5-631434d5bff5","resource":{"resourceType":"Observation","id":"7584333f-d9be-468b-b3e5-631434d5bff5","meta":{"profile":["http://hl7.org/fhir/us/core/StructureDefinition/us-core-heart-rate"]},"status":"final","category":[{"coding":[{"system":"http://terminology.hl7.org/CodeSystem/observation-category","code":"vital-signs","display":"Vital Signs"}]}],"code":{"coding":[{"system":"http://loinc.org","code":"8867-4"}]},"subject":{"reference":"Patient/ec898e3c-e91d-4473-967a-a54b9e98cda1"},"effectiveDateTime":"2022-05-11T00:00:00+00:00","valueQuantity":{"value":99.5,"unit":"Degrees Fahrenheit","system":"http://unitsofmeasure.org","code":"[degF]"}},"request":{"method":"POST","url":"Observation"}},{"fullUrl":"Patient/04be5d07-2849-4fba-8b45-97a761d100c3","resource":{"resourceType":"Patient","id":"04be5d07-2849-4fba-8b45-97a761d100c3","meta":{"profile":["http://hl7.org/fhir/us/core/StructureDefinition/us-core-patient"]},"identifier":[{"type":{"coding":[{"system":"http://terminology.hl7.org/CodeSystem/v2-0203","code":"MR"}]},"system":"urn:fhirgen:mrn","value":"489-65-8318"}],"name":[{"family":"Davenport","given":["Laurie"]}],"gender":"female","birthDate":"1967-12-30","address":[{"line":["65220 Margaret Ford Apt. 502"],"city":"Lake Laurentown","state":"New York"}]},"request":{"method":"POST","url":"Patient"}},{"fullUrl":"Observation/b124958e-f623-426d-9112-f9d4245b90c2","resource":{"resourceType":"Observation","id":"b124958e-f623-426d-9112-f9d4245b90c2","meta":{"profile":["http://hl7.org/fhir/us/core/StructureDefinition/us-core-observation-lab"]},"status":"final","category":[{"coding":[{"system":"http://terminology.hl7.org/CodeSystem/observation-category","code":"laboratory","display":"Laboratory"}]}],"code":{"coding":[{"system":"http://loinc.org","code":"71793-4"}]},"subject":{"reference":"Patient/04be5d07-2849-4fba-8b45-97a761d100c3"},"effectiveDateTime":"2022-02-19T00:00:00+00:00","valueRatio":{"numerator":{"value":1.0},"denominator":{"value":32.0}}},"request":{"method":"POST","url":"Observation"}},{"fullUrl":"Observation/8ebca641-81ff-4741-b5f6-dcb598ea9f52","resource":{"resourceType":"Observation","id":"8ebca641-81ff-4741-b5f6-dcb598ea9f52","meta":{"profile":["http://hl7.org/fhir/us/core/StructureDefinition/us-core-observation-lab"]},"status":"final","category":[{"coding":[{"system":"http://terminology.hl7.org/CodeSystem/observation-category","code":"laboratory","display":"Laboratory"}]}],"code":{"coding":[{"system":"http://loinc.org","code":"31146-4"}]},"subject":{"reference":"Patient/04be5d07-2849-4fba-8b45-97a761d100c3"},"effectiveDateTime":"2022-12-13T00:00:00+00:00","valueRatio":{"numerator":{"value":1.0},"denominator":{"value":32.0}}},"request":{"method":"POST","url":"Observation"}},{"fullUrl":"Observation/1910b83c-6229-411c-bdb7-4bcf17305ff0","resource":{"resourceType":"Observation","id":"1910b83c-6229-411c-bdb7-4bcf17305ff0","meta":{"profile":["http://hl7.org/fhir/us/core/StructureDefinition/us-core-observation-lab"]},"status":"final","category":[{"coding":[{"system":"http://terminology.hl7.org/CodeSystem/observation-category","code":"laboratory","display":"Laboratory"}]}],"code":{"coding":[{"system":"http://loinc.org","code":"47235-7"}]},"subject":{"reference":"Patient/04be5d07-2849-4fba-8b45-97a761d100c3"},"effectiveDateTime":"2022-04-14T00:00:00+00:00","valueRatio":{"numerator":{"value":1.0},"denominator":{"value":64.0}}},"request":{"method":"POST","url":"Observation"}},{"fullUrl":"Condition/8eb5fc26-c2aa-40fe-81f8-71da91e2c7e4","resource":{"resourceType":"Condition","id":"8eb5fc26-c2aa-40fe-81f8-71da91e2c7e4","meta":{"profile":["http://hl7.org/fhir/us/core/StructureDefinition/us-core-condition"]},"clinicalStatus":{"coding":[{"system":"http://terminology.hl7.org/CodeSystem/condition-clinical","code":"active","display":"Active"}]},"category":[{"coding":[{"system":"http://terminology.hl7.org/CodeSystem/condition-ver-status","code":"confirmed"}]}],"code":{"coding":[{"system":"http://snomed.info/sct","code":"736686006"}]},"subject":{"reference":"Patient/04be5d07-2849-4fba-8b45-97a761d100c3"},"onsetDateTime":"2022-03-03T00:00:00+00:00"},"request":{"method":"POST","url":"Condition"}},{"fullUrl":"Condition/15f09c8c-1f4a-4875-b461-4f1529d387cb","resource":{"resourceType":"Condition","id":"15f09c8c-1f4a-4875-b461-4f1529d387cb","meta":{"profile":["http://hl7.org/fhir/us/core/StructureDefinition/us-core-condition"]},"clinicalStatus":{"coding":[{"system":"http://terminology.hl7.org/CodeSystem/condition-clinical","code":"active","display":"Active"}]},"category":[{"coding":[{"system":"http://terminology.hl7.org/CodeSystem/condition-ver-status","code":"confirmed"}]}],"code":{"coding":[{"system":"http://snomed.info/sct","code":"418290006"}]},"subject":{"reference":"Patient/04be5d07-2849-4fba-8b45-97a761d100c3"},"onsetDateTime":"2022-11-15T00:00:00+00:00"},"request":{"method":"POST","url":"Condition"}},{"fullUrl":"Condition/6868ce63-cd0f-46f1-b59c-c1a662801284","resource":{"resourceType":"Condition","id":"6868ce63-cd0f-46f1-b59c-c1a662801284","meta":{"profile":["http://hl7.org/fhir/us/core/StructureDefinition/us-core-condition"]},"clinicalStatus":{"coding":[{"system":"http://terminology.hl7.org/CodeSystem/condition-clinical","code":"active","display":"Active"}]},"category":[{"coding":[{"system":"http://terminology.hl7.org/CodeSystem/condition-ver-status","code":"confirmed"}]}],"code":{"coding":[{"system":"http://snomed.info/sct","code":"44882003"}]},"subject":{"reference":"Patient/04be5d07-2849-4fba-8b45-97a761d100c3"},"onsetDateTime":"2022-02-24T00:00:00+00:00"},"request":{"method":"POST","url":"Condition"}},{"fullUrl":"Condition/963909d0-a7c9-4f17-b36f-4e16e0901689","resource":{"resourceType":"Condition","id":"963909d0-a7c9-4f17-b36f-4e16e0901689","meta":{"profile":["http://hl7.org/fhir/us/core/StructureDefinition/us-core-condition"]},"clinicalStatus":{"coding":[{"system":"http://terminology.hl7.org/CodeSystem/condition-clinical","code":"active","display":"Active"}]},"category":[{"coding":[{"system":"http://terminology.hl7.org/CodeSystem/condition-ver-status","code":"confirmed"}]}],"code":{"coding":[{"system":"http://snomed.info/sct","code":"709977002"}]},"subject":{"reference":"Patient/04be5d07-2849-4fba-8b45-97a761d100c3"},"onsetDateTime":"2022-12-10T00:00:00+00:00"},"request":{"method":"POST","url":"Condition"}},{"fullUrl":"Condition/882ca817-cc0f-4b1a-89a8-41c2dd70dabf","resource":{"resourceType":"Condition","id":"882ca817-cc0f-4b1a-89a8-41c2dd70dabf","meta":{"profile":["http://hl7.org/fhir/us/core/StructureDefinition/us-core-condition"]},"clinicalStatus":{"coding":[{"system":"http://terminology.hl7.org/CodeSystem/condition-clinical","code":"active","display":"Active"}]},"category":[{"coding":[{"system":"http://terminology.hl7.org/CodeSystem/condition-ver-status","code":"confirmed"}]}],"code":{"coding":[{"system":"http://snomed.info/sct","code":"709977002"}]},"subject":{"reference":"Patient/04be5d07-2849-4fba-8b45-97a761d100c3"},"onsetDateTime":"2022-02-23T00:00:00+00:00"},"request":{"method":"POST","url":"Condition"}},{"fullUrl":"Condition/0729a4a2-bbc4-4639-8042-2cbbb68e0d31","resource":{"resourceType":"Condition","id":"0729a4a2-bbc4-4639-8042-2cbbb68e0d31","meta":{"profile":["http://hl7.org/fhir/us/core/StructureDefinition/us-core-condition"]},"clinicalStatus":{"coding":[{"system":"http://terminology.hl7.org/CodeSystem/condition-clinical","code":"active","display":"Active"}]},"category":[{"coding":[{"system":"http://terminology.hl7.org/CodeSystem/condition-ver-status","code":"confirmed"}]}],"code":{"coding":[{"system":"http://snomed.info/sct","code":"736686006"}]},"subject":{"reference":"Patient/04be5d07-2849-4fba-8b45-97a761d100c3"},"onsetDateTime":"2022-10-16T00:00:00+00:00"},"request":{"method":"POST","url":"Condition"}},{"fullUrl":"Condition/f46c7f0b-73cd-4161-9912-6ae9a8d861f1","resource":{"resourceType":"Condition","id":"f46c7f0b-73cd-4161-9912-6ae9a8d861f1","meta":{"profile":["http://hl7.org/fhir/us/core/StructureDefinition/us-core-condition"]},"clinicalStatus":{"coding":[{"system":"http://terminology.hl7.org/CodeSystem/condition-clinical","code":"active","display":"Active"}]},"category":[{"coding":[{"system":"http://terminology.hl7.org/CodeSystem/condition-ver-status","code":"confirmed"}]}],"code":{"coding":[{"system":"http://snomed.info/sct","code":"44882003"}]},"subject":{"reference":"Patient/04be5d07-2849-4fba-8b45-97a761d100c3"},"onsetDateTime":"2022-01-21T00:00:00+00:00"},"request":{"method":"POST","url":"Condition"}},{"fullUrl":"Condition/cb627dc1-4364-4ac0-a858-ff93f160294b","resource":{"resourceType":"Condition","id":"cb627dc1-4364-4ac0-a858-ff93f160294b","meta":{"profile":["http://hl7.org/fhir/us/core/StructureDefinition/us-core-condition"]},"clinicalStatus":{"coding":[{"system":"http://terminology.hl7.org/CodeSystem/condition-clinical","code":"active","display":"Active"}]},"category":[{"coding":[{"system":"http://terminology.hl7.org/CodeSystem/condition-ver-status","code":"confirmed"}]}],"code":{"coding":[{"system":"http://snomed.info/sct","code":"418290006"}]},"subject":{"reference":"Patient/04be5d07-2849-4fba-8b45-97a761d100c3"},"onsetDateTime":"2022-10-12T00:00:00+00:00"},"request":{"method":"POST","url":"Condition"}},{"fullUrl":"Observation/e49ad47c-4456-4dfc-aa9f-ed641ac3f583","resource":{"resourceType":"Observation","id":"e49ad47c-4456-4dfc-aa9f-ed641ac3f583","meta":{"profile":["http://hl7.org/fhir/us/core/StructureDefinition/us-core-observation-lab"]},"status":"final","category":[{"coding":[{"system":"http://terminology.hl7.org/CodeSystem/observation-category","code":"laboratory","display":"Laboratory"}]}],"code":{"coding":[{"system":"http://www.ama-assn.org/go/cpt","code":"85048"}]},"subject":{"reference":"Patient/04be5d07-2849-4fba-8b45-97a761d100c3"},"effectiveDateTime":"2022-08-29T00:00:00+00:00","valueQuantity":{"value":9.7}},"request":{"method":"POST","url":"Observation"}},{"fullUrl":"Observation/44ee3543-cc33-487c-ad0e-0bf2508fc0e6","resource":{"resourceType":"Observation","id":"44ee3543-cc33-487c-ad0e-0bf2508fc0e6","meta":{"profile":["http://hl7.org/fhir/us/core/StructureDefinition/us-core-observation-lab"]},"status":"final","category":[{"coding":[{"system":"http://terminology.hl7.org/CodeSystem/observation-category","code":"laboratory","display":"Laboratory"}]}],"code":{"coding":[{"system":"http://loinc.org","code":"804-5"}]},"subject":{"reference":"Patient/04be5d07-2849-4fba-8b45-97a761d100c3"},"effectiveDateTime":"2022-07-27T00:00:00+00:00","valueQuantity":{"value":8.6}},"request":{"method":"POST","url":"Observation"}},{"fullUrl":"Observation/4b42c2b1-4122-4f81-88a1-b55ea9959071","resource":{"resourceType":"Observation","id":"4b42c2b1-4122-4f81-88a1-b55ea9959071","meta":{"profile":["http://hl7.org/fhir/us/core/StructureDefinition/us-core-bmi"]},"status":"final","category":[{"coding":[{"system":"http://terminology.hl7.org/CodeSystem/observation-category","code":"vital-signs","display":"Vital Signs"}]}],"code":{"coding":[{"system":"http://loinc.org","code":"39156-5"}]},"subject":{"reference":"Patient/04be5d07-2849-4fba-8b45-97a761d100c3"},"effectiveDateTime":"2022-12-22T00:00:00+00:00","valueQuantity":{"value":19.18,"unit":"kg/m2","system":"http://unitsofmeasure.org","code":"kg/m2"}},"request":{"method":"POST","url":"Observation"}},{"fullUrl":"Observation/83c63f1a-2ac6-4fb6-b896-b29a605cef98","resource":{"resourceType":"Observation","id":"83c63f1a-2ac6-4fb6-b896-b29a605cef98","meta":{"profile":["http://hl7.org/fhir/us/core/StructureDefinition/us-core-bmi"]},"status":"final","category":[{"coding":[{"system":"http://terminology.hl7.org/CodeSystem/observation-category","code":"vital-signs","display":"Vital Signs"}]}],"code":{"coding":[{"system":"http://loinc.org","code":"39156-5"}]},"subject":{"reference":"Patient/04be5d07-2849-4fba-8b45-97a761d100c3"},"effectiveDateTime":"2022-11-12T00:00:00+00:00","valueQuantity":{"value":26.69,"unit":"kg/m2","system":"http://unitsofmeasure.org","code":"kg/m2"}},"request":{"method":"POST","url":"Observation"}},{"fullUrl":"Observation/2d954e8b-f6bc-44cc-9dc1-79611394f571","resource":{"resourceType":"Observation","id":"2d954e8b-f6bc-44cc-9dc1-79611394f571","meta":{"profile":["http://hl7.org/fhir/us/core/StructureDefinition/us-core-head-circumference"]},"status":"final","category":[{"coding":[{"system":"http://terminology.hl7.org/CodeSystem/observation-category","code":"vital-signs","display":"Vital Signs"}]}],"code":{"coding":[{"system":"http://loinc.org","code":"9843-4"}]},"subject":{"reference":"Patient/04be5d07-2849-4fba-8b45-97a761d100c3"},"effectiveDateTime":"2022-02-20T00:00:00+00:00","valueQuantity":{"value":4.0,"unit":"Inch","system":"http://unitsofmeasure.org","code":"[in_i]"}},"request":{"method":"POST","url":"Observation"}},{"fullUrl":"Observation/745e044c-af47-48c7-b46e-ca11b0b6e436","resource":{"resourceType":"Observation","id":"745e044c-af47-48c7-b46e-ca11b0b6e436","meta":{"profile":["http://hl7.org/fhir/us/core/StructureDefinition/us-core-body-height"]},"status":"final","category":[{"coding":[{"system":"http://terminology.hl7.org/CodeSystem/observation-category","code":"vital-signs","display":"Vital Signs"}]}],"code":{"coding":[{"system":"http://loinc.org","code":"8302-2"}]},"subject":{"reference":"Patient/04be5d07-2849-4fba-8b45-97a761d100c3"},"effectiveDateTime":"2022-05-13T00:00:00+00:00","valueQuantity":{"value":64.4,"unit":"Inch","system":"http://unitsofmeasure.org","code":"[in_i]"}},"request":{"method":"POST","url":"Observation"}},{"fullUrl":"Observation/9be74b4f-82d0-4d4e-abca-cd0db8e2cda0","resource":{"resourceType":"Observation","id":"9be74b4f-82d0-4d4e-abca-cd0db8e2cda0","meta":{"profile":["http://hl7.org/fhir/us/core/StructureDefinition/us-core-body-height"]},"status":"final","category":[{"coding":[{"system":"http://terminology.hl7.org/CodeSystem/observation-category","code":"vital-signs","display":"Vital Signs"}]}],"code":{"coding":[{"system":"http://loinc.org","code":"8302-2"}]},"subject":{"reference":"Patient/04be5d07-2849-4fba-8b45-97a761d100c3"},"effectiveDateTime":"2022-04-23T00:00:00+00:00","valueQuantity":{"value":74.3,"unit":"Inch","system":"http://unitsofmeasure.org","code":"[in_i]"}},"request":{"method":"POST","url":"Observation"}},{"fullUrl":"Observation/9d33cbb1-297c-48a4-8c7e-14f4703eaecf","resource":{"resourceType":"Observation","id":"9d33cbb1-297c-48a4-8c7e-14f4703eaecf","meta":{"profile":["http://hl7.org/fhir/us/core/StructureDefinition/us-core-body-weight"]},"status":"final","category":[{"coding":[{"system":"http://terminology.hl7.org/CodeSystem/observation-category","code":"vital-signs","display":"Vital Signs"}]}],"code":{"coding":[{"system":"http://loinc.org","code":"29463-7"}]},"subject":{"reference":"Patient/04be5d07-2849-4fba-8b45-97a761d100c3"},"effectiveDateTime":"2022-11-27T00:00:00+00:00","valueQuantity":{"value":123.62,"unit":"kilogram","system":"http://unitsofmeasure.org","code":"kg"}},"request":{"method":"POST","url":"Observation"}},{"fullUrl":"Observation/2d7dd755-f663-4f0f-bf23-af8a776ad3b3","resource":{"resourceType":"Observation","id":"2d7dd755-f663-4f0f-bf23-af8a776ad3b3","meta":{"profile":["http://hl7.org/fhir/us/core/StructureDefinition/us-core-body-weight"]},"status":"final","category":[{"coding":[{"system":"http://terminology.hl7.org/CodeSystem/observation-category","code":"vital-signs","display":"Vital Signs"}]}],"code":{"coding":[{"system":"http://loinc.org","code":"29463-7"}]},"subject":{"reference":"Patient/04be5d07-2849-4fba-8b45-97a761d100c3"},"effectiveDateTime":"2022-12-25T00:00:00+00:00","valueQuantity":{"value":52.26,"unit":"kilogram","system":"http://unitsofmeasure.org","code":"kg"}},"request":{"method":"POST","url":"Observation"}},{"fullUrl":"Observation/8818c4bb-f013-446d-b744-c915a21089a5","resource":{"resourceType":"Observation","id":"8818c4bb-f013-446d-b744-c915a21089a5","meta":{"profile":["http://hl7.org/fhir/us/core/StructureDefinition/us-core-body-temperature"]},"status":"final","category":[{"coding":[{"system":"http://terminology.hl7.org/CodeSystem/observation-category","code":"vital-signs","display":"Vital Signs"}]}],"code":{"coding":[{"system":"http://loinc.org","code":"8310-5"}]},"subject":{"reference":"Patient/04be5d07-2849-4fba-8b45-97a761d100c3"},"effectiveDateTime":"2022-08-02T00:00:00+00:00","valueQuantity":{"value":138.76,"unit":"kilogram","system":"http://unitsofmeasure.org","code":"kg"}},"request":{"method":"POST","url":"Observation"}},{"fullUrl":"Observation/5ad79d33-f1d9-4d8d-87d4-78024a6fa33c","resource":{"resourceType":"Observation","id":"5ad79d33-f1d9-4d8d-87d4-78024a6fa33c","meta":{"profile":["http://hl7.org/fhir/us/core/StructureDefinition/us-core-heart-rate"]},"status":"final","category":[{"coding":[{"system":"http://terminology.hl7.org/CodeSystem/observation-category","code":"vital-signs","display":"Vital Signs"}]}],"code":{"coding":[{"system":"http://loinc.org","code":"8867-4"}]},"subject":{"reference":"Patient/04be5d07-2849-4fba-8b45-97a761d100c3"},"effectiveDateTime":"2022-08-15T00:00:00+00:00","valueQuantity":{"value":99.9,"unit":"Degrees Fahrenheit","system":"http://unitsofmeasure.org","code":"[degF]"}},"request":{"method":"POST","url":"Observation"}},{"fullUrl":"Patient/407ae4d3-8852-4547-9611-4933d697c6bd","resource":{"resourceType":"Patient","id":"407ae4d3-8852-4547-9611-4933d697c6bd","meta":{"profile":["http://hl7.org/fhir/us/core/StructureDefinition/us-core-patient"]},"identifier":[{"type":{"coding":[{"system":"http://terminology.hl7.org/CodeSystem/v2-0203","code":"MR"}]},"system":"urn:fhirgen:mrn","value":"183-73-5444"}],"name":[{"family":"Brown","given":["Douglas"]}],"gender":"other","birthDate":"1963-09-02","address":[{"line":["363 King Common"],"city":"Watersville","state":"North Dakota"}]},"request":{"method":"POST","url":"Patient"}},{"fullUrl":"Observation/74868a17-af34-4a22-87cc-1853b248208c","resource":{"resourceType":"Observation","id":"74868a17-af34-4a22-87cc-1853b248208c","meta":{"profile":["http://hl7.org/fhir/us/core/StructureDefinition/us-core-observation-lab"]},"status":"final","category":[{"coding":[{"system":"http://terminology.hl7.org/CodeSystem/observation-category","code":"laboratory","display":"Laboratory"}]}],"code":{"coding":[{"system":"http://loinc.org","code":"47476-7"}]},"subject":{"reference":"Patient/407ae4d3-8852-4547-9611-4933d697c6bd"},"effectiveDateTime":"2022-09-18T00:00:00+00:00","valueRatio":{"numerator":{"value":1.0},"denominator":{"value":64.0}}},"request":{"method":"POST","url":"Observation"}},{"fullUrl":"Observation/5a6cd5a0-5da9-4613-b6db-0907ec69b5aa","resource":{"resourceType":"Observation","id":"5a6cd5a0-5da9-4613-b6db-0907ec69b5aa","meta":{"profile":["http://hl7.org/fhir/us/core/StructureDefinition/us-core-observation-lab"]},"status":"final","category":[{"coding":[{"system":"http://terminology.hl7.org/CodeSystem/observation-category","code":"laboratory","display":"Laboratory"}]}],"code":{"coding":[{"system":"http://loinc.org","code":"51475-2"}]},"subject":{"reference":"Patient/407ae4d3-8852-4547-9611-4933d697c6bd"},"effectiveDateTime":"2022-05-26T00:00:00+00:00","valueRatio":{"numerator":{"value":1.0},"denominator":{"value":64.0}}},"request":{"method":"POST","url":"Observation"}},{"fullUrl":"Condition/ddee292b-2322-4fa8-8221-61e38e4e3902","resource":{"resourceType":"Condition","id":"ddee292b-2322-4fa8-8221-61e38e4e3902","meta":{"profile":["http://hl7.org/fhir/us/core/StructureDefinition/us-core-condition"]},"clinicalStatus":{"coding":[{"system":"http://terminology.hl7.org/CodeSystem/condition-clinical","code":"active","display":"Active"}]},"category":[{"coding":[{"system":"http://terminology.hl7.org/CodeSystem/condition-ver-status","code":"confirmed"}]}],"code":{"coding":[{"system":"http://snomed.info/sct","code":"44882003"}]},"subject":{"reference":"Patient/407ae4d3-8852-4547-9611-4933d697c6bd"},"onsetDateTime":"2022-03-14T00:00:00+00:00"},"request":{"method":"POST","url":"Condition"}},{"fullUrl":"Condition/a975ca09-d856-468c-8991-bac04f6ca6b3","resource":{"resourceType":"Condition","id":"a975ca09-d856-468c-8991-bac04f6ca6b3","meta":{"profile":["http://hl7.org/fhir/us/core/StructureDefinition/us-core-condition"]},"clinicalStatus":{"coding":[{"system":"http://terminology.hl7.org/CodeSystem/condition-clinical","code":"active","display":"Active"}]},"category":[{"coding":[{"system":"http://terminology.hl7.org/CodeSystem/condition-ver-status","code":"confirmed"}]}],"code":{"coding":[{"system":"http://snomed.info/sct","code":"736686006"}]},"subject":{"reference":"Patient/407ae4d3-8852-4547-9611-4933d697c6bd"},"onsetDateTime":"2022-09-03T00:00:00+00:00"},"request":{"method":"POST","url":"Condition"}},{"fullUrl":"Condition/a2e43015-45ef-489d-8a04-2345e3dd83ff","resource":{"resourceType":"Condition","id":"a2e43015-45ef-489d-8a04-2345e3dd83ff","meta":{"profile":["http://hl7.org/fhir/us/core/StructureDefinition/us-core-condition"]},"clinicalStatus":{"coding":[{"system":"http://terminology.hl7.org/CodeSystem/condition-clinical","code":"active","display":"Active"}]},"category":[{"coding":[{"system":"http://terminology.hl7.org/CodeSystem/condition-ver-status","code":"confirmed"}]}],"code":{"coding":[{"system":"http://snomed.info/sct","code":"736686006"}]},"subject":{"reference":"Patient/407ae4d3-8852-4547-9611-4933d697c6bd"},"onsetDateTime":"2022-10-30T00:00:00+00:00"},"request":{"method":"POST","url":"Condition"}},{"fullUrl":"Condition/18efbbdb-2c6d-45e0-bbd7-e78a5f96d2d4","resource":{"resourceType":"Condition","id":"18efbbdb-2c6d-45e0-bbd7-e78a5f96d2d4","meta":{"profile":["http://hl7.org/fhir/us/core/StructureDefinition/us-core-condition"]},"clinicalStatus":{"coding":[{"system":"http://terminology.hl7.org/CodeSystem/condition-clinical","code":"active","display":"Active"}]},"category":[{"coding":[{"system":"http://terminology.hl7.org/CodeSystem/condition-ver-status","code":"confirmed"}]}],"code":{"coding":[{"system":"http://snomed.info/sct","code":"736686006"}]},"subject":{"reference":"Patient/407ae4d3-8852-4547-9611-4933d697c6bd"},"onsetDateTime":"2022-05-19T00:00:00+00:00"},"request":{"method":"POST","url":"Condition"}},{"fullUrl":"Condition/0d36a3fe-09dd-4bf8-964f-b10b415ec912","resource":{"resourceType":"Condition","id":"0d36a3fe-09dd-4bf8-964f-b10b415ec912","meta":{"profile":["http://hl7.org/fhir/us/core/StructureDefinition/us-core-condition"]},"clinicalStatus":{"coding":[{"system":"http://terminology.hl7.org/CodeSystem/condition-clinical","code":"active","display":"Active"}]},"category":[{"coding":[{"system":"http://terminology.hl7.org/CodeSystem/condition-ver-status","code":"confirmed"}]}],"code":{"coding":[{"system":"http://snomed.info/sct","code":"418290006"}]},"subject":{"reference":"Patient/407ae4d3-8852-4547-9611-4933d697c6bd"},"onsetDateTime":"2022-12-24T00:00:00+00:00"},"request":{"method":"POST","url":"Condition"}},{"fullUrl":"Condition/909e057b-81b2-48f0-9004-7d92d722fc60","resource":{"resourceType":"Condition","id":"909e057b-81b2-48f0-9004-7d92d722fc60","meta":{"profile":["http://hl7.org/fhir/us/core/StructureDefinition/us-core-condition"]},"clinicalStatus":{"coding":[{"system":"http://terminology.hl7.org/CodeSystem/condition-clinical","code":"active","display":"Active"}]},"category":[{"coding":[{"system":"http://terminology.hl7.org/CodeSystem/condition-ver-status","code":"confirmed"}]}],"code":{"coding":[{"system":"http://snomed.info/sct","code":"44882003"}]},"subject":{"reference":"Patient/407ae4d3-8852-4547-9611-4933d697c6bd"},"onsetDateTime":"2022-05-24T00:00:00+00:00"},"request":{"method":"POST","url":"Condition"}},{"fullUrl":"Condition/e718eecc-54ec-46c5-b65c-8508bcac6f2b","resource":{"resourceType":"Condition","id":"e718eecc-54ec-46c5-b65c-8508bcac6f2b","meta":{"profile":["http://hl7.org/fhir/us/core/StructureDefinition/us-core-condition"]},"clinicalStatus":{"coding":[{"system":"http://terminology.hl7.org/CodeSystem/condition-clinical","code":"active","display":"Active"}]},"category":[{"coding":[{"system":"http://terminology.hl7.org/CodeSystem/condition-ver-status","code":"confirmed"}]}],"code":{"coding":[{"system":"http://snomed.info/sct","code":"709977002"}]},"subject":{"reference":"Patient/407ae4d3-8852-4547-9611-4933d697c6bd"},"onsetDateTime":"2022-04-29T00:00:00+00:00"},"request":{"method":"POST","url":"Condition"}},{"fullUrl":"Observation/61fefe43-e649-4f71-8607-4118f4ab9b0e","resource":{"resourceType":"Observation","id":"61fefe43-e649-4f71-8607-4118f4ab9b0e","meta":{"profile":["http://hl7.org/fhir/us/core/StructureDefinition/us-core-observation-lab"]},"status":"final","category":[{"coding":[{"system":"http://terminology.hl7.org/CodeSystem/observation-category","code":"laboratory","display":"Laboratory"}]}],"code":{"coding":[{"system":"http://www.ama-assn.org/go/cpt","code":"85048"}]},"subject":{"reference":"Patient/407ae4d3-8852-4547-9611-4933d697c6bd"},"effectiveDateTime":"2022-12-07T00:00:00+00:00","valueQuantity":{"value":9.6}},"request":{"method":"POST","url":"Observation"}},{"fullUrl":"Observation/6a6d1fcd-1f74-4918-9f56-8018d5f7f68d","resource":{"resourceType":"Observation","id":"6a6d1fcd-1f74-4918-9f56-8018d5f7f68d","meta":{"profile":["http://hl7.org/fhir/us/core/StructureDefinition/us-core-observation-lab"]},"status":"final","category":[{"coding":[{"system":"http://terminology.hl7.org/CodeSystem/observation-category","code":"laboratory","display":"Laboratory"}]}],"code":{"coding":[{"system":"http://www.ama-assn.org/go/cpt","code":"85048"}]},"subject":{"reference":"Patient/407ae4d3-8852-4547-9611-4933d697c6bd"},"effectiveDateTime":"2022-01-01T00:00:00+00:00","valueQuantity":{"value":5.4}},"request":{"method":"POST","url":"Observation"}},{"fullUrl":"Observation/2629a87a-5320-42fd-bcb9-864dc75489c7","resource":{"resourceType":"Observation","id":"2629a87a-5320-42fd-bcb9-864dc75489c7","meta":{"profile":["http://hl7.org/fhir/us/core/StructureDefinition/us-core-bmi"]},"status":"final","category":[{"coding":[{"system":"http://terminology.hl7.org/CodeSystem/observation-category","code":"vital-signs","display":"Vital Signs"}]}],"code":{"coding":[{"system":"http://loinc.org","code":"39156-5"}]},"subject":{"reference":"Patient/407ae4d3-8852-4547-9611-4933d697c6bd"},"effectiveDateTime":"2022-06-27T00:00:00+00:00","valueQuantity":{"value":24.86,"unit":"kg/m2","system":"http://unitsofmeasure.org","code":"kg/m2"}},"request":{"method":"POST","url":"Observation"}},{"fullUrl":"Observation/7ca7ffb9-3479-44a1-96f1-9faa38882cf9","resource":{"resourceType":"Observation","id":"7ca7ffb9-3479-44a1-96f1-9faa38882cf9","meta":{"profile":["http://hl7.org/fhir/us/core/StructureDefinition/us-core-bmi"]},"status":"final","category":[{"coding":[{"system":"http://terminology.hl7.org/CodeSystem/observation-category","code":"vital-signs","display":"Vital Signs"}]}],"code":{"coding":[{"system":"http://loinc.org","code":"39156-5"}]},"subject":{"reference":"Patient/407ae4d3-8852-4547-9611-4933d697c6bd"},"effectiveDateTime":"2022-05-26T00:00:00+00:00","valueQuantity":{"value":19.1,"unit":"kg/m2","system":"http://unitsofmeasure.org","code":"kg/m2"}},"request":{"method":"POST","url":"Observation"}},{"fullUrl":"Observation/d2ae394d-16c7-4f93-abfe-f72bab438361","resource":{"resourceType":"Observation","id":"d2ae394d-16c7-4f93-abfe-f72bab438361","meta":{"profile":["http://hl7.org/fhir/us/core/StructureDefinition/us-core-head-circumference"]},"status":"final","category":[{"coding":[{"system":"http://terminology.hl7.org/CodeSystem/observation-category","code":"vital-signs","display":"Vital Signs"}]}],"code":{"coding":[{"system":"http://loinc.org","code":"9843-4"}]},"subject":{"reference":"Patient/407ae4d3-8852-4547-9611-4933d697c6bd"},"effectiveDateTime":"2022-01-02T00:00:00+00:00","valueQuantity":{"value":5.3,"unit":"Inch","system":"http://unitsofmeasure.org","code":"[in_i]"}},"request":{"method":"POST","url":"Observation"}},{"fullUrl":"Observation/9d470e9d-5c2f-47d5-880c-99b7ced3ec95","resource":{"resourceType":"Observation","id":"9d470e9d-5c2f-47d5-880c-99b7ced3ec95","meta":{"profile":["http://hl7.org/fhir/us/core/StructureDefinition/us-core-head-circumference"]},"status":"final","category":[{"coding":[{"system":"http://terminology.hl7.org/CodeSystem/observation-category","code":"vital-signs","display":"Vital Signs"}]}],"code":{"coding":[{"system":"http://loinc.org","code":"9843-4"}]},"subject":{"reference":"Patient/407ae4d3-8852-4547-9611-4933d697c6bd"},"effectiveDateTime":"2022-12-07T00:00:00+00:00","valueQuantity":{"value":7.6,"unit":"Inch","system":"http://unitsofmeasure.org","code":"[in_i]"}},"request":{"method":"POST","url":"Observation"}},{"fullUrl":"Observation/122e78ce-cde3-4c2e-ad04-dd984cb21891","resource":{"resourceType":"Observation","id":"122e78ce-cde3-4c2e-ad04-dd984cb21891","meta":{"profile":["http://hl7.org/fhir/us/core/StructureDefinition/us-core-body-height"]},"status":"final","category":[{"coding":[{"system":"http://terminology.hl7.org/CodeSystem/observation-category","code":"vital-signs","display":"Vital Signs"}]}],"code":{"coding":[{"system":"http://loinc.org","code":"8302-2"}]},"subject":{"reference":"Patient/407ae4d3-8852-4547-9611-4933d697c6bd"},"effectiveDateTime":"2022-01-19T00:00:00+00:00","valueQuantity":{"value":76.0,"unit":"Inch","system":"http://unitsofmeasure.org","code":"[in_i]"}},"request":{"method":"POST","url":"Observation"}},{"fullUrl":"Observation/ff182fd4-0bb8-4dd2-8c48-2dfdd3961fb1","resource":{"resourceType":"Observation","id":"ff182fd4-0bb8-4dd2-8c48-2dfdd3961fb1","meta":{"profile":["http://hl7.org/fhir/us/core/StructureDefinition/us-core-body-weight"]},"status":"final","category":[{"coding":[{"system":"http://terminology.hl7.org/CodeSystem/observation-category","code":"vital-signs","display":"Vital Signs"}]}],"code":{"coding":[{"system":"http://loinc.org","code":"29463-7"}]},"subject":{"reference":"Patient/407ae4d3-8852-4547-9611-4933d697c6bd"},"effectiveDateTime":"2022-06-04T00:00:00+00:00","valueQuantity":{"value":34.08,"unit":"kilogram","system":"http://unitsofmeasure.org","code":"kg"}},"request":{"method":"POST","url":"Observation"}},{"fullUrl":"Observation/a12fbf2f-258f-4a2e-8d61-fd2d448286c4","resource":{"resourceType":"Observation","id":"a12fbf2f-258f-4a2e-8d61-fd2d448286c4","meta":{"profile":["http://hl7.org/fhir/us/core/StructureDefinition/us-core-body-weight"]},"status":"final","category":[{"coding":[{"system":"http://terminology.hl7.org/CodeSystem/observation-category","code":"vital-signs","display":"Vital Signs"}]}],"code":{"coding":[{"system":"http://loinc.org","code":"29463-7"}]},"subject":{"reference":"Patient/407ae4d3-8852-4547-9611-4933d697c6bd"},"effectiveDateTime":"2022-06-20T00:00:00+00:00","valueQuantity":{"value":96.05,"unit":"kilogram","system":"http://unitsofmeasure.org","code":"kg"}},"request":{"method":"POST","url":"Observation"}},{"fullUrl":"Observation/725a0fc1-1992-4251-8265-d7573a3831fe","resource":{"resourceType":"Observation","id":"725a0fc1-1992-4251-8265-d7573a3831fe","meta":{"profile":["http://hl7.org/fhir/us/core/StructureDefinition/us-core-body-temperature"]},"status":"final","category":[{"coding":[{"system":"http://terminology.hl7.org/CodeSystem/observation-category","code":"vital-signs","display":"Vital Signs"}]}],"code":{"coding":[{"system":"http://loinc.org","code":"8310-5"}]},"subject":{"reference":"Patient/407ae4d3-8852-4547-9611-4933d697c6bd"},"effectiveDateTime":"2022-07-30T00:00:00+00:00","valueQuantity":{"value":28.55,"unit":"kilogram","system":"http://unitsofmeasure.org","code":"kg"}},"request":{"method":"POST","url":"Observation"}},{"fullUrl":"Observation/381ebe0a-172f-49ae-a392-f1ea69255ddb","resource":{"resourceType":"Observation","id":"381ebe0a-172f-49ae-a392-f1ea69255ddb","meta":{"profile":["http://hl7.org/fhir/us/core/StructureDefinition/us-core-heart-rate"]},"status":"final","category":[{"coding":[{"system":"http://terminology.hl7.org/CodeSystem/observation-category","code":"vital-signs","display":"Vital Signs"}]}],"code":{"coding":[{"system":"http://loinc.org","code":"8867-4"}]},"subject":{"reference":"Patient/407ae4d3-8852-4547-9611-4933d697c6bd"},"effectiveDateTime":"2022-07-04T00:00:00+00:00","valueQuantity":{"value":100.0,"unit":"Degrees Fahrenheit","system":"http://unitsofmeasure.org","code":"[degF]"}},"request":{"method":"POST","url":"Observation"}}]}