{"resourceType":"Bundle","id":"ec6590c7-538c-48d9-8ecb-010687eb0918","type":"transaction","entry":[{"fullUrl":"Patient/30a32513-10bc-4426-977c-6e57a54663b6","resource":{"resourceType":"Patient","id":"30a32513-10bc-4426-977c-6e57a54663b6","identifier":[{"type":{"coding":[{"system":"http://terminology.hl7.org/CodeSystem/v2-0203","code":"MR"}]},"system":"urn:fhirgen:mrn","value":"870-24-9769"},{"system":"http://hl7.org/fhir/sid/us-ssn","value":"792-09-0692"}],"name":[{"use":"official","family":"Weaver","given":["Timothy"]},{"use":"maiden","family":"Green"}],"telecom":[{"system":"phone","value":"+1-245-787-6348x2629","use":"home"},{"system":"email","value":"qroberts@gmail.com","use":"mobile"}],"gender":"male","birthDate":"1945-11-07","address":[{"use":"home","line":["5952 Taylor Burgs Apt. 334"],"city":"Port Caitlintown","state":"IL","postalCode":"59779"},{"use":"old","line":["48364 Tammy Ville Apt. 585"],"city":"Jeremystad","state":"PA","postalCode":"69728"}],"maritalStatus":{"coding":[{"system":"http://terminology.hl7.org/CodeSystem/v3-MaritalStatus","code":"P","display":"Polygamous"}]}},"request":{"method":"POST","url":"Patient"}},{"fullUrl":"Observation/618cff4e-aa61-4bcf-bc4d-5d3d5c741b0a","resource":{"resourceType":"Observation","id":"618cff4e-aa61-4bcf-bc4d-5d3d5c741b0a","status":"final","code":{"coding":[{"system":"http://loinc.org","code":"26009-1"}]},"subject":{"reference":"Patient/30a32513-10bc-4426-977c-6e57a54663b6"},"effectiveDateTime":"2022-01-21T00:00:00+00:00","valueRatio":{"numerator":{"value":1},"denominator":{"value":64}}},"request":{"method":"POST","url":"Observation"}},{"fullUrl":"Observation/c1c1420d-ca29-44be-86a8-c8519492d12d","resource":{"resourceType":"Observation","id":"c1c1420d-ca29-44be-86a8-c8519492d12d","status":"final","code":{"coding":[{"system":"http://loinc.org","code":"71793-4"}]},"subject":{"reference":"Patient/30a32513-10bc-4426-977c-6e57a54663b6"},"effectiveDateTime":"2022-07-11T00:00:00+00:00","valueRatio":{"numerator":{"value":1},"denominator":{"value":4}}},"request":{"method":"POST","url":"Observation"}},{"fullUrl":"Observation/e9ef73f6-6fec-4bcc-9db2-e1706b2840e8","resource":{"resourceType":"Observation","id":"e9ef73f6-6fec-4bcc-9db2-e1706b2840e8","status":"final","code":{"coding":[{"system":"http://loinc.org","code":"31146-4"}]},"subject":{"reference":"Patient/30a32513-10bc-4426-977c-6e57a54663b6"},"effectiveDateTime":"2022-01-11T00:00:00+00:00","valueRatio":{"numerator":{"value":1},"denominator":{"value":64}}},"request":{"method":"POST","url":"Observation"}},{"fullUrl":"Condition/d26f9658-d8bb-4acf-ba2e-341560816aee","resource":{"resourceType":"Condition","id":"d26f9658-d8bb-4acf-ba2e-341560816aee","code":{"coding":[{"system":"http://snomed.info/sct","code":"271807003"}]},"subject":{"reference":"Patient/30a32513-10bc-4426-977c-6e57a54663b6"},"onsetDateTime":"2022-09-28T00:00:00+00:00"},"request":{"method":"POST","url":"Condition"}},{"fullUrl":"Condition/c423c301-5d10-4271-b2ad-bd2a8dab65f1","resource":{"resourceType":"Condition","id":"c423c301-5d10-4271-b2ad-bd2a8dab65f1","code":{"coding":[{"system":"http://snomed.info/sct","code":"79342006"}]},"subject":{"reference":"Patient/30a32513-10bc-4426-977c-6e57a54663b6"},"onsetDateTime":"2022-09-05T00:00:00+00:00"},"request":{"method":"POST","url":"Condition"}},{"fullUrl":"Condition/9fb5fb04-8a58-4af1-a1a2-dd35592c8070","resource":{"resourceType":"Condition","id":"9fb5fb04-8a58-4af1-a1a2-dd35592c8070","code":{"coding":[{"system":"http://snomed.info/sct","code":"71315007"}]},"subject":{"reference":"Patient/30a32513-10bc-4426-977c-6e57a54663b6"},"onsetDateTime":"2022-03-12T00:00:00+00:00"},"request":{"method":"POST","url":"Condition"}},{"fullUrl":"Condition/0915c996-5eb0-4625-b52e-8906c16cfd9f","resource":{"resourceType":"Condition","id":"0915c996-5eb0-4625-b52e-8906c16cfd9f","code":{"coding":[{"system":"http://snomed.info/sct","code":"56317004"}]},"subject":{"reference":"Patient/30a32513-10bc-4426-977c-6e57a54663b6"},"onsetDateTime":"2022-05-09T00:00:00+00:00"},"request":{"method":"POST","url":"Condition"}},{"fullUrl":"Condition/4adc8109-d838-4ded-a1a3-db90cc6b3e4b","resource":{"resourceType":"Condition","id":"4adc8109-d838-4ded-a1a3-db90cc6b3e4b","code":{"coding":[{"system":"http://snomed.info/sct","code":"3951002"}]},"subject":{"reference":"Patient/30a32513-10bc-4426-977c-6e57a54663b6"},"onsetDateTime":"2022-01-28T00:00:00+00:00"},"request":{"method":"POST","url":"Condition"}},{"fullUrl":"Condition/1f908fce-d408-4717-a64f-89cf5e311ca2","resource":{"resourceType":"Condition","id":"1f908fce-d408-4717-a64f-89cf5e311ca2","code":{"coding":[{"system":"http://snomed.info/sct","code":"30746006"}]},"subject":{"reference":"Patient/30a32513-10bc-4426-977c-6e57a54663b6"},"onsetDateTime":"2022-09-05T00:00:00+00:00"},"request":{"method":"POST","url":"Condition"}},{"fullUrl":"Observation/803e9fcb-6987-4952-9798-4dc2b88fe1b2","resource":{"resourceType":"Observation","id":"803e9fcb-6987-4952-9798-4dc2b88fe1b2","status":"final","code":{"coding":[{"system":"http://www.ama-assn.org/go/cpt","code":"85048"}]},"subject":{"reference":"Patient/30a32513-10bc-4426-977c-6e57a54663b6"},"effectiveDateTime":"2022-09-18T00:00:00+00:00","valueQuantity":{"value":9.9}},"request":{"method":"POST","url":"Observation"}},{"fullUrl":"Observation/eb3ee1f9-8e5b-41c2-b99f-0bb464ac5a8e","resource":{"resourceType":"Observation","id":"eb3ee1f9-8e5b-41c2-b99f-0bb464ac5a8e","status":"final","code":{"coding":[{"system":"http://www.ama-assn.org/go/cpt","code":"85048"}]},"subject":{"reference":"Patient/30a32513-10bc-4426-977c-6e57a54663b6"},"effectiveDateTime":"2022-01-02T00:00:00+00:00","valueQuantity":{"value":6.8}},"request":{"method":"POST","url":"Observation"}},{"fullUrl":"Observation/79ff76a1-d6d5-4b6f-8e06-327e3f9715c4","resource":{"resourceType":"Observation","id":"79ff76a1-d6d5-4b6f-8e06-327e3f9715c4","status":"final","code":{"coding":[{"system":"http://loinc.org","code":"49498-9"}]},"subject":{"reference":"Patient/30a32513-10bc-4426-977c-6e57a54663b6"},"effectiveDateTime":"2022-03-13T00:00:00+00:00","valueCodeableConcept":{"coding":[{"system":"snomed","code":"123456","display":"fake snomed"}]}},"request":{"method":"POST","url":"Observation"}},{"fullUrl":"Observation/9a0e02e8-37da-49e5-82f9-0d2879035544","resource":{"resourceType":"Observation","id":"9a0e02e8-37da-49e5-82f9-0d2879035544","status":"final","code":{"coding":[{"system":"http://loinc.org","code":"804-5"}]},"subject":{"reference":"Patient/30a32513-10bc-4426-977c-6e57a54663b6"},"effectiveDateTime":"2022-05-05T00:00:00+00:00","valueCodeableConcept":{"coding":[{"system":"snomed","code":"123456","display":"fake snomed"}]}},"request":{"method":"POST","url":"Observation"}},{"fullUrl":"Observation/1417c309-0bb1-4487-94ac-5bb3d48701a2","resource":{"resourceType":"Observation","id":"1417c309-0bb1-4487-94ac-5bb3d48701a2","status":"final","code":{"coding":[{"system":"http://loinc.org","code":"26464-8"}]},"subject":{"reference":"Patient/30a32513-10bc-4426-977c-6e57a54663b6"},"effectiveDateTime":"2022-12-25T00:00:00+00:00","valueCodeableConcept":{"coding":[{"system":"snomed","code":"123456","display":"fake snomed"}]}},"request":{"method":"POST","url":"Observation"}},{"fullUrl":"Observation/3ba84d22-f049-455f-9738-ebd8f83d6733","resource":{"resourceType":"Observation","id":"3ba84d22-f049-455f-9738-ebd8f83d6733","status":"final","code":{"coding":[{"system":"http://loinc.org","code":"49498-9"}]},"subject":{"reference":"Patient/30a32513-10bc-4426-977c-6e57a54663b6"},"effectiveDateTime":"2022-09-08T00:00:00+00:00"},"request":{"method":"POST","url":"Observation"}},{"fullUrl":"Observation/bb1170e2-b0f9-4cb0-ac93-8235a5348c70","resource":{"resourceType":"Observation","id":"bb1170e2-b0f9-4cb0-ac93-8235a5348c70","status":"final","code":{"coding":[{"system":"http://loinc.org","code":"49498-9"}]},"subject":{"reference":"Patient/30a32513-10bc-4426-977c-6e57a54663b6"},"effectiveDateTime":"2022-03-15T00:00:00+00:00"},"request":{"method":"POST","url":"Observation"}},{"fullUrl":"Observation/5e90bb6f-7cda-4068-9c41-afbf4c1b0a4e","resource":{"resourceType":"Observation","id":"5e90bb6f-7cda-4068-9c41-afbf4c1b0a4e","status":"final","code":{"coding":[{"system":"http://loinc.org","code":"49498-9"}]},"subject":{"reference":"Patient/30a32513-10bc-4426-977c-6e57a54663b6"},"effectiveDateTime":"2022-10-17T00:00:00+00:00"},"request":{"method":"POST","url":"Observation"}},{"fullUrl":"Procedure/b79332bd-3fa3-4a9a-bfc3-1523a06246a5","resource":{"resourceType":"Procedure","id":"b79332bd-3fa3-4a9a-bfc3-1523a06246a5","status":"completed","code":{"coding":[{"system":"http://snomed.info/sct","code":"115006"}]},"subject":{"reference":"Patient/30a32513-10bc-4426-977c-6e57a54663b6"},"performedDateTime":"2022-08-13T00:00:00+00:00"},"request":{"method":"POST","url":"Procedure"}},{"fullUrl":"Procedure/a2cb1ed1-39d8-473f-abb9-80dc3dc62335","resource":{"resourceType":"Procedure","id":"a2cb1ed1-39d8-473f-abb9-80dc3dc62335","status":"completed","code":{"coding":[{"system":"http://snomed.info/sct","code":"146005"}]},"subject":{"reference":"Patient/30a32513-10bc-4426-977c-6e57a54663b6"},"performedDateTime":"2022-09-12T00:00:00+00:00"},"request":{"method":"POST","url":"Procedure"}},{"fullUrl":"Procedure/c4df6ad7-c06a-4c0d-a023-ef5ab120a3b1","resource":{"resourceType":"Procedure","id":"c4df6ad7-c06a-4c0d-a023-ef5ab120a3b1","status":"completed","code":{"coding":[{"system":"http://snomed.info/sct","code":"115006"}]},"subject":{"reference":"Patient/30a32513-10bc-4426-977c-6e57a54663b6"},"performedDateTime":"2022-04-16T00:00:00+00:00"},"request":{"method":"POST","url":"Procedure"}},{"fullUrl":"MedicationStatement/0a76b64e-8f82-4199-818d-e662a23b7a38","resource":{"resourceType":"MedicationStatement","id":"0a76b64e-8f82-4199-818d-e662a23b7a38","status":"completed","medicationCodeableConcept":{"coding":[{"system":"http://www.nlm.nih.gov/research/umls/rxnorm","code":"3640"}]},"subject":{"reference":"Patient/30a32513-10bc-4426-977c-6e57a54663b6"},"effectiveDateTime":"2022-09-14T00:00:00+00:00","dosage":[{"doseAndRate":[{"doseQuantity":{"value":1,"unit":"TAB","system":"http://terminology.hl7.org/CodeSystem/v3-orderableDrugForm","code":"TAB"}}]}]},"request":{"method":"POST","url":"MedicationStatement"}},{"fullUrl":"MedicationStatement/382ad537-ae24-469e-814b-98e06f393792","resource":{"resourceType":"MedicationStatement","id":"382ad537-ae24-469e-814b-98e06f393792","status":"completed","medicationCodeableConcept":{"coding":[{"system":"http://www.nlm.nih.gov/research/umls/rxnorm","code":"7984"}]},"subject":{"reference":"Patient/30a32513-10bc-4426-977c-6e57a54663b6"},"effectiveDateTime":"2022-01-29T00:00:00+00:00","dosage":[{"doseAndRate":[{"doseQuantity":{"value":4.4,"unit":"TAB","system":"http://terminology.hl7.org/CodeSystem/v3-orderableDrugForm","code":"TAB"}}]}]},"request":{"method":"POST","url":"MedicationStatement"}},{"fullUrl":"MedicationStatement/1b6ddd81-8d94-4e98-8dda-2ff396c7524e","resource":{"resourceType":"MedicationStatement","id":"1b6ddd81-8d94-4e98-8dda-2ff396c7524e","status":"completed","medicationCodeableConcept":{"coding":[{"system":"http://www.nlm.nih.gov/research/umls/rxnorm","code":"7984"}]},"subject":{"reference":"Patient/30a32513-10bc-4426-977c-6e57a54663b6"},"effectiveDateTime":"2022-01-17T00:00:00+00:00","dosage":[{"doseAndRate":[{"doseQuantity":{"value":6.6,"unit":"TAB","system":"http://terminology.hl7.org/CodeSystem/v3-orderableDrugForm","code":"TAB"}}]}]},"request":{"method":"POST","url":"MedicationStatement"}},{"fullUrl":"Encounter/1052a3d0-ef15-46ef-84cd-15132469f7f9","resource":{"resourceType":"Encounter","id":"1052a3d0-ef15-46ef-84cd-15132469f7f9","status":"finished","class":{"system":"http://terminology.hl7.org/CodeSystem/v3-ActCode","code":"IMP","display":"inpatient encounter"},"type":[{"coding":[{"system":"http://terminology.hl7.org/CodeSystem/encounter-type","code":"ADMS"}]}],"subject":{"reference":"Patient/30a32513-10bc-4426-977c-6e57a54663b6"},"period":{"start":"2022-07-20T00:00:00+00:00","end":"2022-07-23T00:00:00+00:00"}},"request":{"method":"POST","url":"Encounter"}},{"fullUrl":"Encounter/4e98842e-b702-4669-ab1c-f3251e3d95bb","resource":{"resourceType":"Encounter","id":"4e98842e-b702-4669-ab1c-f3251e3d95bb","status":"finished","class":{"system":"http://terminology.hl7.org/CodeSystem/v3-ActCode","code":"IMP","display":"inpatient encounter"},"type":[{"coding":[{"system":"http://terminology.hl7.org/CodeSystem/encounter-type","code":"CCS60"}]}],"subject":{"reference":"Patient/30a32513-10bc-4426-977c-6e57a54663b6"},"period":{"start":"2022-11-12T00:00:00+00:00","end":"2022-11-21T00:00:00+00:00"}},"request":{"method":"POST","url":"Encounter"}},{"fullUrl":"Encounter/4baf29e3-c485-4b2e-a3ed-19476b89ac65","resource":{"resourceType":"Encounter","id":"4baf29e3-c485-4b2e-a3ed-19476b89ac65","status":"finished","class":{"system":"http://terminology.hl7.org/CodeSystem/v3-ActCode","code":"ACUTE","display":"inpatient acute"},"type":[{"coding":[{"system":"http://terminology.hl7.org/CodeSystem/encounter-type","code":"OKI"}]}],"subject":{"reference":"Patient/30a32513-10bc-4426-977c-6e57a54663b6"},"period":{"start":"2022-06-09T00:00:00+00:00","end":"2022-06-11T00:00:00+00:00"}},"request":{"method":"POST","url":"Encounter"}},{"fullUrl":"Encounter/85888b73-6fe7-4ed0-892b-a3149d8c22d9","resource":{"resourceType":"Encounter","id":"85888b73-6fe7-4ed0-892b-a3149d8c22d9","status":"finished","class":{"system":"http://terminology.hl7.org/CodeSystem/v3-ActCode","code":"FLD","display":"field"},"type":[{"coding":[{"system":"http://terminology.hl7.org/CodeSystem/encounter-type","code":"BD/BM-clin"}]}],"subject":{"reference":"Patient/30a32513-10bc-4426-977c-6e57a54663b6"},"period":{"start":"2022-04-20T00:00:00+00:00","end":"2022-04-21T00:00:00+00:00"}},"request":{"method":"POST","url":"Encounter"}},{"fullUrl":"Location/906a6e77-0fcd-41da-b309-675e93af5e2f","resource":{"resourceType":"Location","id":"906a6e77-0fcd-41da-b309-675e93af5e2f","status":"active","name":"Miller LLC","telecom":[{"system":"phone","value":"+1-035-931-4458x1033","use":"mobile"}],"address":{"use":"work","line":["924 Wheeler Dam Apt. 577"],"city":"Port Shannon","state":"NJ","postalCode":"99835"}},"request":{"method":"POST","url":"Location"}},{"fullUrl":"Observation/8f3c9318-f0d8-4b70-917a-7905c6ba51c3","resource":{"resourceType":"Observation","id":"8f3c9318-f0d8-4b70-917a-7905c6ba51c3","status":"final","code":{"coding":[{"system":"http://loinc.org","code":"81956-5"}]},"subject":{"reference":"Patient/30a32513-10bc-4426-977c-6e57a54663b6"},"effectiveDateTime":"2022-11-15T00:00:00+00:00","valueDateTime":"2022-10-26T00:00:00+00:00"},"request":{"method":"POST","url":"Observation"}},{"fullUrl":"Patient/98f18032-3a70-48b1-93d8-ed517d516b38","resource":{"resourceType":"Patient","id":"98f18032-3a70-48b1-93d8-ed517d516b38","identifier":[{"type":{"coding":[{"system":"http://terminology.hl7.org/CodeSystem/v2-0203","code":"MR"}]},"system":"urn:fhirgen:mrn","value":"680-50-1231"},{"system":"http://hl7.org/fhir/sid/us-ssn","value":"813-51-5442"}],"name":[{"use":"official","family":"Adams","given":["Todd"]},{"use":"maiden","family":"Morrow"}],"telecom":[{"system":"phone","value":"(275)353-3339x84669","use":"mobile"},{"system":"email","value":"amanda04@gmail.com","use":"work"}],"gender":"male","birthDate":"2001-02-19","address":[{"use":"home","line":["6292 Michael Squares"],"city":"North Noah","state":"KS","postalCode":"10893"},{"use":"old","line":["490 Nancy Shore"],"city":"Mcdonaldmouth","state":"IN","postalCode":"11359"}],"maritalStatus":{"coding":[{"system":"http://terminology.hl7.org/CodeSystem/v3-MaritalStatus","code":"L","display":"Legally Separated"}]}},"request":{"method":"POST","url":"Patient"}},{"fullUrl":"Observation/b4c2d0c5-c3c0-4f0e-83b2-85ad3fc626f1","resource":{"resourceType":"Observation","id":"b4c2d0c5-c3c0-4f0e-83b2-85ad3fc626f1","status":"final","code":{"coding":[{"system":"http://loinc.org","code":"34382-2"}]},"subject":{"reference":"Patient/98f18032-3a70-48b1-93d8-ed517d516b38"},"effectiveDateTime":"2022-04-11T00:00:00+00:00","valueRatio":{"numerator":{"value":1},"denominator":{"value":64}}},"request":{"method":"POST","url":"Observation"}},{"fullUrl":"Observation/bad33c0c-ae42-4794-8c61-a50a3412b5d2","resource":{"resourceType":"Observation","id":"bad33c0c-ae42-4794-8c61-a50a3412b5d2","status":"final","code":{"coding":[{"system":"http://loinc.org","code":"34382-2"}]},"subject":{"reference":"Patient/98f18032-3a70-48b1-93d8-ed517d516b38"},"effectiveDateTime":"2022-03-07T00:00:00+00:00","valueRatio":{"numerator":{"value":1},"denominator":{"value":32}}},"request":{"method":"POST","url":"Observation"}},{"fullUrl":"Condition/2e287a64-5f23-4ef0-bfad-75ff683c1ef3","resource":{"resourceType":"Condition","id":"2e287a64-5f23-4ef0-bfad-75ff683c1ef3","code":{"coding":[{"system":"http://snomed.info/sct","code":"198199009"}]},"subject":{"reference":"Patient/98f18032-3a70-48b1-93d8-ed517d516b38"},"onsetDateTime":"2022-08-27T00:00:00+00:00"},"request":{"method":"POST","url":"Condition"}},{"fullUrl":"Condition/411ef4f3-a117-4fdc-b18c-cf2de9a5aef4","resource":{"resourceType":"Condition","id":"411ef4f3-a117-4fdc-b18c-cf2de9a5aef4","code":{"coding":[{"system":"http://snomed.info/sct","code":"736686006"}]},"subject":{"reference":"Patient/98f18032-3a70-48b1-93d8-ed517d516b38"},"onsetDateTime":"2022-09-11T00:00:00+00:00"},"request":{"method":"POST","url":"Condition"}},{"fullUrl":"Condition/14408a1f-3e08-4011-8a2a-b162759d7c3d","resource":{"resourceType":"Condition","id":"14408a1f-3e08-4011-8a2a-b162759d7c3d","code":{"coding":[{"system":"http://snomed.info/sct","code":"736686006"}]},"subject":{"reference":"Patient/98f18032-3a70-48b1-93d8-ed517d516b38"},"onsetDateTime":"2022-05-17T00:00:00+00:00"},"request":{"method":"POST","url":"Condition"}},{"fullUrl":"Condition/e36226de-83f7-47ad-8779-540bbc606daa","resource":{"resourceType":"Condition","id":"e36226de-83f7-47ad-8779-540bbc606daa","code":{"coding":[{"system":"http://snomed.info/sct","code":"56317004"}]},"subject":{"reference":"Patient/98f18032-3a70-48b1-93d8-ed517d516b38"},"onsetDateTime":"2022-09-04T00:00:00+00:00"},"request":{"method":"POST","url":"Condition"}},{"fullUrl":"Condition/04358847-e7ac-455b-9937-92ef45c099f2","resource":{"resourceType":"Condition","id":"04358847-e7ac-455b-9937-92ef45c099f2","code":{"coding":[{"system":"http://snomed.info/sct","code":"30746006"}]},"subject":{"reference":"Patient/98f18032-3a70-48b1-93d8-ed517d516b38"},"onsetDateTime":"2022-08-06T00:00:00+00:00"},"request":{"method":"POST","url":"Condition"}},{"fullUrl":"Condition/7f31d1ab-7a31-4792-8544-147b9f4abed2","resource":{"resourceType":"Condition","id":"7f31d1ab-7a31-4792-8544-147b9f4abed2","code":{"coding":[{"system":"http://snomed.info/sct","code":"71315007"}]},"subject":{"reference":"Patient/98f18032-3a70-48b1-93d8-ed517d516b38"},"onsetDateTime":"2022-08-04T00:00:00+00:00"},"request":{"method":"POST","url":"Condition"}},{"fullUrl":"Condition/af0196ed-2c79-44b4-99db-acbed38f1418","resource":{"resourceType":"Condition","id":"af0196ed-2c79-44b4-99db-acbed38f1418","code":{"coding":[{"system":"http://snomed.info/sct","code":"30746006"}]},"subject":{"reference":"Patient/98f18032-3a70-48b1-93d8-ed517d516b38"},"onsetDateTime":"2022-03-07T00:00:00+00:00"},"request":{"method":"POST","url":"Condition"}},{"fullUrl":"Condition/db901351-6f55-4c87-be97-78759b00eef7","resource":{"resourceType":"Condition","id":"db901351-6f55-4c87-be97-78759b00eef7","code":{"coding":[{"system":"http://snomed.info/sct","code":"405737000"}]},"subject":{"reference":"Patient/98f18032-3a70-48b1-93d8-ed517d516b38"},"onsetDateTime":"2022-11-22T00:00:00+00:00"},"request":{"method":"POST","url":"Condition"}},{"fullUrl":"Observation/e00483a7-6cde-440c-93af-8cef7af5759e","resource":{"resourceType":"Observation","id":"e00483a7-6cde-440c-93af-8cef7af5759e","status":"final","code":{"coding":[{"system":"http://loinc.org","code":"49498-9"}]},"subject":{"reference":"Patient/98f18032-3a70-48b1-93d8-ed517d516b38"},"effectiveDateTime":"2022-05-26T00:00:00+00:00","valueQuantity":{"value":7.8}},"request":{"method":"POST","url":"Observation"}},{"fullUrl":"Observation/1351acbf-9ce5-4e60-9d98-6bdda03a2397","resource":{"resourceType":"Observation","id":"1351acbf-9ce5-4e60-9d98-6bdda03a2397","status":"final","code":{"coding":[{"system":"http://www.ama-assn.org/go/cpt","code":"85048"}]},"subject":{"reference":"Patient/98f18032-3a70-48b1-93d8-ed517d516b38"},"effectiveDateTime":"2022-12-22T00:00:00+00:00","valueQuantity":{"value":8.6}},"request":{"method":"POST","url":"Observation"}},{"fullUrl":"Observation/e4f11367-a05f-4fb7-b85f-670c6983c529","resource":{"resourceType":"Observation","id":"e4f11367-a05f-4fb7-b85f-670c6983c529","status":"final","code":{"coding":[{"system":"http://loinc.org","code":"6690-2"}]},"subject":{"reference":"Patient/98f18032-3a70-48b1-93d8-ed517d516b38"},"effectiveDateTime":"2022-10-18T00:00:00+00:00","valueCodeableConcept":{"coding":[{"system":"snomed","code":"123456","display":"fake snomed"}]}},"request":{"method":"POST","url":"Observation"}},{"fullUrl":"Observation/334423e7-78a9-4fbc-baa7-cf3c0f46618f","resource":{"resourceType":"Observation","id":"334423e7-78a9-4fbc-baa7-cf3c0f46618f","status":"final","code":{"coding":[{"system":"http://loinc.org","code":"49498-9"}]},"subject":{"reference":"Patient/98f18032-3a70-48b1-93d8-ed517d516b38"},"effectiveDateTime":"2022-11-11T00:00:00+00:00","valueCodeableConcept":{"coding":[{"system":"snomed","code":"123456","display":"fake snomed"}]}},"request":{"method":"POST","url":"Observation"}},{"fullUrl":"Observation/d4183508-6284-4815-946a-a803bef65e35","resource":{"resourceType":"Observation","id":"d4183508-6284-4815-946a-a803bef65e35","status":"final","code":{"coding":[{"system":"http://loinc.org","code":"49498-9"}]},"subject":{"reference":"Patient/98f18032-3a70-48b1-93d8-ed517d516b38"},"effectiveDateTime":"2022-05-19T00:00:00+00:00"},"request":{"method":"POST","url":"Observation"}},{"fullUrl":"Observation/34530aa0-2748-4f37-bae8-cb20335a97df","resource":{"resourceType":"Observation","id":"34530aa0-2748-4f37-bae8-cb20335a97df","status":"final","code":{"coding":[{"system":"http://loinc.org","code":"49498-9"}]},"subject":{"reference":"Patient/98f18032-3a70-48b1-93d8-ed517d516b38"},"effectiveDateTime":"2022-08-13T00:00:00+00:00"},"request":{"method":"POST","url":"Observation"}},{"fullUrl":"Procedure/e3ec8bd6-bb25-4ee0-afb4-54cf56f25670","resource":{"resourceType":"Procedure","id":"e3ec8bd6-bb25-4ee0-afb4-54cf56f25670","status":"completed","code":{"coding":[{"system":"http://snomed.info/sct","code":"115006"}]},"subject":{"reference":"Patient/98f18032-3a70-48b1-93d8-ed517d516b38"},"performedDateTime":"2022-08-30T00:00:00+00:00"},"request":{"method":"POST","url":"Procedure"}},{"fullUrl":"Procedure/0c4c9919-73f5-4d51-a842-c9668c166663","resource":{"resourceType":"Procedure","id":"0c4c9919-73f5-4d51-a842-c9668c166663","status":"completed","code":{"coding":[{"system":"http://snomed.info/sct","code":"647000"}]},"subject":{"reference":"Patient/98f18032-3a70-48b1-93d8-ed517d516b38"},"performedDateTime":"2022-06-10T00:00:00+00:00"},"request":{"method":"POST","url":"Procedure"}},{"fullUrl":"Procedure/b9673354-5127-4139-b067-f5d89dd2fede","resource":{"resourceType":"Procedure","id":"b9673354-5127-4139-b067-f5d89dd2fede","status":"completed","code":{"coding":[{"system":"http://snomed.info/sct","code":"115006"}]},"subject":{"reference":"Patient/98f18032-3a70-48b1-93d8-ed517d516b38"},"performedDateTime":"2022-05-30T00:00:00+00:00"},"request":{"method":"POST","url":"Procedure"}},{"fullUrl":"MedicationStatement/418b371c-c656-44c8-99e9-f179e403cf59","resource":{"resourceType":"MedicationStatement","id":"418b371c-c656-44c8-99e9-f179e403cf59","status":"completed","medicationCodeableConcept":{"coding":[{"system":"http://www.nlm.nih.gov/research/umls/rxnorm","code":"8698"}]},"subject":{"reference":"Patient/98f18032-3a70-48b1-93d8-ed517d516b38"},"effectiveDateTime":"2022-05-15T00:00:00+00:00","dosage":[{"doseAndRate":[{"doseQuantity":{"value":1,"unit":"TAB","system":"http://terminology.hl7.org/CodeSystem/v3-orderableDrugForm","code":"TAB"}}]}]},"request":{"method":"POST","url":"MedicationStatement"}},{"fullUrl":"MedicationStatement/a9dfddd3-561b-4140-92c1-00892ba28245","resource":{"resourceType":"MedicationStatement","id":"a9dfddd3-561b-4140-92c1-00892ba28245","status":"completed","medicationCodeableConcept":{"coding":[{"system":"http://www.nlm.nih.gov/research/umls/rxnorm","code":"7984"}]},"subject":{"reference":"Patient/98f18032-3a70-48b1-93d8-ed517d516b38"},"effectiveDateTime":"2022-01-26T00:00:00+00:00","dosage":[{"doseAndRate":[{"doseQuantity":{"value":1,"unit":"TAB","system":"http://terminology.hl7.org/CodeSystem/v3-orderableDrugForm","code":"TAB"}}]}]},"request":{"method":"POST","url":"MedicationStatement"}},{"fullUrl":"MedicationStatement/ae1fc7a6-0215-4f17-bc4b-d5282ce2c2a9","resource":{"resourceType":"MedicationStatement","id":"ae1fc7a6-0215-4f17-bc4b-d5282ce2c2a9","status":"completed","medicationCodeableConcept":{"coding":[{"system":"http://www.nlm.nih.gov/research/umls/rxnorm","code":"8698"}]},"subject":{"reference":"Patient/98f18032-3a70-48b1-93d8-ed517d516b38"},"effectiveDateTime":"2022-09-25T00:00:00+00:00","dosage":[{"doseAndRate":[{"doseQuantity":{"value":1,"unit":"TAB","system":"http://terminology.hl7.org/CodeSystem/v3-orderableDrugForm","code":"TAB"}}]}]},"request":{"method":"POST","url":"MedicationStatement"}},{"fullUrl":"MedicationStatement/b957ec4c-5ab4-4bdd-84c1-5c72b6b490dc","resource":{"resourceType":"MedicationStatement","id":"b957ec4c-5ab4-4bdd-84c1-5c72b6b490dc","status":"completed","medicationCodeableConcept":{"coding":[{"system":"http://www.nlm.nih.gov/research/umls/rxnorm","code":"8698"}]},"subject":{"reference":"Patient/98f18032-3a70-48b1-93d8-ed517d516b38"},"effectiveDateTime":"2022-02-18T00:00:00+00:00","dosage":[{"doseAndRate":[{"doseQuantity":{"value":2,"unit":"TAB","system":"http://terminology.hl7.org/CodeSystem/v3-orderableDrugForm","code":"TAB"}}]}]},"request":{"method":"POST","url":"MedicationStatement"}},{"fullUrl":"MedicationStatement/f4ac7a30-2870-443a-b405-8fabd51b0e8b","resource":{"resourceType":"MedicationStatement","id":"f4ac7a30-2870-443a-b405-8fabd51b0e8b","status":"completed","medicationCodeableConcept":{"coding":[{"system":"http://www.nlm.nih.gov/research/umls/rxnorm","code":"18631"}]},"subject":{"reference":"Patient/98f18032-3a70-48b1-93d8-ed517d516b38"},"effectiveDateTime":"2022-04-01T00:00:00+00:00","dosage":[{"doseAndRate":[{"doseQuantity":{"value":3.6,"unit":"TAB","system":"http://terminology.hl7.org/CodeSystem/v3-orderableDrugForm","code":"TAB"}}]}]},"request":{"method":"POST","url":"MedicationStatement"}},{"fullUrl":"MedicationStatement/caea7b15-61b3-464d-a7e6-cb641f5eedb0","resource":{"resourceType":"MedicationStatement","id":"caea7b15-61b3-464d-a7e6-cb641f5eedb0","status":"completed","medicationCodeableConcept":{"coding":[{"system":"http://www.nlm.nih.gov/research/umls/rxnorm","code":"10395"}]},"subject":{"reference":"Patient/98f18032-3a70-48b1-93d8-ed517d516b38"},"effectiveDateTime":"2022-06-22T00:00:00+00:00","dosage":[{"doseAndRate":[{"doseQuantity":{"value":5.1,"unit":"TAB","system":"http://terminology.hl7.org/CodeSystem/v3-orderableDrugForm","code":"TAB"}}]}]},"request":{"method":"POST","url":"MedicationStatement"}},{"fullUrl":"MedicationStatement/0593d5cd-f36a-4092-a1a2-9bc92679d791","resource":{"resourceType":"MedicationStatement","id":"0593d5cd-f36a-4092-a1a2-9bc92679d791","status":"completed","medicationCodeableConcept":{"coding":[{"system":"http://www.nlm.nih.gov/research/umls/rxnorm","code":"2193"}]},"subject":{"reference":"Patient/98f18032-3a70-48b1-93d8-ed517d516b38"},"effectiveDateTime":"2022-04-14T00:00:00+00:00","dosage":[{"doseAndRate":[{"doseQuantity":{"value":6.1,"unit":"TAB","system":"http://terminology.hl7.org/CodeSystem/v3-orderableDrugForm","code":"TAB"}}]}]},"request":{"method":"POST","url":"MedicationStatement"}},{"fullUrl":"MedicationStatement/5c214ecd-8dab-41a9-b975-942bc6a48637","resource":{"resourceType":"MedicationStatement","id":"5c214ecd-8dab-41a9-b975-942bc6a48637","status":"completed","medicationCodeableConcept":{"coding":[{"system":"http://www.nlm.nih.gov/research/umls/rxnorm","code":"3640"}]},"subject":{"reference":"Patient/98f18032-3a70-48b1-93d8-ed517d516b38"},"effectiveDateTime":"2022-09-20T00:00:00+00:00","dosage":[{"doseAndRate":[{"doseQuantity":{"value":5.3,"unit":"TAB","system":"http://terminology.hl7.org/CodeSystem/v3-orderableDrugForm","code":"TAB"}}]}]},"request":{"method":"POST","url":"MedicationStatement"}},{"fullUrl":"MedicationStatement/7c975563-6e92-464c-976c-67b93e4ef365","resource":{"resourceType":"MedicationStatement","id":"7c975563-6e92-464c-976c-67b93e4ef365","status":"completed","medicationCodeableConcept":{"coding":[{"system":"http://www.nlm.nih.gov/research/umls/rxnorm","code":"8698"}]},"subject":{"reference":"Patient/98f18032-3a70-48b1-93d8-ed517d516b38"},"effectiveDateTime":"2022-11-27T00:00:00+00:00","dosage":[{"doseAndRate":[{"doseQuantity":{"value":6.3,"unit":"TAB","system":"http://terminology.hl7.org/CodeSystem/v3-orderableDrugForm","code":"TAB"}}]}]},"request":{"method":"POST","url":"MedicationStatement"}},{"fullUrl":"MedicationStatement/8267d3d4-dd95-4ccf-897d-015bdc55c82d","resource":{"resourceType":"MedicationStatement","id":"8267d3d4-dd95-4ccf-897d-015bdc55c82d","status":"completed","medicationCodeableConcept":{"coding":[{"system":"http://www.nlm.nih.gov/research/umls/rxnorm","code":"7980"}]},"subject":{"reference":"Patient/98f18032-3a70-48b1-93d8-ed517d516b38"},"effectiveDateTime":"2022-05-12T00:00:00+00:00","dosage":[{"doseAndRate":[{"doseQuantity":{"value":3.7,"unit":"TAB","system":"http://terminology.hl7.org/CodeSystem/v3-orderableDrugForm","code":"TAB"}}]}]},"request":{"method":"POST","url":"MedicationStatement"}},{"fullUrl":"MedicationStatement/e900af47-4692-49c8-955c-eea94054a71c","resource":{"resourceType":"MedicationStatement","id":"e900af47-4692-49c8-955c-eea94054a71c","status":"completed","medicationCodeableConcept":{"coding":[{"system":"http://www.nlm.nih.gov/research/umls/rxnorm","code":"8698"}]},"subject":{"reference":"Patient/98f18032-3a70-48b1-93d8-ed517d516b38"},"effectiveDateTime":"2022-09-20T00:00:00+00:00","dosage":[{"doseAndRate":[{"doseQuantity":{"value":5.5,"unit":"TAB","system":"http://terminology.hl7.org/CodeSystem/v3-orderableDrugForm","code":"TAB"}}]}]},"request":{"method":"POST","url":"MedicationStatement"}},{"fullUrl":"MedicationStatement/47086363-2988-46cc-b839-ce14642448fd","resource":{"resourceType":"MedicationStatement","id":"47086363-2988-46cc-b839-ce14642448fd","status":"completed","medicationCodeableConcept":{"coding":[{"system":"http://www.nlm.nih.gov/research/umls/rxnorm","code":"7980"}]},"subject":{"reference":"Patient/98f18032-3a70-48b1-93d8-ed517d516b38"},"effectiveDateTime":"2022-06-28T00:00:00+00:00","dosage":[{"doseAndRate":[{"doseQuantity":{"value":3.4,"unit":"TAB","system":"http://terminology.hl7.org/CodeSystem/v3-orderableDrugForm","code":"TAB"}}]}]},"request":{"method":"POST","url":"MedicationStatement"}},{"fullUrl":"Encounter/c8687e1a-422f-4d17-957c-bba8415a29ff","resource":{"resourceType":"Encounter","id":"c8687e1a-422f-4d17-957c-bba8415a29ff","status":"finished","class":{"system":"http://terminology.hl7.org/CodeSystem/v3-ActCode","code":"IMP","display":"inpatient encounter"},"type":[{"coding":[{"system":"http://terminology.hl7.org/CodeSystem/encounter-type","code":"OKI"}]}],"subject":{"reference":"Patient/98f18032-3a70-48b1-93d8-ed517d516b38"},"period":{"start":"2022-09-18T00:00:00+00:00","end":"2022-09-24T00:00:00+00:00"}},"request":{"method":"POST","url":"Encounter"}},{"fullUrl":"Encounter/29707eec-962e-48bd-8879-dbd5f6734c67","resource":{"resourceType":"Encounter","id":"29707eec-962e-48bd-8879-dbd5f6734c67","status":"finished","class":{"system":"http://terminology.hl7.org/CodeSystem/v3-ActCode","code":"IMP","display":"inpatient encounter"},"type":[{"coding":[{"system":"http://terminology.hl7.org/CodeSystem/encounter-type","code":"OKI"}]}],"subject":{"reference":"Patient/98f18032-3a70-48b1-93d8-ed517d516b38"},"period":{"start":"2022-05-09T00:00:00+00:00","end":"2022-05-17T00:00:00+00:00"}},"request":{"method":"POST","url":"Encounter"}},{"fullUrl":"Encounter/3cafdc20-819e-48c9-96aa-6ea2f93c009b","resource":{"resourceType":"Encounter","id":"3cafdc20-819e-48c9-96aa-6ea2f93c009b","status":"finished","class":{"system":"http://terminology.hl7.org/CodeSystem/v3-ActCode","code":"IMP","display":"inpatient encounter"},"type":[{"coding":[{"system":"http://terminology.hl7.org/CodeSystem/encounter-type","code":"CCS60"}]}],"subject":{"reference":"Patient/98f18032-3a70-48b1-93d8-ed517d516b38"},"period":{"start":"2022-04-06T00:00:00+00:00","end":"2022-04-13T00:00:00+00:00"}},"request":{"method":"POST","url":"Encounter"}},{"fullUrl":"Encounter/ada7b5a0-e74f-470e-9c48-1862f4599cf7","resource":{"resourceType":"Encounter","id":"ada7b5a0-e74f-470e-9c48-1862f4599cf7","status":"finished","class":{"system":"http://terminology.hl7.org/CodeSystem/v3-ActCode","code":"VR","display":"virtual"},"type":[{"coding":[{"system":"http://terminology.hl7.org/CodeSystem/encounter-type","code":"CCS60"}]}],"subject":{"reference":"Patient/98f18032-3a70-48b1-93d8-ed517d516b38"},"period":{"start":"2022-03-12T00:00:00+00:00","end":"2022-03-12T00:00:00+00:00"}},"request":{"method":"POST","url":"Encounter"}},{"fullUrl":"Encounter/6add2c14-7e34-45d8-b5df-9e815728bdf6","resource":{"resourceType":"Encounter","id":"6add2c14-7e34-45d8-b5df-9e815728bdf6","status":"finished","class":{"system":"http://terminology.hl7.org/CodeSystem/v3-ActCode","code":"ACUTE","display":"inpatient acute"},"type":[{"coding":[{"system":"http://terminology.hl7.org/CodeSystem/encounter-type","code":"CCS60"}]}],"subject":{"reference":"Patient/98f18032-3a70-48b1-93d8-ed517d516b38"},"period":{"start":"2022-07-23T00:00:00+00:00","end":"2022-07-28T00:00:00+00:00"}},"request":{"method":"POST","url":"Encounter"}},{"fullUrl":"Location/0c025d5a-cf65-4b7c-aa96-8eace6ce4911","resource":{"resourceType":"Location","id":"0c025d5a-cf65-4b7c-aa96-8eace6ce4911","status":"active","name":"Walker Inc","telecom":[{"system":"phone","value":"(058)345-7559x287","use":"home"}],"address":{"use":"work","line":["620 Carroll Mall Apt. 874"],"city":"West Thomasfort","state":"AK","postalCode":"77291"}},"request":{"method":"POST","url":"Location"}},{"fullUrl":"Observation/ef7a1dee-5a1e-43bf-9aa5-cbdbc0194ed4","resource":{"resourceType":"Observation","id":"ef7a1dee-5a1e-43bf-9aa5-cbdbc0194ed4","status":"final","code":{"coding":[{"system":"http://loinc.org","code":"81956-5"}]},"subject":{"reference":"Patient/98f18032-3a70-48b1-93d8-ed517d516b38"},"effectiveDateTime":"2022-01-14T00:00:00+00:00","valueDateTime":"2022-01-12T00:00:00+00:00"},"request":{"method":"POST","url":"Observation"}},{"fullUrl":"Patient/83d8ddbe-4aa4-4bbb-9d6b-be5d4d2ca107","resource":{"resourceType":"Patient","id":"83d8ddbe-4aa4-4bbb-9d6b-be5d4d2ca107","identifier":[{"type":{"coding":[{"system":"http://terminology.hl7.org/CodeSystem/v2-0203","code":"MR"}]},"system":"urn:fhirgen:mrn","value":"430-03-2688"},{"system":"http://hl7.org/fhir/sid/us-ssn","value":"829-85-7365"}],"name":[{"use":"official","family":"Black","given":["Chelsea"]},{"use":"maiden","family":"Sims"}],"telecom":[{"system":"phone","value":"575.579.7944x98520","use":"work"},{"system":"email","value":"emily20@hotmail.com","use":"work"}],"gender":"female","birthDate":"1957-03-07","address":[{"use":"home","line":["91045 Hickman Rue"],"city":"Port Reginabury","state":"CT","postalCode":"86188"},{"use":"old","line":["88444 Anderson Mission"],"city":"South Sara","state":"NC","postalCode":"34563"}],"maritalStatus":{"coding":[{"system":"http://terminology.hl7.org/CodeSystem/v3-MaritalStatus","code":"S","display":"Never Married"}]}},"request":{"method":"POST","url":"Patient"}},{"fullUrl":"Observation/5ea200ee-8c16-4a42-b1e2-53c54551d96c","resource":{"resourceType":"Observation","id":"5ea200ee-8c16-4a42-b1e2-53c54551d96c","status":"final","code":{"coding":[{"system":"http://loinc.org","code":"47235-7"}]},"subject":{"reference":"Patient/83d8ddbe-4aa4-4bbb-9d6b-be5d4d2ca107"},"effectiveDateTime":"2022-02-02T00:00:00+00:00","valueRatio":{"numerator":{"value":1},"denominator":{"value":32}}},"request":{"method":"POST","url":"Observation"}},{"fullUrl":"Observation/a902073a-03c9-48c4-96bb-0e036da1412a","resource":{"resourceType":"Observation","id":"a902073a-03c9-48c4-96bb-0e036da1412a","status":"final","code":{"coding":[{"system":"http://loinc.org","code":"31147-2"}]},"subject":{"reference":"Patient/83d8ddbe-4aa4-4bbb-9d6b-be5d4d2ca107"},"effectiveDateTime":"2022-06-03T00:00:00+00:00","valueRatio":{"numerator":{"value":1},"denominator":{"value":32}}},"request":{"method":"POST","url":"Observation"}},{"fullUrl":"Condition/7be1c26d-a971-49ca-80b4-97f5dc9454b8","resource":{"resourceType":"Condition","id":"7be1c26d-a971-49ca-80b4-97f5dc9454b8","code":{"coding":[{"system":"http://snomed.info/sct","code":"709977002"}]},"subject":{"reference":"Patient/83d8ddbe-4aa4-4bbb-9d6b-be5d4d2ca107"},"onsetDateTime":"2022-08-29T00:00:00+00:00"},"request":{"method":"POST","url":"Condition"}},{"fullUrl":"Condition/73dfc7bc-2ca1-49a3-8f99-f3aa8e9378ae","resource":{"resourceType":"Condition","id":"73dfc7bc-2ca1-49a3-8f99-f3aa8e9378ae","code":{"coding":[{"system":"http://snomed.info/sct","code":"3951002"}]},"subject":{"reference":"Patient/83d8ddbe-4aa4-4bbb-9d6b-be5d4d2ca107"},"onsetDateTime":"2022-07-04T00:00:00+00:00"},"request":{"method":"POST","url":"Condition"}},{"fullUrl":"Condition/91557f35-b730-40c0-85d6-ddbecd6a5133","resource":{"resourceType":"Condition","id":"91557f35-b730-40c0-85d6-ddbecd6a5133","code":{"coding":[{"system":"http://snomed.info/sct","code":"297123002"}]},"subject":{"reference":"Patient/83d8ddbe-4aa4-4bbb-9d6b-be5d4d2ca107"},"onsetDateTime":"2022-05-22T00:00:00+00:00"},"request":{"method":"POST","url":"Condition"}},{"fullUrl":"Condition/ba52bee2-f4d8-4287-8f8d-0c45a3989735","resource":{"resourceType":"Condition","id":"ba52bee2-f4d8-4287-8f8d-0c45a3989735","code":{"coding":[{"system":"http://snomed.info/sct","code":"297123002"}]},"subject":{"reference":"Patient/83d8ddbe-4aa4-4bbb-9d6b-be5d4d2ca107"},"onsetDateTime":"2022-06-18T00:00:00+00:00"},"request":{"method":"POST","url":"Condition"}},{"fullUrl":"Condition/e9935f3a-7f45-4426-9f1a-c30943d8118f","resource":{"resourceType":"Condition","id":"e9935f3a-7f45-4426-9f1a-c30943d8118f","code":{"coding":[{"system":"http://snomed.info/sct","code":"3951002"}]},"subject":{"reference":"Patient/83d8ddbe-4aa4-4bbb-9d6b-be5d4d2ca107"},"onsetDateTime":"2022-06-02T00:00:00+00:00"},"request":{"method":"POST","url":"Condition"}},{"fullUrl":"Condition/98f6205b-8fdf-45cb-b4b4-1058bad759fc","resource":{"resourceType":"Condition","id":"98f6205b-8fdf-45cb-b4b4-1058bad759fc","code":{"coding":[{"system":"http://snomed.info/sct","code":"79342006"}]},"subject":{"reference":"Patient/83d8ddbe-4aa4-4bbb-9d6b-be5d4d2ca107"},"onsetDateTime":"2022-03-28T00:00:00+00:00"},"request":{"method":"POST","url":"Condition"}},{"fullUrl":"Observation/6dff99d4-2a29-4605-b712-da72817434a5","resource":{"resourceType":"Observation","id":"6dff99d4-2a29-4605-b712-da72817434a5","status":"final","code":{"coding":[{"system":"http://www.ama-assn.org/go/cpt","code":"85048"}]},"subject":{"reference":"Patient/83d8ddbe-4aa4-4bbb-9d6b-be5d4d2ca107"},"effectiveDateTime":"2022-11-12T00:00:00+00:00","valueQuantity":{"value":7.4}},"request":{"method":"POST","url":"Observation"}},{"fullUrl":"Observation/96328338-516c-4d83-a62e-bfd074ab92cc","resource":{"resourceType":"Observation","id":"96328338-516c-4d83-a62e-bfd074ab92cc","status":"final","code":{"coding":[{"system":"http://www.ama-assn.org/go/cpt","code":"85048"}]},"subject":{"reference":"Patient/83d8ddbe-4aa4-4bbb-9d6b-be5d4d2ca107"},"effectiveDateTime":"2022-04-07T00:00:00+00:00","valueQuantity":{"value":10.7}},"request":{"method":"POST","url":"Observation"}},{"fullUrl":"Observation/ba8e0c57-9348-46f2-9c04-b264086373e2","resource":{"resourceType":"Observation","id":"ba8e0c57-9348-46f2-9c04-b264086373e2","status":"final","code":{"coding":[{"system":"http://loinc.org","code":"6690-2"}]},"subject":{"reference":"Patient/83d8ddbe-4aa4-4bbb-9d6b-be5d4d2ca107"},"effectiveDateTime":"2022-04-08T00:00:00+00:00","valueQuantity":{"value":8.9}},"request":{"method":"POST","url":"Observation"}},{"fullUrl":"Observation/b70d6738-e82a-4e7c-824f-9a408d2caf41","resource":{"resourceType":"Observation","id":"b70d6738-e82a-4e7c-824f-9a408d2caf41","status":"final","code":{"coding":[{"system":"http://www.ama-assn.org/go/cpt","code":"85048"}]},"subject":{"reference":"Patient/83d8ddbe-4aa4-4bbb-9d6b-be5d4d2ca107"},"effectiveDateTime":"2022-02-20T00:00:00+00:00","valueCodeableConcept":{"coding":[{"system":"snomed","code":"123456","display":"fake snomed"}]}},"request":{"method":"POST","url":"Observation"}},{"fullUrl":"Observation/911da642-3467-47bc-bccf-1e4975918c19","resource":{"resourceType":"Observation","id":"911da642-3467-47bc-bccf-1e4975918c19","status":"final","code":{"coding":[{"system":"http://loinc.org","code":"6690-2"}]},"subject":{"reference":"Patient/83d8ddbe-4aa4-4bbb-9d6b-be5d4d2ca107"},"effectiveDateTime":"2022-01-19T00:00:00+00:00","valueCodeableConcept":{"coding":[{"system":"snomed","code":"123456","display":"fake snomed"}]}},"request":{"method":"POST","url":"Observation"}},{"fullUrl":"Observation/bd58d7fd-49ce-4aa9-86f0-d26ee8893b48","resource":{"resourceType":"Observation","id":"bd58d7fd-49ce-4aa9-86f0-d26ee8893b48","status":"final","code":{"coding":[{"system":"http://www.ama-assn.org/go/cpt","code":"85048"}]},"subject":{"reference":"Patient/83d8ddbe-4aa4-4bbb-9d6b-be5d4d2ca107"},"effectiveDateTime":"2022-12-22T00:00:00+00:00","valueCodeableConcept":{"coding":[{"system":"snomed","code":"123456","display":"fake snomed"}]}},"request":{"method":"POST","url":"Observation"}},{"fullUrl":"Observation/a33be255-d954-4712-9b8f-213bcd65f61e","resource":{"resourceType":"Observation","id":"a33be255-d954-4712-9b8f-213bcd65f61e","status":"final","code":{"coding":[{"system":"http://loinc.org","code":"49498-9"}]},"subject":{"reference":"Patient/83d8ddbe-4aa4-4bbb-9d6b-be5d4d2ca107"},"effectiveDateTime":"2022-03-15T00:00:00+00:00"},"request":{"method":"POST","url":"Observation"}},{"fullUrl":"Observation/91cce4a7-6e4d-42cf-acc8-9a85142f7e49","resource":{"resourceType":"Observation","id":"91cce4a7-6e4d-42cf-acc8-9a85142f7e49","status":"final","code":{"coding":[{"system":"http://loinc.org","code":"49498-9"}]},"subject":{"reference":"Patient/83d8ddbe-4aa4-4bbb-9d6b-be5d4d2ca107"},"effectiveDateTime":"2022-04-25T00:00:00+00:00"},"request":{"method":"POST","url":"Observation"}},{"fullUrl":"Observation/9d05bd4b-573c-49cd-a2f0-7ae8a1b44248","resource":{"resourceType":"Observation","id":"9d05bd4b-573c-49cd-a2f0-7ae8a1b44248","status":"final","code":{"coding":[{"system":"http://loinc.org","code":"49498-9"}]},"subject":{"reference":"Patient/83d8ddbe-4aa4-4bbb-9d6b-be5d4d2ca107"},"effectiveDateTime":"2022-05-16T00:00:00+00:00"},"request":{"method":"POST","url":"Observation"}},{"fullUrl":"Procedure/bbdcd766-45b0-4ba4-a259-81785cc63b43","resource":{"resourceType":"Procedure","id":"bbdcd766-45b0-4ba4-a259-81785cc63b43","status":"completed","code":{"coding":[{"system":"http://snomed.info/sct","code":"115006"}]},"subject":{"reference":"Patient/83d8ddbe-4aa4-4bbb-9d6b-be5d4d2ca107"},"performedDateTime":"2022-12-14T00:00:00+00:00"},"request":{"method":"POST","url":"Procedure"}},{"fullUrl":"Procedure/e1897fe5-ad01-4db1-bce5-8eaabb967a1c","resource":{"resourceType":"Procedure","id":"e1897fe5-ad01-4db1-bce5-8eaabb967a1c","status":"completed","code":{"coding":[{"system":"http://snomed.info/sct","code":"115006"}]},"subject":{"reference":"Patient/83d8ddbe-4aa4-4bbb-9d6b-be5d4d2ca107"},"performedDateTime":"2022-07-31T00:00:00+00:00"},"request":{"method":"POST","url":"Procedure"}},{"fullUrl":"Procedure/59b44eb7-74bf-4977-95b8-52c813d10721","resource":{"resourceType":"Procedure","id":"59b44eb7-74bf-4977-95b8-52c813d10721","status":"completed","code":{"coding":[{"system":"http://snomed.info/sct","code":"647000"}]},"subject":{"reference":"Patient/83d8ddbe-4aa4-4bbb-9d6b-be5d4d2ca107"},"performedDateTime":"2022-12-20T00:00:00+00:00"},"request":{"method":"POST","url":"Procedure"}},{"fullUrl":"MedicationStatement/8d8321ca-c708-4204-aa73-fa8873ee914f","resource":{"resourceType":"MedicationStatement","id":"8d8321ca-c708-4204-aa73-fa8873ee914f","status":"completed","medicationCodeableConcept":{"coding":[{"system":"http://www.nlm.nih.gov/research/umls/rxnorm","code":"7984"}]},"subject":{"reference":"Patient/83d8ddbe-4aa4-4bbb-9d6b-be5d4d2ca107"},"effectiveDateTime":"2022-09-28T00:00:00+00:00","dosage":[{"doseAndRate":[{"doseQuantity":{"value":1,"unit":"TAB","system":"http://terminology.hl7.org/CodeSystem/v3-orderableDrugForm","code":"TAB"}}]}]},"request":{"method":"POST","url":"MedicationStatement"}},{"fullUrl":"MedicationStatement/7c47de12-788a-4280-9ea1-1242d5d5ed7e","resource":{"resourceType":"MedicationStatement","id":"7c47de12-788a-4280-9ea1-1242d5d5ed7e","status":"completed","medicationCodeableConcept":{"coding":[{"system":"http://www.nlm.nih.gov/research/umls/rxnorm","code":"2193"}]},"subject":{"reference":"Patient/83d8ddbe-4aa4-4bbb-9d6b-be5d4d2ca107"},"effectiveDateTime":"2022-09-05T00:00:00+00:00","dosage":[{"doseAndRate":[{"doseQuantity":{"value":2,"unit":"TAB","system":"http://terminology.hl7.org/CodeSystem/v3-orderableDrugForm","code":"TAB"}}]}]},"request":{"method":"POST","url":"MedicationStatement"}},{"fullUrl":"MedicationStatement/22bd4370-4b4c-43bc-b69e-b0ed9018f915","resource":{"resourceType":"MedicationStatement","id":"22bd4370-4b4c-43bc-b69e-b0ed9018f915","status":"completed","medicationCodeableConcept":{"coding":[{"system":"http://www.nlm.nih.gov/research/umls/rxnorm","code":"8698"}]},"subject":{"reference":"Patient/83d8ddbe-4aa4-4bbb-9d6b-be5d4d2ca107"},"effectiveDateTime":"2022-03-03T00:00:00+00:00","dosage":[{"doseAndRate":[{"doseQuantity":{"value":2,"unit":"TAB","system":"http://terminology.hl7.org/CodeSystem/v3-orderableDrugForm","code":"TAB"}}]}]},"request":{"method":"POST","url":"MedicationStatement"}},{"fullUrl":"MedicationStatement/14e84be6-620c-4191-8aa9-6595c4d6b0a3","resource":{"resourceType":"MedicationStatement","id":"14e84be6-620c-4191-8aa9-6595c4d6b0a3","status":"completed","medicationCodeableConcept":{"coding":[{"system":"http://www.nlm.nih.gov/research/umls/rxnorm","code":"18631"}]},"subject":{"reference":"Patient/83d8ddbe-4aa4-4bbb-9d6b-be5d4d2ca107"},"effectiveDateTime":"2022-12-06T00:00:00+00:00","dosage":[{"doseAndRate":[{"doseQuantity":{"value":5.8,"unit":"TAB","system":"http://terminology.hl7.org/CodeSystem/v3-orderableDrugForm","code":"TAB"}}]}]},"request":{"method":"POST","url":"MedicationStatement"}},{"fullUrl":"MedicationStatement/227742fa-ea7d-49ea-ac5a-bbe9d71ce2f1","resource":{"resourceType":"MedicationStatement","id":"227742fa-ea7d-49ea-ac5a-bbe9d71ce2f1","status":"completed","medicationCodeableConcept":{"coding":[{"system":"http://www.nlm.nih.gov/research/umls/rxnorm","code":"8698"}]},"subject":{"reference":"Patient/83d8ddbe-4aa4-4bbb-9d6b-be5d4d2ca107"},"effectiveDateTime":"2022-05-21T00:00:00+00:00","dosage":[{"doseAndRate":[{"doseQuantity":{"value":3.1,"unit":"TAB","system":"http://terminology.hl7.org/CodeSystem/v3-orderableDrugForm","code":"TAB"}}]}]},"request":{"method":"POST","url":"MedicationStatement"}},{"fullUrl":"MedicationStatement/c9cc3bcb-96b9-430a-bdfb-25603a9d9c7e","resource":{"resourceType":"MedicationStatement","id":"c9cc3bcb-96b9-430a-bdfb-25603a9d9c7e","status":"completed","medicationCodeableConcept":{"coding":[{"system":"http://www.nlm.nih.gov/research/umls/rxnorm","code":"3640"}]},"subject":{"reference":"Patient/83d8ddbe-4aa4-4bbb-9d6b-be5d4d2ca107"},"effectiveDateTime":"2022-11-17T00:00:00+00:00","dosage":[{"doseAndRate":[{"doseQuantity":{"value":3.9,"unit":"TAB","system":"http://terminology.hl7.org/CodeSystem/v3-orderableDrugForm","code":"TAB"}}]}]},"request":{"method":"POST","url":"MedicationStatement"}},{"fullUrl":"MedicationStatement/348aacc3-d745-4cbb-b24a-79c3a6a2078d","resource":{"resourceType":"MedicationStatement","id":"348aacc3-d745-4cbb-b24a-79c3a6a2078d","status":"completed","medicationCodeableConcept":{"coding":[{"system":"http://www.nlm.nih.gov/research/umls/rxnorm","code":"8698"}]},"subject":{"reference":"Patient/83d8ddbe-4aa4-4bbb-9d6b-be5d4d2ca107"},"effectiveDateTime":"2022-05-29T00:00:00+00:00","dosage":[{"doseAndRate":[{"doseQuantity":{"value":3.5,"unit":"TAB","system":"http://terminology.hl7.org/CodeSystem/v3-orderableDrugForm","code":"TAB"}}]}]},"request":{"method":"POST","url":"MedicationStatement"}},{"fullUrl":"Encounter/b62d7ce8-526a-4921-9908-96823f039069","resource":{"resourceType":"Encounter","id":"b62d7ce8-526a-4921-9908-96823f039069","status":"finished","class":{"system":"http://terminology.hl7.org/CodeSystem/v3-ActCode","code":"IMP","display":"inpatient encounter"},"type":[{"coding":[{"system":"http://terminology.hl7.org/CodeSystem/encounter-type","code":"ADMS"}]}],"subject":{"reference":"Patient/83d8ddbe-4aa4-4bbb-9d6b-be5d4d2ca107"},"period":{"start":"2022-02-06T00:00:00+00:00","end":"2022-02-14T00:00:00+00:00"}},"request":{"method":"POST","url":"Encounter"}},{"fullUrl":"Encounter/61b048c3-1705-496c-a6e4-ce5265c25650","resource":{"resourceType":"Encounter","id":"61b048c3-1705-496c-a6e4-ce5265c25650","status":"finished","class":{"system":"http://terminology.hl7.org/CodeSystem/v3-ActCode","code":"IMP","display":"inpatient encounter"},"type":[{"coding":[{"system":"http://terminology.hl7.org/CodeSystem/encounter-type","code":"BD/BM-clin"}]}],"subject":{"reference":"Patient/83d8ddbe-4aa4-4bbb-9d6b-be5d4d2ca107"},"period":{"start":"2022-07-07T00:00:00+00:00","end":"2022-07-16T00:00:00+00:00"}},"request":{"method":"POST","url":"Encounter"}},{"fullUrl":"Encounter/8925b710-26b9-484c-a9a4-c40ef2a03351","resource":{"resourceType":"Encounter","id":"8925b710-26b9-484c-a9a4-c40ef2a03351","status":"finished","class":{"system":"http://terminology.hl7.org/CodeSystem/v3-ActCode","code":"OBSENC","display":"observation encounter"},"type":[{"coding":[{"system":"http://terminology.hl7.org/CodeSystem/encounter-type","code":"ADMS"}]}],"subject":{"reference":"Patient/83d8ddbe-4aa4-4bbb-9d6b-be5d4d2ca107"},"period":{"start":"2022-09-05T00:00:00+00:00","end":"2022-09-14T00:00:00+00:00"}},"request":{"method":"POST","url":"Encounter"}},{"fullUrl":"Encounter/b5e9e6e1-a33c-4465-b73e-e875bbc0eb57","resource":{"resourceType":"Encounter","id":"b5e9e6e1-a33c-4465-b73e-e875bbc0eb57","status":"finished","class":{"system":"http://terminology.hl7.org/CodeSystem/v3-ActCode","code":"HH","display":"home health"},"type":[{"coding":[{"system":"http://terminology.hl7.org/CodeSystem/encounter-type","code":"OKI"}]}],"subject":{"reference":"Patient/83d8ddbe-4aa4-4bbb-9d6b-be5d4d2ca107"},"period":{"start":"2022-12-18T00:00:00+00:00","end":"2022-12-20T00:00:00+00:00"}},"request":{"method":"POST","url":"Encounter"}},{"fullUrl":"Location/fd20e6b6-d7d9-4734-b069-3eb3177757ef","resource":{"resourceType":"Location","id":"fd20e6b6-d7d9-4734-b069-3eb3177757ef","status":"active","name":"Jones-Webb","telecom":[{"system":"phone","value":"641.702.9365x87725","use":"work"}],"address":{"use":"work","line":["133 Shannon Mount Suite 918"],"city":"Port Linda","state":"GA","postalCode":"53909"}},"request":{"method":"POST","url":"Location"}},{"fullUrl":"Observation/0056e259-d733-4dc5-b116-9504bb743f74","resource":{"resourceType":"Observation","id":"0056e259-d733-4dc5-b116-9504bb743f74","status":"final","code":{"coding":[{"system":"http://loinc.org","code":"81956-5"}]},"subject":{"reference":"Patient/83d8ddbe-4aa4-4bbb-9d6b-be5d4d2ca107"},"effectiveDateTime":"2022-12-24T00:00:00+00:00","valueDateTime":"2022-09-19T00:00:00+00:00"},"request":{"method":"POST","url":"Observation"}},{"fullUrl":"Patient/44c6f97c-29dc-4202-9e33-f647123e1bd0","resource":{"resourceType":"Patient","id":"44c6f97c-29dc-4202-9e33-f647123e1bd0","identifier":[{"type":{"coding":[{"system":"http://terminology.hl7.org/CodeSystem/v2-0203","code":"MR"}]},"system":"urn:fhirgen:mrn","value":"338-66-0642"},{"system":"http://hl7.org/fhir/sid/us-ssn","value":"115-19-9656"}],"name":[{"use":"official","family":"English","given":["Andrea"]},{"use":"maiden","family":"Randolph"}],"telecom":[{"system":"phone","value":"+1-854-233-0985","use":"work"},{"system":"email","value":"scott03@gmail.com","use":"mobile"}],"gender":"female","birthDate":"1990-04-10","address":[{"use":"home","line":["891 Sims Circles Apt. 991"],"city":"Jenniferport","state":"AK","postalCode":"00692"},{"use":"old","line":["81285 Lisa Alley"],"city":"Tashaton","state":"WI","postalCode":"45145"}],"maritalStatus":{"coding":[{"system":"http://terminology.hl7.org/CodeSystem/v3-MaritalStatus","code":"A","display":"Annulled"}]}},"request":{"method":"POST","url":"Patient"}},{"fullUrl":"Observation/88eb383c-f87a-4d8e-9890-ddae00b2d882","resource":{"resourceType":"Observation","id":"88eb383c-f87a-4d8e-9890-ddae00b2d882","status":"final","code":{"coding":[{"system":"http://loinc.org","code":"50690-7"}]},"subject":{"reference":"Patient/44c6f97c-29dc-4202-9e33-f647123e1bd0"},"effectiveDateTime":"2022-02-25T00:00:00+00:00","valueRatio":{"numerator":{"value":1},"denominator":{"value":64}}},"request":{"method":"POST","url":"Observation"}},{"fullUrl":"Observation/4c54ad45-1658-415d-a1ae-549a4f855ade","resource":{"resourceType":"Observation","id":"4c54ad45-1658-415d-a1ae-549a4f855ade","status":"final","code":{"coding":[{"system":"http://loinc.org","code":"31147-2"}]},"subject":{"reference":"Patient/44c6f97c-29dc-4202-9e33-f647123e1bd0"},"effectiveDateTime":"2022-10-28T00:00:00+00:00","valueRatio":{"numerator":{"value":1},"denominator":{"value":4}}},"request":{"method":"POST","url":"Observation"}},{"fullUrl":"Condition/d6c46211-c2d9-437b-a3c0-b4642bca0e9e","resource":{"resourceType":"Condition","id":"d6c46211-c2d9-437b-a3c0-b4642bca0e9e","code":{"coding":[{"system":"http://snomed.info/sct","code":"79342006"}]},"subject":{"reference":"Patient/44c6f97c-29dc-4202-9e33-f647123e1bd0"},"onsetDateTime":"2022-06-28T00:00:00+00:00"},"request":{"method":"POST","url":"Condition"}},{"fullUrl":"Condition/ca1f8fe1-eedf-490b-a327-ea4bd6e6032b","resource":{"resourceType":"Condition","id":"ca1f8fe1-eedf-490b-a327-ea4bd6e6032b","code":{"coding":[{"system":"http://snomed.info/sct","code":"3951002"}]},"subject":{"reference":"Patient/44c6f97c-29dc-4202-9e33-f647123e1bd0"},"onsetDateTime":"2022-07-21T00:00:00+00:00"},"request":{"method":"POST","url":"Condition"}},{"fullUrl":"Condition/d88b8f0f-830d-4ad2-8315-77fa5dba7c93","resource":{"resourceType":"Condition","id":"d88b8f0f-830d-4ad2-8315-77fa5dba7c93","code":{"coding":[{"system":"http://snomed.info/sct","code":"31070006"}]},"subject":{"reference":"Patient/44c6f97c-29dc-4202-9e33-f647123e1bd0"},"onsetDateTime":"2022-03-21T00:00:00+00:00"},"request":{"method":"POST","url":"Condition"}},{"fullUrl":"Condition/4c3d8e38-cd2c-4ea8-a3b8-cb0924552ba7","resource":{"resourceType":"Condition","id":"4c3d8e38-cd2c-4ea8-a3b8-cb0924552ba7","code":{"coding":[{"system":"http://snomed.info/sct","code":"3951002"}]},"subject":{"reference":"Patient/44c6f97c-29dc-4202-9e33-f647123e1bd0"},"onsetDateTime":"2022-10-07T00:00:00+00:00"},"request":{"method":"POST","url":"Condition"}},{"fullUrl":"Observation/2e7a1c3a-f1fd-4457-b88a-699b886160ac","resource":{"resourceType":"Observation","id":"2e7a1c3a-f1fd-4457-b88a-699b886160ac","status":"final","code":{"coding":[{"system":"http://loinc.org","code":"26464-8"}]},"subject":{"reference":"Patient/44c6f97c-29dc-4202-9e33-f647123e1bd0"},"effectiveDateTime":"2022-12-31T00:00:00+00:00","valueQuantity":{"value":8.8}},"request":{"method":"POST","url":"Observation"}},{"fullUrl":"Observation/1606ac0c-1dfc-40ec-8de8-cf96b8d355bf","resource":{"resourceType":"Observation","id":"1606ac0c-1dfc-40ec-8de8-cf96b8d355bf","status":"final","code":{"coding":[{"system":"http://loinc.org","code":"26464-8"}]},"subject":{"reference":"Patient/44c6f97c-29dc-4202-9e33-f647123e1bd0"},"effectiveDateTime":"2022-06-20T00:00:00+00:00","valueQuantity":{"value":7.8}},"request":{"method":"POST","url":"Observation"}},{"fullUrl":"Observation/4913817d-0903-46a4-8551-70afb303042b","resource":{"resourceType":"Observation","id":"4913817d-0903-46a4-8551-70afb303042b","status":"final","code":{"coding":[{"system":"http://loinc.org","code":"804-5"}]},"subject":{"reference":"Patient/44c6f97c-29dc-4202-9e33-f647123e1bd0"},"effectiveDateTime":"2022-05-10T00:00:00+00:00","valueCodeableConcept":{"coding":[{"system":"snomed","code":"123456","display":"fake snomed"}]}},"request":{"method":"POST","url":"Observation"}},{"fullUrl":"Observation/69009073-331b-4727-ad65-ca5b0300b1aa","resource":{"resourceType":"Observation","id":"69009073-331b-4727-ad65-ca5b0300b1aa","status":"final","code":{"coding":[{"system":"http://loinc.org","code":"49498-9"}]},"subject":{"reference":"Patient/44c6f97c-29dc-4202-9e33-f647123e1bd0"},"effectiveDateTime":"2022-11-17T00:00:00+00:00","valueCodeableConcept":{"coding":[{"system":"snomed","code":"123456","display":"fake snomed"}]}},"request":{"method":"POST","url":"Observation"}},{"fullUrl":"Observation/81a7350b-2d59-40fe-bb6d-a37c4542dc51","resource":{"resourceType":"Observation","id":"81a7350b-2d59-40fe-bb6d-a37c4542dc51","status":"final","code":{"coding":[{"system":"http://loinc.org","code":"26464-8"}]},"subject":{"reference":"Patient/44c6f97c-29dc-4202-9e33-f647123e1bd0"},"effectiveDateTime":"2022-04-19T00:00:00+00:00","valueCodeableConcept":{"coding":[{"system":"snomed","code":"123456","display":"fake snomed"}]}},"request":{"method":"POST","url":"Observation"}},{"fullUrl":"Observation/181a99d0-446f-4a08-b6a3-ba85d04c3820","resource":{"resourceType":"Observation","id":"181a99d0-446f-4a08-b6a3-ba85d04c3820","status":"final","code":{"coding":[{"system":"http://loinc.org","code":"49498-9"}]},"subject":{"reference":"Patient/44c6f97c-29dc-4202-9e33-f647123e1bd0"},"effectiveDateTime":"2022-12-23T00:00:00+00:00"},"request":{"method":"POST","url":"Observation"}},{"fullUrl":"Observation/561804c6-2e89-4268-ace4-6ae4d6694a03","resource":{"resourceType":"Observation","id":"561804c6-2e89-4268-ace4-6ae4d6694a03","status":"final","code":{"coding":[{"system":"http://loinc.org","code":"49498-9"}]},"subject":{"reference":"Patient/44c6f97c-29dc-4202-9e33-f647123e1bd0"},"effectiveDateTime":"2022-05-21T00:00:00+00:00"},"request":{"method":"POST","url":"Observation"}},{"fullUrl":"Procedure/a909c10b-5871-4b50-803f-c0803db2bd35","resource":{"resourceType":"Procedure","id":"a909c10b-5871-4b50-803f-c0803db2bd35","status":"completed","code":{"coding":[{"system":"http://snomed.info/sct","code":"146005"}]},"subject":{"reference":"Patient/44c6f97c-29dc-4202-9e33-f647123e1bd0"},"performedDateTime":"2022-07-27T00:00:00+00:00"},"request":{"method":"POST","url":"Procedure"}},{"fullUrl":"Procedure/6dadd9f1-d85f-4c3c-9c09-e29f32579bf4","resource":{"resourceType":"Procedure","id":"6dadd9f1-d85f-4c3c-9c09-e29f32579bf4","status":"completed","code":{"coding":[{"system":"http://snomed.info/sct","code":"146005"}]},"subject":{"reference":"Patient/44c6f97c-29dc-4202-9e33-f647123e1bd0"},"performedDateTime":"2022-08-29T00:00:00+00:00"},"request":{"method":"POST","url":"Procedure"}},{"fullUrl":"Procedure/49bb55f7-905d-460e-9fdf-c8ab06a8838a","resource":{"resourceType":"Procedure","id":"49bb55f7-905d-460e-9fdf-c8ab06a8838a","status":"completed","code":{"coding":[{"system":"http://snomed.info/sct","code":"104001"}]},"subject":{"reference":"Patient/44c6f97c-29dc-4202-9e33-f647123e1bd0"},"performedDateTime":"2022-04-25T00:00:00+00:00"},"request":{"method":"POST","url":"Procedure"}},{"fullUrl":"MedicationStatement/58e990d9-6df2-4e0b-bb7d-200d143aa312","resource":{"resourceType":"MedicationStatement","id":"58e990d9-6df2-4e0b-bb7d-200d143aa312","status":"completed","medicationCodeableConcept":{"coding":[{"system":"http://www.nlm.nih.gov/research/umls/rxnorm","code":"18631"}]},"subject":{"reference":"Patient/44c6f97c-29dc-4202-9e33-f647123e1bd0"},"effectiveDateTime":"2022-10-15T00:00:00+00:00","dosage":[{"doseAndRate":[{"doseQuantity":{"value":1,"unit":"TAB","system":"http://terminology.hl7.org/CodeSystem/v3-orderableDrugForm","code":"TAB"}}]}]},"request":{"method":"POST","url":"MedicationStatement"}},{"fullUrl":"MedicationStatement/d32ac84a-4b26-4556-a13f-bacc6e3359cb","resource":{"resourceType":"MedicationStatement","id":"d32ac84a-4b26-4556-a13f-bacc6e3359cb","status":"completed","medicationCodeableConcept":{"coding":[{"system":"http://www.nlm.nih.gov/research/umls/rxnorm","code":"10395"}]},"subject":{"reference":"Patient/44c6f97c-29dc-4202-9e33-f647123e1bd0"},"effectiveDateTime":"2022-01-31T00:00:00+00:00","dosage":[{"doseAndRate":[{"doseQuantity":{"value":1,"unit":"TAB","system":"http://terminology.hl7.org/CodeSystem/v3-orderableDrugForm","code":"TAB"}}]}]},"request":{"method":"POST","url":"MedicationStatement"}},{"fullUrl":"MedicationStatement/8c1f5ac8-030c-488c-a964-5fead0a17b3b","resource":{"resourceType":"MedicationStatement","id":"8c1f5ac8-030c-488c-a964-5fead0a17b3b","status":"completed","medicationCodeableConcept":{"coding":[{"system":"http://www.nlm.nih.gov/research/umls/rxnorm","code":"18631"}]},"subject":{"reference":"Patient/44c6f97c-29dc-4202-9e33-f647123e1bd0"},"effectiveDateTime":"2022-10-27T00:00:00+00:00","dosage":[{"doseAndRate":[{"doseQuantity":{"value":1,"unit":"TAB","system":"http://terminology.hl7.org/CodeSystem/v3-orderableDrugForm","code":"TAB"}}]}]},"request":{"method":"POST","url":"MedicationStatement"}},{"fullUrl":"MedicationStatement/0d33d2b4-06d7-4ca0-ab1b-18bea92139e4","resource":{"resourceType":"MedicationStatement","id":"0d33d2b4-06d7-4ca0-ab1b-18bea92139e4","status":"completed","medicationCodeableConcept":{"coding":[{"system":"http://www.nlm.nih.gov/research/umls/rxnorm","code":"10395"}]},"subject":{"reference":"Patient/44c6f97c-29dc-4202-9e33-f647123e1bd0"},"effectiveDateTime":"2022-02-17T00:00:00+00:00","dosage":[{"doseAndRate":[{"doseQuantity":{"value":1,"unit":"TAB","system":"http://terminology.hl7.org/CodeSystem/v3-orderableDrugForm","code":"TAB"}}]}]},"request":{"method":"POST","url":"MedicationStatement"}},{"fullUrl":"MedicationStatement/fe3b12b3-3a51-46bc-8e62-5ef3715ad82b","resource":{"resourceType":"MedicationStatement","id":"fe3b12b3-3a51-46bc-8e62-5ef3715ad82b","status":"completed","medicationCodeableConcept":{"coding":[{"system":"http://www.nlm.nih.gov/research/umls/rxnorm","code":"18631"}]},"subject":{"reference":"Patient/44c6f97c-29dc-4202-9e33-f647123e1bd0"},"effectiveDateTime":"2022-01-27T00:00:00+00:00","dosage":[{"doseAndRate":[{"doseQuantity":{"value":3,"unit":"TAB","system":"http://terminology.hl7.org/CodeSystem/v3-orderableDrugForm","code":"TAB"}}]}]},"request":{"method":"POST","url":"MedicationStatement"}},{"fullUrl":"MedicationStatement/804c8716-7ecc-44a8-843d-be58947b7c85","resource":{"resourceType":"MedicationStatement","id":"804c8716-7ecc-44a8-843d-be58947b7c85","status":"completed","medicationCodeableConcept":{"coding":[{"system":"http://www.nlm.nih.gov/research/umls/rxnorm","code":"7984"}]},"subject":{"reference":"Patient/44c6f97c-29dc-4202-9e33-f647123e1bd0"},"effectiveDateTime":"2022-01-23T00:00:00+00:00","dosage":[{"doseAndRate":[{"doseQuantity":{"value":5.2,"unit":"TAB","system":"http://terminology.hl7.org/CodeSystem/v3-orderableDrugForm","code":"TAB"}}]}]},"request":{"method":"POST","url":"MedicationStatement"}},{"fullUrl":"MedicationStatement/c1032fe0-8d97-48d9-94c3-5cf792e6987d","resource":{"resourceType":"MedicationStatement","id":"c1032fe0-8d97-48d9-94c3-5cf792e6987d","status":"completed","medicationCodeableConcept":{"coding":[{"system":"http://www.nlm.nih.gov/research/umls/rxnorm","code":"3640"}]},"subject":{"reference":"Patient/44c6f97c-29dc-4202-9e33-f647123e1bd0"},"effectiveDateTime":"2022-08-27T00:00:00+00:00","dosage":[{"doseAndRate":[{"doseQuantity":{"value":5.3,"unit":"TAB","system":"http://terminology.hl7.org/CodeSystem/v3-orderableDrugForm","code":"TAB"}}]}]},"request":{"method":"POST","url":"MedicationStatement"}},{"fullUrl":"MedicationStatement/ca856e3f-1c6b-4cde-bf56-66dac32b74aa","resource":{"resourceType":"MedicationStatement","id":"ca856e3f-1c6b-4cde-bf56-66dac32b74aa","status":"completed","medicationCodeableConcept":{"coding":[{"system":"http://www.nlm.nih.gov/research/umls/rxnorm","code":"7980"}]},"subject":{"reference":"Patient/44c6f97c-29dc-4202-9e33-f647123e1bd0"},"effectiveDateTime":"2022-02-09T00:00:00+00:00","dosage":[{"doseAndRate":[{"doseQuantity":{"value":3.6,"unit":"TAB","system":"http://terminology.hl7.org/CodeSystem/v3-orderableDrugForm","code":"TAB"}}]}]},"request":{"method":"POST","url":"MedicationStatement"}},{"fullUrl":"MedicationStatement/1be96161-eb11-4e73-b00b-688feb79c300","resource":{"resourceType":"MedicationStatement","id":"1be96161-eb11-4e73-b00b-688feb79c300","status":"completed","medicationCodeableConcept":{"coding":[{"system":"http://www.nlm.nih.gov/research/umls/rxnorm","code":"10395"}]},"subject":{"reference":"Patient/44c6f97c-29dc-4202-9e33-f647123e1bd0"},"effectiveDateTime":"2022-04-06T00:00:00+00:00","dosage":[{"doseAndRate":[{"doseQuantity":{"value":3.6,"unit":"TAB","system":"http://terminology.hl7.org/CodeSystem/v3-orderableDrugForm","code":"TAB"}}]}]},"request":{"method":"POST","url":"MedicationStatement"}},{"fullUrl":"MedicationStatement/32364479-ec12-4ac2-ad47-00b8015f9c4a","resource":{"resourceType":"MedicationStatement","id":"32364479-ec12-4ac2-ad47-00b8015f9c4a","status":"completed","medicationCodeableConcept":{"coding":[{"system":"http://www.nlm.nih.gov/research/umls/rxnorm","code":"3640"}]},"subject":{"reference":"Patient/44c6f97c-29dc-4202-9e33-f647123e1bd0"},"effectiveDateTime":"2022-05-15T00:00:00+00:00","dosage":[{"doseAndRate":[{"doseQuantity":{"value":5.1,"unit":"TAB","system":"http://terminology.hl7.org/CodeSystem/v3-orderableDrugForm","code":"TAB"}}]}]},"request":{"method":"POST","url":"MedicationStatement"}},{"fullUrl":"Encounter/438b4c6a-6f96-4214-84e4-20b6863ebcd9","resource":{"resourceType":"Encounter","id":"438b4c6a-6f96-4214-84e4-20b6863ebcd9","status":"finished","class":{"system":"http://terminology.hl7.org/CodeSystem/v3-ActCode","code":"IMP","display":"inpatient encounter"},"type":[{"coding":[{"system":"http://terminology.hl7.org/CodeSystem/encounter-type","code":"CCS60"}]}],"subject":{"reference":"Patient/44c6f97c-29dc-4202-9e33-f647123e1bd0"},"period":{"start":"2022-01-27T00:00:00+00:00","end":"2022-02-04T00:00:00+00:00"}},"request":{"method":"POST","url":"Encounter"}},{"fullUrl":"Encounter/e98aa248-5e82-4d48-8c4c-dbc95b1c7ce0","resource":{"resourceType":"Encounter","id":"e98aa248-5e82-4d48-8c4c-dbc95b1c7ce0","status":"finished","class":{"system":"http://terminology.hl7.org/CodeSystem/v3-ActCode","code":"IMP","display":"inpatient encounter"},"type":[{"coding":[{"system":"http://terminology.hl7.org/CodeSystem/encounter-type","code":"BD/BM-clin"}]}],"subject":{"reference":"Patient/44c6f97c-29dc-4202-9e33-f647123e1bd0"},"period":{"start":"2022-02-08T00:00:00+00:00","end":"2022-02-08T00:00:00+00:00"}},"request":{"method":"POST","url":"Encounter"}},{"fullUrl":"Encounter/c8016204-6cc7-40ba-93e3-7260dd474bba","resource":{"resourceType":"Encounter","id":"c8016204-6cc7-40ba-93e3-7260dd474bba","status":"finished","class":{"system":"http://terminology.hl7.org/CodeSystem/v3-ActCode","code":"IMP","display":"inpatient encounter"},"type":[{"coding":[{"system":"http://terminology.hl7.org/CodeSystem/encounter-type","code":"BD/BM-clin"}]}],"subject":{"reference":"Patient/44c6f97c-29dc-4202-9e33-f647123e1bd0"},"period":{"start":"2022-12-24T00:00:00+00:00","end":"2022-12-24T00:00:00+00:00"}},"request":{"method":"POST","url":"Encounter"}},{"fullUrl":"Encounter/044ebbd4-b3b7-4b7d-a2b7-de054368ff7f","resource":{"resourceType":"Encounter","id":"044ebbd4-b3b7-4b7d-a2b7-de054368ff7f","status":"finished","class":{"system":"http://terminology.hl7.org/CodeSystem/v3-ActCode","code":"HH","display":"home health"},"type":[{"coding":[{"system":"http://terminology.hl7.org/CodeSystem/encounter-type","code":"BD/BM-clin"}]}],"subject":{"reference":"Patient/44c6f97c-29dc-4202-9e33-f647123e1bd0"},"period":{"start":"2022-02-01T00:00:00+00:00","end":"2022-02-01T00:00:00+00:00"}},"request":{"method":"POST","url":"Encounter"}},{"fullUrl":"Encounter/75b8450f-cbd5-4320-a4bf-6b9c55c037e9","resource":{"resourceType":"Encounter","id":"75b8450f-cbd5-4320-a4bf-6b9c55c037e9","status":"finished","class":{"system":"http://terminology.hl7.org/CodeSystem/v3-ActCode","code":"IMP","display":"inpatient encounter"},"type":[{"coding":[{"system":"http://terminology.hl7.org/CodeSystem/encounter-type","code":"CCS60"}]}],"subject":{"reference":"Patient/44c6f97c-29dc-4202-9e33-f647123e1bd0"},"period":{"start":"2022-03-14T00:00:00+00:00","end":"2022-03-22T00:00:00+00:00"}},"request":{"method":"POST","url":"Encounter"}},{"fullUrl":"Encounter/f89f3e92-392f-4c10-860d-e3f0dfeeb871","resource":{"resourceType":"Encounter","id":"f89f3e92-392f-4c10-860d-e3f0dfeeb871","status":"finished","class":{"system":"http://terminology.hl7.org/CodeSystem/v3-ActCode","code":"AMB","display":"ambulatory"},"type":[{"coding":[{"system":"http://terminology.hl7.org/CodeSystem/encounter-type","code":"ADMS"}]}],"subject":{"reference":"Patient/44c6f97c-29dc-4202-9e33-f647123e1bd0"},"period":{"start":"2022-07-04T00:00:00+00:00","end":"2022-07-13T00:00:00+00:00"}},"request":{"method":"POST","url":"Encounter"}},{"fullUrl":"Location/083b4bd7-8eb3-4175-9559-7c9bb106df72","resource":{"resourceType":"Location","id":"083b4bd7-8eb3-4175-9559-7c9bb106df72","status":"active","name":"Torres, Mendez and Washington","telecom":[{"system":"phone","value":"183-705-5699x60912","use":"mobile"}],"address":{"use":"work","line":["8398 Blake Trace Suite 684"],"city":"Fisherport","state":"CO","postalCode":"84334"}},"request":{"method":"POST","url":"Location"}},{"fullUrl":"Observation/4810fea7-dc49-40b5-b699-a5846c886bc3","resource":{"resourceType":"Observation","id":"4810fea7-dc49-40b5-b699-a5846c886bc3","status":"final","code":{"coding":[{"system":"http://loinc.org","code":"81956-5"}]},"subject":{"reference":"Patient/44c6f97c-29dc-4202-9e33-f647123e1bd0"},"effectiveDateTime":"2022-06-16T00:00:00+00:00","valueDateTime":"2022-06-07T00:00:00+00:00"},"request":{"method":"POST","url":"Observation"}},{"fullUrl":"Patient/ac6e7707-6039-481a-9b72-60a4f98ed969","resource":{"resourceType":"Patient","id":"ac6e7707-6039-481a-9b72-60a4f98ed969","identifier":[{"type":{"coding":[{"system":"http://terminology.hl7.org/CodeSystem/v2-0203","code":"MR"}]},"system":"urn:fhirgen:mrn","value":"115-53-2181"},{"system":"http://hl7.org/fhir/sid/us-ssn","value":"503-50-4174"}],"name":[{"use":"official","family":"Mitchell","given":["Paul"]},{"use":"maiden","family":"Nelson"}],"telecom":[{"system":"phone","value":"449-985-4687x8542","use":"home"},{"system":"email","value":"amandabailey@hotmail.com","use":"work"}],"gender":"other","birthDate":"1989-04-17","address":[{"use":"home","line":["739 Morgan Station Apt. 032"],"city":"Port Daniel","state":"KY","postalCode":"62918"},{"use":"old","line":["3774 Joseph Isle"],"city":"Hillfurt","state":"HI","postalCode":"85913"}],"maritalStatus":{"coding":[{"system":"http://terminology.hl7.org/CodeSystem/v3-MaritalStatus","code":"S","display":"Never Married"}]}},"request":{"method":"POST","url":"Patient"}},{"fullUrl":"Observation/adfdf4d6-f0fc-488b-99d2-b4637aa3b622","resource":{"resourceType":"Observation","id":"adfdf4d6-f0fc-488b-99d2-b4637aa3b622","status":"final","code":{"coding":[{"system":"http://loinc.org","code":"11084-1"}]},"subject":{"reference":"Patient/ac6e7707-6039-481a-9b72-60a4f98ed969"},"effectiveDateTime":"2022-12-24T00:00:00+00:00","valueRatio":{"numerator":{"value":1},"denominator":{"value":4}}},"request":{"method":"POST","url":"Observation"}},{"fullUrl":"Observation/4a462e97-e760-4e2a-a70e-881b2a29ac85","resource":{"resourceType":"Observation","id":"4a462e97-e760-4e2a-a70e-881b2a29ac85","status":"final","code":{"coding":[{"system":"http://loinc.org","code":"34382-2"}]},"subject":{"reference":"Patient/ac6e7707-6039-481a-9b72-60a4f98ed969"},"effectiveDateTime":"2022-11-19T00:00:00+00:00","valueRatio":{"numerator":{"value":1},"denominator":{"value":32}}},"request":{"method":"POST","url":"Observation"}},{"fullUrl":"Condition/05891f9e-996b-449a-af57-abf3a68e0ab0","resource":{"resourceType":"Condition","id":"05891f9e-996b-449a-af57-abf3a68e0ab0","code":{"coding":[{"system":"http://snomed.info/sct","code":"18165001"}]},"subject":{"reference":"Patient/ac6e7707-6039-481a-9b72-60a4f98ed969"},"onsetDateTime":"2022-11-25T00:00:00+00:00"},"request":{"method":"POST","url":"Condition"}},{"fullUrl":"Condition/68b70ccd-f27e-4919-a1cb-57cfe748496d","resource":{"resourceType":"Condition","id":"68b70ccd-f27e-4919-a1cb-57cfe748496d","code":{"coding":[{"system":"http://snomed.info/sct","code":"709977002"}]},"subject":{"reference":"Patient/ac6e7707-6039-481a-9b72-60a4f98ed969"},"onsetDateTime":"2022-04-06T00:00:00+00:00"},"request":{"method":"POST","url":"Condition"}},{"fullUrl":"Condition/1f5d3eb5-5d7f-4784-8e9e-41d700d5bda9","resource":{"resourceType":"Condition","id":"1f5d3eb5-5d7f-4784-8e9e-41d700d5bda9","code":{"coding":[{"system":"http://snomed.info/sct","code":"709977002"}]},"subject":{"reference":"Patient/ac6e7707-6039-481a-9b72-60a4f98ed969"},"onsetDateTime":"2022-10-08T00:00:00+00:00"},"request":{"method":"POST","url":"Condition"}},{"fullUrl":"Condition/5d291049-6b9b-4090-b39e-791267d448bd","resource":{"resourceType":"Condition","id":"5d291049-6b9b-4090-b39e-791267d448bd","code":{"coding":[{"system":"http://snomed.info/sct","code":"405737000"}]},"subject":{"reference":"Patient/ac6e7707-6039-481a-9b72-60a4f98ed969"},"onsetDateTime":"2022-05-15T00:00:00+00:00"},"request":{"method":"POST","url":"Condition"}},{"fullUrl":"Condition/ba21b415-458e-41ce-aa83-156c0a993d08","resource":{"resourceType":"Condition","id":"ba21b415-458e-41ce-aa83-156c0a993d08","code":{"coding":[{"system":"http://snomed.info/sct","code":"248980004"}]},"subject":{"reference":"Patient/ac6e7707-6039-481a-9b72-60a4f98ed969"},"onsetDateTime":"2022-01-31T00:00:00+00:00"},"request":{"method":"POST","url":"Condition"}},{"fullUrl":"Condition/28e333b6-6e6d-4372-8615-8fc60c45ad78","resource":{"resourceType":"Condition","id":"28e333b6-6e6d-4372-8615-8fc60c45ad78","code":{"coding":[{"system":"http://snomed.info/sct","code":"71315007"}]},"subject":{"reference":"Patient/ac6e7707-6039-481a-9b72-60a4f98ed969"},"onsetDateTime":"2022-06-07T00:00:00+00:00"},"request":{"method":"POST","url":"Condition"}},{"fullUrl":"Observation/b03400be-08c1-4b55-9d1f-d6eafe98be63","resource":{"resourceType":"Observation","id":"b03400be-08c1-4b55-9d1f-d6eafe98be63","status":"final","code":{"coding":[{"system":"http://loinc.org","code":"26464-8"}]},"subject":{"reference":"Patient/ac6e7707-6039-481a-9b72-60a4f98ed969"},"effectiveDateTime":"2022-08-13T00:00:00+00:00","valueQuantity":{"value":5.5}},"request":{"method":"POST","url":"Observation"}},{"fullUrl":"Observation/fbe16ecb-8c7e-4539-a2bc-5b6af700c524","resource":{"resourceType":"Observation","id":"fbe16ecb-8c7e-4539-a2bc-5b6af700c524","status":"final","code":{"coding":[{"system":"http://loinc.org","code":"804-5"}]},"subject":{"reference":"Patient/ac6e7707-6039-481a-9b72-60a4f98ed969"},"effectiveDateTime":"2022-12-30T00:00:00+00:00","valueQuantity":{"value":5}},"request":{"method":"POST","url":"Observation"}},{"fullUrl":"Observation/b825be14-8e60-4354-937c-94f01cb71602","resource":{"resourceType":"Observation","id":"b825be14-8e60-4354-937c-94f01cb71602","status":"final","code":{"coding":[{"system":"http://loinc.org","code":"804-5"}]},"subject":{"reference":"Patient/ac6e7707-6039-481a-9b72-60a4f98ed969"},"effectiveDateTime":"2022-01-15T00:00:00+00:00","valueQuantity":{"value":6.1}},"request":{"method":"POST","url":"Observation"}},{"fullUrl":"Observation/74ce43b6-a6e6-4194-b6e4-007455ee85c9","resource":{"resourceType":"Observation","id":"74ce43b6-a6e6-4194-b6e4-007455ee85c9","status":"final","code":{"coding":[{"system":"http://loinc.org","code":"49498-9"}]},"subject":{"reference":"Patient/ac6e7707-6039-481a-9b72-60a4f98ed969"},"effectiveDateTime":"2022-01-22T00:00:00+00:00","valueCodeableConcept":{"coding":[{"system":"snomed","code":"123456","display":"fake snomed"}]}},"request":{"method":"POST","url":"Observation"}},{"fullUrl":"Observation/b13e9f72-422d-4598-aa0e-068446e7d560","resource":{"resourceType":"Observation","id":"b13e9f72-422d-4598-aa0e-068446e7d560","status":"final","code":{"coding":[{"system":"http://loinc.org","code":"49498-9"}]},"subject":{"reference":"Patient/ac6e7707-6039-481a-9b72-60a4f98ed969"},"effectiveDateTime":"2022-01-21T00:00:00+00:00","valueCodeableConcept":{"coding":[{"system":"snomed","code":"123456","display":"fake snomed"}]}},"request":{"method":"POST","url":"Observation"}},{"fullUrl":"Observation/5683f2cc-b257-4769-a285-9bc3dde65c6d","resource":{"resourceType":"Observation","id":"5683f2cc-b257-4769-a285-9bc3dde65c6d","status":"final","code":{"coding":[{"system":"http://loinc.org","code":"26464-8"}]},"subject":{"reference":"Patient/ac6e7707-6039-481a-9b72-60a4f98ed969"},"effectiveDateTime":"2022-03-19T00:00:00+00:00","valueCodeableConcept":{"coding":[{"system":"snomed","code":"123456","display":"fake snomed"}]}},"request":{"method":"POST","url":"Observation"}},{"fullUrl":"Observation/c1884266-0df7-443d-9c4b-80cff802bda1","resource":{"resourceType":"Observation","id":"c1884266-0df7-443d-9c4b-80cff802bda1","status":"final","code":{"coding":[{"system":"http://loinc.org","code":"49498-9"}]},"subject":{"reference":"Patient/ac6e7707-6039-481a-9b72-60a4f98ed969"},"effectiveDateTime":"2022-05-03T00:00:00+00:00"},"request":{"method":"POST","url":"Observation"}},{"fullUrl":"Observation/7cd3e067-6f48-4b7a-a164-3416f7a92314","resource":{"resourceType":"Observation","id":"7cd3e067-6f48-4b7a-a164-3416f7a92314","status":"final","code":{"coding":[{"system":"http://loinc.org","code":"49498-9"}]},"subject":{"reference":"Patient/ac6e7707-6039-481a-9b72-60a4f98ed969"},"effectiveDateTime":"2022-01-25T00:00:00+00:00"},"request":{"method":"POST","url":"Observation"}},{"fullUrl":"Procedure/9e8c2f92-8a00-4287-a19d-5fa43522b5dc","resource":{"resourceType":"Procedure","id":"9e8c2f92-8a00-4287-a19d-5fa43522b5dc","status":"completed","code":{"coding":[{"system":"http://snomed.info/sct","code":"647000"}]},"subject":{"reference":"Patient/ac6e7707-6039-481a-9b72-60a4f98ed969"},"performedDateTime":"2022-04-21T00:00:00+00:00"},"request":{"method":"POST","url":"Procedure"}},{"fullUrl":"Procedure/2f1ad0e4-890c-4017-86ef-ddc9fcad0f69","resource":{"resourceType":"Procedure","id":"2f1ad0e4-890c-4017-86ef-ddc9fcad0f69","status":"completed","code":{"coding":[{"system":"http://snomed.info/sct","code":"115006"}]},"subject":{"reference":"Patient/ac6e7707-6039-481a-9b72-60a4f98ed969"},"performedDateTime":"2022-07-24T00:00:00+00:00"},"request":{"method":"POST","url":"Procedure"}},{"fullUrl":"Procedure/16bc2fe0-27ba-4c42-be05-3b2b2384fb54","resource":{"resourceType":"Procedure","id":"16bc2fe0-27ba-4c42-be05-3b2b2384fb54","status":"completed","code":{"coding":[{"system":"http://snomed.info/sct","code":"647000"}]},"subject":{"reference":"Patient/ac6e7707-6039-481a-9b72-60a4f98ed969"},"performedDateTime":"2022-10-29T00:00:00+00:00"},"request":{"method":"POST","url":"Procedure"}},{"fullUrl":"MedicationStatement/0fee13ee-0c50-4922-9e31-43d2d595a6c9","resource":{"resourceType":"MedicationStatement","id":"0fee13ee-0c50-4922-9e31-43d2d595a6c9","status":"completed","medicationCodeableConcept":{"coding":[{"system":"http://www.nlm.nih.gov/research/umls/rxnorm","code":"2193"}]},"subject":{"reference":"Patient/ac6e7707-6039-481a-9b72-60a4f98ed969"},"effectiveDateTime":"2022-07-29T00:00:00+00:00","dosage":[{"doseAndRate":[{"doseQuantity":{"value":2,"unit":"TAB","system":"http://terminology.hl7.org/CodeSystem/v3-orderableDrugForm","code":"TAB"}}]}]},"request":{"method":"POST","url":"MedicationStatement"}},{"fullUrl":"MedicationStatement/c080daf4-344b-4db7-84af-8f9f9655c8fb","resource":{"resourceType":"MedicationStatement","id":"c080daf4-344b-4db7-84af-8f9f9655c8fb","status":"completed","medicationCodeableConcept":{"coding":[{"system":"http://www.nlm.nih.gov/research/umls/rxnorm","code":"8698"}]},"subject":{"reference":"Patient/ac6e7707-6039-481a-9b72-60a4f98ed969"},"effectiveDateTime":"2022-04-27T00:00:00+00:00","dosage":[{"doseAndRate":[{"doseQuantity":{"value":2,"unit":"TAB","system":"http://terminology.hl7.org/CodeSystem/v3-orderableDrugForm","code":"TAB"}}]}]},"request":{"method":"POST","url":"MedicationStatement"}},{"fullUrl":"MedicationStatement/3094bde8-5602-4aa1-8a18-587b0851ea4c","resource":{"resourceType":"MedicationStatement","id":"3094bde8-5602-4aa1-8a18-587b0851ea4c","status":"completed","medicationCodeableConcept":{"coding":[{"system":"http://www.nlm.nih.gov/research/umls/rxnorm","code":"10395"}]},"subject":{"reference":"Patient/ac6e7707-6039-481a-9b72-60a4f98ed969"},"effectiveDateTime":"2022-03-13T00:00:00+00:00","dosage":[{"doseAndRate":[{"doseQuantity":{"value":1,"unit":"TAB","system":"http://terminology.hl7.org/CodeSystem/v3-orderableDrugForm","code":"TAB"}}]}]},"request":{"method":"POST","url":"MedicationStatement"}},{"fullUrl":"MedicationStatement/d6fc656d-b63b-4b23-8af2-cb075685294b","resource":{"resourceType":"MedicationStatement","id":"d6fc656d-b63b-4b23-8af2-cb075685294b","status":"completed","medicationCodeableConcept":{"coding":[{"system":"http://www.nlm.nih.gov/research/umls/rxnorm","code":"10395"}]},"subject":{"reference":"Patient/ac6e7707-6039-481a-9b72-60a4f98ed969"},"effectiveDateTime":"2022-11-17T00:00:00+00:00","dosage":[{"doseAndRate":[{"doseQuantity":{"value":5.7,"unit":"TAB","system":"http://terminology.hl7.org/CodeSystem/v3-orderableDrugForm","code":"TAB"}}]}]},"request":{"method":"POST","url":"MedicationStatement"}},{"fullUrl":"MedicationStatement/e4a1bcd6-f58f-414b-8e5b-e7bcdf5adbcb","resource":{"resourceType":"MedicationStatement","id":"e4a1bcd6-f58f-414b-8e5b-e7bcdf5adbcb","status":"completed","medicationCodeableConcept":{"coding":[{"system":"http://www.nlm.nih.gov/research/umls/rxnorm","code":"7984"}]},"subject":{"reference":"Patient/ac6e7707-6039-481a-9b72-60a4f98ed969"},"effectiveDateTime":"2022-07-26T00:00:00+00:00","dosage":[{"doseAndRate":[{"doseQuantity":{"value":6,"unit":"TAB","system":"http://terminology.hl7.org/CodeSystem/v3-orderableDrugForm","code":"TAB"}}]}]},"request":{"method":"POST","url":"MedicationStatement"}},{"fullUrl":"Encounter/cabd320e-e915-4cc3-90fe-abe2adc8694e","resource":{"resourceType":"Encounter","id":"cabd320e-e915-4cc3-90fe-abe2adc8694e","status":"finished","class":{"system":"http://terminology.hl7.org/CodeSystem/v3-ActCode","code":"IMP","display":"inpatient encounter"},"type":[{"coding":[{"system":"http://terminology.hl7.org/CodeSystem/encounter-type","code":"BD/BM-clin"}]}],"subject":{"reference":"Patient/ac6e7707-6039-481a-9b72-60a4f98ed969"},"period":{"start":"2022-10-24T00:00:00+00:00","end":"2022-10-27T00:00:00+00:00"}},"request":{"method":"POST","url":"Encounter"}},{"fullUrl":"Encounter/e3923207-f106-4e5b-9a91-b35e70763a9a","resource":{"resourceType":"Encounter","id":"e3923207-f106-4e5b-9a91-b35e70763a9a","status":"finished","class":{"system":"http://terminology.hl7.org/CodeSystem/v3-ActCode","code":"IMP","display":"inpatient encounter"},"type":[{"coding":[{"system":"http://terminology.hl7.org/CodeSystem/encounter-type","code":"ADMS"}]}],"subject":{"reference":"Patient/ac6e7707-6039-481a-9b72-60a4f98ed969"},"period":{"start":"2022-05-25T00:00:00+00:00","end":"2022-05-31T00:00:00+00:00"}},"request":{"method":"POST","url":"Encounter"}},{"fullUrl":"Encounter/dcf99f38-09cd-45e4-a8c7-a25b8ac544a2","resource":{"resourceType":"Encounter","id":"dcf99f38-09cd-45e4-a8c7-a25b8ac544a2","status":"finished","class":{"system":"http://terminology.hl7.org/CodeSystem/v3-ActCode","code":"PRENC","display":"pre-admission"},"type":[{"coding":[{"system":"http://terminology.hl7.org/CodeSystem/encounter-type","code":"CCS60"}]}],"subject":{"reference":"Patient/ac6e7707-6039-481a-9b72-60a4f98ed969"},"period":{"start":"2022-04-09T00:00:00+00:00","end":"2022-04-17T00:00:00+00:00"}},"request":{"method":"POST","url":"Encounter"}},{"fullUrl":"Encounter/8c3fdc32-9240-4c6c-bb7f-3628fd3e99fe","resource":{"resourceType":"Encounter","id":"8c3fdc32-9240-4c6c-bb7f-3628fd3e99fe","status":"finished","class":{"system":"http://terminology.hl7.org/CodeSystem/v3-ActCode","code":"EMER","display":"emergency"},"type":[{"coding":[{"system":"http://terminology.hl7.org/CodeSystem/encounter-type","code":"BD/BM-clin"}]}],"subject":{"reference":"Patient/ac6e7707-6039-481a-9b72-60a4f98ed969"},"period":{"start":"2022-04-21T00:00:00+00:00","end":"2022-04-29T00:00:00+00:00"}},"request":{"method":"POST","url":"Encounter"}},{"fullUrl":"Encounter/b82aa962-fbdf-490f-98e6-e61d14534102","resource":{"resourceType":"Encounter","id":"b82aa962-fbdf-490f-98e6-e61d14534102","status":"finished","class":{"system":"http://terminology.hl7.org/CodeSystem/v3-ActCode","code":"NONAC","display":"inpatient non-acute"},"type":[{"coding":[{"system":"http://terminology.hl7.org/CodeSystem/encounter-type","code":"CCS60"}]}],"subject":{"reference":"Patient/ac6e7707-6039-481a-9b72-60a4f98ed969"},"period":{"start":"2022-11-10T00:00:00+00:00","end":"2022-11-16T00:00:00+00:00"}},"request":{"method":"POST","url":"Encounter"}},{"fullUrl":"Location/52b1fafc-82ec-4a37-bb5a-afde0481ce52","resource":{"resourceType":"Location","id":"52b1fafc-82ec-4a37-bb5a-afde0481ce52","status":"active","name":"Johnson-Henderson","telecom":[{"system":"phone","value":"(646)422-0236","use":"mobile"}],"address":{"use":"work","line":["11236 Keith Terrace"],"city":"Dawsonbury","state":"CO","postalCode":"28714"}},"request":{"method":"POST","url":"Location"}},{"fullUrl":"Observation/188ab25d-076a-499b-94c3-1cf2e357c58c","resource":{"resourceType":"Observation","id":"188ab25d-076a-499b-94c3-1cf2e357c58c","status":"final","code":{"coding":[{"system":"http://loinc.org","code":"81956-5"}]},"subject":{"reference":"Patient/ac6e7707-6039-481a-9b72-60a4f98ed969"},"effectiveDateTime":"2022-05-07T00:00:00+00:00","valueDateTime":"2022-03-04T00:00:00+00:00"},"request":{"method":"POST","url":"Observation"}}]}