{"resourceType":"Bundle","id":"c314d765-2e7f-4ac4-bb9f-73a7d8058819","type":"transaction","entry":[{"fullUrl":"Patient/c3405496-4035-4af9-b76d-d1047c89bd71","resource":{"resourceType":"Patient","id":"c3405496-4035-4af9-b76d-d1047c89bd71","meta":{"profile":["http://hl7.org/fhir/us/core/StructureDefinition/us-core-patient"]},"extension":[{"extension":[{"url":"ombCategory","valueCoding":{"system":"http://terminology.hl7.org/CodeSystem/v3-NullFlavor","code":"UNK","display":"unknown"}},{"url":"text","valueString":"unknown"}],"url":"http://hl7.org/fhir/us/core/StructureDefinition/us-core-race"},{"extension":[{"url":"ombCategory","valueCoding":{"system":"urn:oid:2.16.840.1.113883.6.238","code":"2186-5","display":"Non Hispanic or Latino"}},{"url":"text","valueString":"Non Hispanic or Latino"}],"url":"http://hl7.org/fhir/us/core/StructureDefinition/us-core-ethnicity"}],"identifier":[{"type":{"coding":[{"system":"http://terminology.hl7.org/CodeSystem/v2-0203","code":"MR"}]},"system":"urn:fhirgen:mrn","value":"800-67-3316"}],"name":[{"use":"official","family":"Luna","given":["Brian"]},{"use":"maiden","family":"Hernandez"}],"telecom":[{"system":"phone","value":"(289)403-9066","use":"mobile"},{"system":"email","value":"paulbailey@hotmail.com","use":"home"}],"gender":"male","birthDate":"1989-09-07","address":[{"use":"home","line":["9344 Ross Inlet"],"city":"Gonzalesberg","state":"KY","postalCode":"97885"},{"use":"old","line":["08487 Black Overpass Suite 906"],"city":"Simpsonton","state":"CT","postalCode":"27417"}]},"request":{"method":"POST","url":"Patient"}},{"fullUrl":"Observation/95f16925-51d8-4706-b548-b3f4ef906ee9","resource":{"resourceType":"Observation","id":"95f16925-51d8-4706-b548-b3f4ef906ee9","meta":{"profile":["http://hl7.org/fhir/us/core/StructureDefinition/us-core-observation-lab"]},"status":"final","category":[{"coding":[{"system":"http://terminology.hl7.org/CodeSystem/observation-category","code":"laboratory","display":"Laboratory"}]}],"code":{"coding":[{"system":"http://loinc.org","code":"47235-7"}]},"subject":{"reference":"Patient/c3405496-4035-4af9-b76d-d1047c89bd71"},"effectiveDateTime":"2022-12-01T00:00:00+00:00","valueRatio":{"numerator":{"value":1},"denominator":{"value":32}}},"request":{"method":"POST","url":"Observation"}},{"fullUrl":"Observation/57451283-32b8-4d2b-93b2-a2d0d7f9555b","resource":{"resourceType":"Observation","id":"57451283-32b8-4d2b-93b2-a2d0d7f9555b","meta":{"profile":["http://hl7.org/fhir/us/core/StructureDefinition/us-core-observation-lab"]},"status":"final","category":[{"coding":[{"system":"http://terminology.hl7.org/CodeSystem/observation-category","code":"laboratory","display":"Laboratory"}]}],"code":{"coding":[{"system":"http://loinc.org","code":"31146-4"}]},"subject":{"reference":"Patient/c3405496-4035-4af9-b76d-d1047c89bd71"},"effectiveDateTime":"2022-06-16T00:00:00+00:00","valueRatio":{"numerator":{"value":1},"denominator":{"value":4}}},"request":{"method":"POST","url":"Observation"}},{"fullUrl":"Observation/90754167-4d3c-4ddb-9363-0aeb55b8380b","resource":{"resourceType":"Observation","id":"90754167-4d3c-4ddb-9363-0aeb55b8380b","meta":{"profile":["http://hl7.org/fhir/us/core/StructureDefinition/us-core-observation-lab"]},"status":"final","category":[{"coding":[{"system":"http://terminology.hl7.org/CodeSystem/observation-category","code":"laboratory","display":"Laboratory"}]}],"code":{"coding":[{"system":"http://loinc.org","code":"50695-6"}]},"subject":{"reference":"Patient/c3405496-4035-4af9-b76d-d1047c89bd71"},"effectiveDateTime":"2022-02-01T00:00:00+00:00","valueRatio":{"numerator":{"value":1},"denominator":{"value":32}}},"request":{"method":"POST","url":"Observation"}},{"fullUrl":"Condition/86593bb9-cb2d-4201-8507-c6b1f537021b","resource":{"resourceType":"Condition","id":"86593bb9-cb2d-4201-8507-c6b1f537021b","meta":{"profile":["http://hl7.org/fhir/us/core/StructureDefinition/us-core-condition"]},"clinicalStatus":{"coding":[{"system":"http://terminology.hl7.org/CodeSystem/condition-clinical","code":"active","display":"Active"}]},"category":[{"coding":[{"system":"http://terminology.hl7.org/CodeSystem/condition-category","code":"problem-list-item"}]}],"code":{"coding":[{"system":"http://snomed.info/sct","code":"44882003"}]},"subject":{"reference":"Patient/c3405496-4035-4af9-b76d-d1047c89bd71"},"onsetDateTime":"2022-12-12T00:00:00+00:00"},"request":{"method":"POST","url":"Condition"}},{"fullUrl":"Condition/4b803ad9-3832-44fb-bdb8-52eae2ec82b8","resource":{"resourceType":"Condition","id":"4b803ad9-3832-44fb-bdb8-52eae2ec82b8","meta":{"profile":["http://hl7.org/fhir/us/core/StructureDefinition/us-core-condition"]},"clinicalStatus":{"coding":[{"system":"http://terminology.hl7.org/CodeSystem/condition-clinical","code":"active","display":"Active"}]},"category":[{"coding":[{"system":"http://terminology.hl7.org/CodeSystem/condition-category","code":"problem-list-item"}]}],"code":{"coding":[{"system":"http://snomed.info/sct","code":"44882003"}]},"subject":{"reference":"Patient/c3405496-4035-4af9-b76d-d1047c89bd71"},"onsetDateTime":"2022-12-14T00:00:00+00:00"},"request":{"method":"POST","url":"Condition"}},{"fullUrl":"Condition/a9522d3e-304f-4668-b47a-b320a6e6fd30","resource":{"resourceType":"Condition","id":"a9522d3e-304f-4668-b47a-b320a6e6fd30","meta":{"profile":["http://hl7.org/fhir/us/core/StructureDefinition/us-core-condition"]},"clinicalStatus":{"coding":[{"system":"http://terminology.hl7.org/CodeSystem/condition-clinical","code":"active","display":"Active"}]},"category":[{"coding":[{"system":"http://terminology.hl7.org/CodeSystem/condition-category","code":"problem-list-item"}]}],"code":{"coding":[{"system":"http://snomed.info/sct","code":"91554004"}]},"subject":{"reference":"Patient/c3405496-4035-4af9-b76d-d1047c89bd71"},"onsetDateTime":"2022-04-13T00:00:00+00:00"},"request":{"method":"POST","url":"Condition"}},{"fullUrl":"Condition/71ab6b92-4f4b-41d1-9b4c-5d592febfbb0","resource":{"resourceType":"Condition","id":"71ab6b92-4f4b-41d1-9b4c-5d592febfbb0","meta":{"profile":["http://hl7.org/fhir/us/core/StructureDefinition/us-core-condition"]},"clinicalStatus":{"coding":[{"system":"http://terminology.hl7.org/CodeSystem/condition-clinical","code":"active","display":"Active"}]},"category":[{"coding":[{"system":"http://terminology.hl7.org/CodeSystem/condition-category","code":"problem-list-item"}]}],"code":{"coding":[{"system":"http://snomed.info/sct","code":"709977002"}]},"subject":{"reference":"Patient/c3405496-4035-4af9-b76d-d1047c89bd71"},"onsetDateTime":"2022-01-12T00:00:00+00:00"},"request":{"method":"POST","url":"Condition"}},{"fullUrl":"Condition/1b318d7d-b873-4d98-95d6-a20315ed036c","resource":{"resourceType":"Condition","id":"1b318d7d-b873-4d98-95d6-a20315ed036c","meta":{"profile":["http://hl7.org/fhir/us/core/StructureDefinition/us-core-condition"]},"clinicalStatus":{"coding":[{"system":"http://terminology.hl7.org/CodeSystem/condition-clinical","code":"active","display":"Active"}]},"category":[{"coding":[{"system":"http://terminology.hl7.org/CodeSystem/condition-category","code":"problem-list-item"}]}],"code":{"coding":[{"system":"http://snomed.info/sct","code":"709977002"}]},"subject":{"reference":"Patient/c3405496-4035-4af9-b76d-d1047c89bd71"},"onsetDateTime":"2022-07-28T00:00:00+00:00"},"request":{"method":"POST","url":"Condition"}},{"fullUrl":"Condition/2600d1ae-6627-4247-82af-fd48a403d4e8","resource":{"resourceType":"Condition","id":"2600d1ae-6627-4247-82af-fd48a403d4e8","meta":{"profile":["http://hl7.org/fhir/us/core/StructureDefinition/us-core-condition"]},"clinicalStatus":{"coding":[{"system":"http://terminology.hl7.org/CodeSystem/condition-clinical","code":"active","display":"Active"}]},"category":[{"coding":[{"system":"http://terminology.hl7.org/CodeSystem/condition-category","code":"problem-list-item"}]}],"code":{"coding":[{"system":"http://snomed.info/sct","code":"709977002"}]},"subject":{"reference":"Patient/c3405496-4035-4af9-b76d-d1047c89bd71"},"onsetDateTime":"2022-06-14T00:00:00+00:00"},"request":{"method":"POST","url":"Condition"}},{"fullUrl":"Observation/58f8c156-7192-45bf-8267-6b907b297764","resource":{"resourceType":"Observation","id":"58f8c156-7192-45bf-8267-6b907b297764","meta":{"profile":["http://hl7.org/fhir/us/core/StructureDefinition/us-core-observation-lab"]},"status":"final","category":[{"coding":[{"system":"http://terminology.hl7.org/CodeSystem/observation-category","code":"laboratory","display":"Laboratory"}]}],"code":{"coding":[{"system":"http://loinc.org","code":"26464-8"}]},"subject":{"reference":"Patient/c3405496-4035-4af9-b76d-d1047c89bd71"},"effectiveDateTime":"2022-07-14T00:00:00+00:00","valueQuantity":{"value":6.5}},"request":{"method":"POST","url":"Observation"}},{"fullUrl":"Observation/24bf933b-c392-4521-a57e-91406b123850","resource":{"resourceType":"Observation","id":"24bf933b-c392-4521-a57e-91406b123850","meta":{"profile":["http://hl7.org/fhir/us/core/StructureDefinition/us-core-observation-lab"]},"status":"final","category":[{"coding":[{"system":"http://terminology.hl7.org/CodeSystem/observation-category","code":"laboratory","display":"Laboratory"}]}],"code":{"coding":[{"system":"http://loinc.org","code":"804-5"}]},"subject":{"reference":"Patient/c3405496-4035-4af9-b76d-d1047c89bd71"},"effectiveDateTime":"2022-01-06T00:00:00+00:00","valueQuantity":{"value":10.4}},"request":{"method":"POST","url":"Observation"}},{"fullUrl":"Observation/fd16b42a-b615-48cc-80d7-fe6fc9850c79","resource":{"resourceType":"Observation","id":"fd16b42a-b615-48cc-80d7-fe6fc9850c79","meta":{"profile":["http://hl7.org/fhir/us/core/StructureDefinition/us-core-observation-lab"]},"status":"final","category":[{"coding":[{"system":"http://terminology.hl7.org/CodeSystem/observation-category","code":"laboratory","display":"Laboratory"}]}],"code":{"coding":[{"system":"http://loinc.org","code":"6690-2"}]},"subject":{"reference":"Patient/c3405496-4035-4af9-b76d-d1047c89bd71"},"effectiveDateTime":"2022-12-31T00:00:00+00:00","valueQuantity":{"value":4.8}},"request":{"method":"POST","url":"Observation"}},{"fullUrl":"Observation/f24a361a-933a-403a-a948-48dfb109fd40","resource":{"resourceType":"Observation","id":"f24a361a-933a-403a-a948-48dfb109fd40","meta":{"profile":["http://hl7.org/fhir/us/core/StructureDefinition/us-core-bmi"]},"status":"final","category":[{"coding":[{"system":"http://terminology.hl7.org/CodeSystem/observation-category","code":"vital-signs","display":"Vital Signs"}]}],"code":{"coding":[{"system":"http://loinc.org","code":"39156-5"}]},"subject":{"reference":"Patient/c3405496-4035-4af9-b76d-d1047c89bd71"},"effectiveDateTime":"2022-03-07T00:00:00+00:00","valueQuantity":{"value":15.41,"unit":"kg/m2","system":"http://unitsofmeasure.org","code":"kg/m2"}},"request":{"method":"POST","url":"Observation"}},{"fullUrl":"Observation/9d170c0f-9c76-4356-868e-0a763ff84e1d","resource":{"resourceType":"Observation","id":"9d170c0f-9c76-4356-868e-0a763ff84e1d","meta":{"profile":["http://hl7.org/fhir/us/core/StructureDefinition/us-core-bmi"]},"status":"final","category":[{"coding":[{"system":"http://terminology.hl7.org/CodeSystem/observation-category","code":"vital-signs","display":"Vital Signs"}]}],"code":{"coding":[{"system":"http://loinc.org","code":"39156-5"}]},"subject":{"reference":"Patient/c3405496-4035-4af9-b76d-d1047c89bd71"},"effectiveDateTime":"2022-08-07T00:00:00+00:00","valueQuantity":{"value":23.95,"unit":"kg/m2","system":"http://unitsofmeasure.org","code":"kg/m2"}},"request":{"method":"POST","url":"Observation"}},{"fullUrl":"Observation/ab5074b1-755c-4f97-899d-58da52b6af99","resource":{"resourceType":"Observation","id":"ab5074b1-755c-4f97-899d-58da52b6af99","meta":{"profile":["http://hl7.org/fhir/us/core/StructureDefinition/us-core-head-circumference"]},"status":"final","category":[{"coding":[{"system":"http://terminology.hl7.org/CodeSystem/observation-category","code":"vital-signs","display":"Vital Signs"}]}],"code":{"coding":[{"system":"http://loinc.org","code":"9843-4"}]},"subject":{"reference":"Patient/c3405496-4035-4af9-b76d-d1047c89bd71"},"effectiveDateTime":"2022-04-27T00:00:00+00:00","valueQuantity":{"value":9.3,"unit":"Inch","system":"http://unitsofmeasure.org","code":"[in_i]"}},"request":{"method":"POST","url":"Observation"}},{"fullUrl":"Observation/19a7db9e-04b1-487c-9b6f-d3a8896a9cc4","resource":{"resourceType":"Observation","id":"19a7db9e-04b1-487c-9b6f-d3a8896a9cc4","meta":{"profile":["http://hl7.org/fhir/us/core/StructureDefinition/us-core-head-circumference"]},"status":"final","category":[{"coding":[{"system":"http://terminology.hl7.org/CodeSystem/observation-category","code":"vital-signs","display":"Vital Signs"}]}],"code":{"coding":[{"system":"http://loinc.org","code":"9843-4"}]},"subject":{"reference":"Patient/c3405496-4035-4af9-b76d-d1047c89bd71"},"effectiveDateTime":"2022-07-10T00:00:00+00:00","valueQuantity":{"value":4.9,"unit":"Inch","system":"http://unitsofmeasure.org","code":"[in_i]"}},"request":{"method":"POST","url":"Observation"}},{"fullUrl":"Observation/fe8e9b37-e59c-4e5f-9313-02f9c7664429","resource":{"resourceType":"Observation","id":"fe8e9b37-e59c-4e5f-9313-02f9c7664429","meta":{"profile":["http://hl7.org/fhir/us/core/StructureDefinition/us-core-body-height"]},"status":"final","category":[{"coding":[{"system":"http://terminology.hl7.org/CodeSystem/observation-category","code":"vital-signs","display":"Vital Signs"}]}],"code":{"coding":[{"system":"http://loinc.org","code":"8302-2"}]},"subject":{"reference":"Patient/c3405496-4035-4af9-b76d-d1047c89bd71"},"effectiveDateTime":"2022-10-06T00:00:00+00:00","valueQuantity":{"value":74.7,"unit":"Inch","system":"http://unitsofmeasure.org","code":"[in_i]"}},"request":{"method":"POST","url":"Observation"}},{"fullUrl":"Observation/ea2a73c6-b6bb-4d7b-8564-79d626e2fc08","resource":{"resourceType":"Observation","id":"ea2a73c6-b6bb-4d7b-8564-79d626e2fc08","meta":{"profile":["http://hl7.org/fhir/us/core/StructureDefinition/us-core-body-height"]},"status":"final","category":[{"coding":[{"system":"http://terminology.hl7.org/CodeSystem/observation-category","code":"vital-signs","display":"Vital Signs"}]}],"code":{"coding":[{"system":"http://loinc.org","code":"8302-2"}]},"subject":{"reference":"Patient/c3405496-4035-4af9-b76d-d1047c89bd71"},"effectiveDateTime":"2022-04-29T00:00:00+00:00","valueQuantity":{"value":76.5,"unit":"Inch","system":"http://unitsofmeasure.org","code":"[in_i]"}},"request":{"method":"POST","url":"Observation"}},{"fullUrl":"Observation/48d41a77-f79b-4b68-96da-8535d06fd612","resource":{"resourceType":"Observation","id":"48d41a77-f79b-4b68-96da-8535d06fd612","meta":{"profile":["http://hl7.org/fhir/us/core/StructureDefinition/us-core-body-weight"]},"status":"final","category":[{"coding":[{"system":"http://terminology.hl7.org/CodeSystem/observation-category","code":"vital-signs","display":"Vital Signs"}]}],"code":{"coding":[{"system":"http://loinc.org","code":"29463-7"}]},"subject":{"reference":"Patient/c3405496-4035-4af9-b76d-d1047c89bd71"},"effectiveDateTime":"2022-01-27T00:00:00+00:00","valueQuantity":{"value":58.95,"unit":"kilogram","system":"http://unitsofmeasure.org","code":"kg"}},"request":{"method":"POST","url":"Observation"}},{"fullUrl":"Observation/f432792a-d891-4e0b-8e0e-b95d3a1b0924","resource":{"resourceType":"Observation","id":"f432792a-d891-4e0b-8e0e-b95d3a1b0924","meta":{"profile":["http://hl7.org/fhir/us/core/StructureDefinition/us-core-body-weight"]},"status":"final","category":[{"coding":[{"system":"http://terminology.hl7.org/CodeSystem/observation-category","code":"vital-signs","display":"Vital Signs"}]}],"code":{"coding":[{"system":"http://loinc.org","code":"29463-7"}]},"subject":{"reference":"Patient/c3405496-4035-4af9-b76d-d1047c89bd71"},"effectiveDateTime":"2022-09-07T00:00:00+00:00","valueQuantity":{"value":49.92,"unit":"kilogram","system":"http://unitsofmeasure.org","code":"kg"}},"request":{"method":"POST","url":"Observation"}},{"fullUrl":"Observation/7004c434-6366-46b6-b538-b9b846de68b1","resource":{"resourceType":"Observation","id":"7004c434-6366-46b6-b538-b9b846de68b1","meta":{"profile":["http://hl7.org/fhir/us/core/StructureDefinition/us-core-body-temperature"]},"status":"final","category":[{"coding":[{"system":"http://terminology.hl7.org/CodeSystem/observation-category","code":"vital-signs","display":"Vital Signs"}]}],"code":{"coding":[{"system":"http://loinc.org","code":"8310-5"}]},"subject":{"reference":"Patient/c3405496-4035-4af9-b76d-d1047c89bd71"},"effectiveDateTime":"2022-09-10T00:00:00+00:00","valueQuantity":{"value":52.54,"unit":"Degrees Fahrenheit","system":"http://unitsofmeasure.org","code":"[degF]"}},"request":{"method":"POST","url":"Observation"}},{"fullUrl":"Observation/7b1a60f5-3fed-4cef-9fbc-3eebd6831d38","resource":{"resourceType":"Observation","id":"7b1a60f5-3fed-4cef-9fbc-3eebd6831d38","meta":{"profile":["http://hl7.org/fhir/us/core/StructureDefinition/us-core-body-temperature"]},"status":"final","category":[{"coding":[{"system":"http://terminology.hl7.org/CodeSystem/observation-category","code":"vital-signs","display":"Vital Signs"}]}],"code":{"coding":[{"system":"http://loinc.org","code":"8310-5"}]},"subject":{"reference":"Patient/c3405496-4035-4af9-b76d-d1047c89bd71"},"effectiveDateTime":"2022-09-08T00:00:00+00:00","valueQuantity":{"value":135.63,"unit":"Degrees Fahrenheit","system":"http://unitsofmeasure.org","code":"[degF]"}},"request":{"method":"POST","url":"Observation"}},{"fullUrl":"Observation/dc1bdfac-24a5-405b-956a-c848a6373b8d","resource":{"resourceType":"Observation","id":"dc1bdfac-24a5-405b-956a-c848a6373b8d","meta":{"profile":["http://hl7.org/fhir/us/core/StructureDefinition/us-core-heart-rate"]},"status":"final","category":[{"coding":[{"system":"http://terminology.hl7.org/CodeSystem/observation-category","code":"vital-signs","display":"Vital Signs"}]}],"code":{"coding":[{"system":"http://loinc.org","code":"8867-4"}]},"subject":{"reference":"Patient/c3405496-4035-4af9-b76d-d1047c89bd71"},"effectiveDateTime":"2022-10-14T00:00:00+00:00","valueQuantity":{"value":97.4,"unit":"Per Minute","system":"http://unitsofmeasure.org","code":"/min"}},"request":{"method":"POST","url":"Observation"}},{"fullUrl":"Patient/6f9629a6-6b8c-4381-bfd5-16c7a0e3d4c6","resource":{"resourceType":"Patient","id":"6f9629a6-6b8c-4381-bfd5-16c7a0e3d4c6","meta":{"profile":["http://hl7.org/fhir/us/core/StructureDefinition/us-core-patient"]},"extension":[{"extension":[{"url":"ombCategory","valueCoding":{"system":"urn:oid:2.16.840.1.113883.6.238","code":"2028-9","display":"Asian"}},{"url":"text","valueString":"Asian"}],"url":"http://hl7.org/fhir/us/core/StructureDefinition/us-core-race"},{"extension":[{"url":"ombCategory","valueCoding":{"system":"urn:oid:2.16.840.1.113883.6.238","code":"2135-2","display":"Hispanic or Latino"}},{"url":"text","valueString":"Hispanic or Latino"}],"url":"http://hl7.org/fhir/us/core/StructureDefinition/us-core-ethnicity"}],"identifier":[{"type":{"coding":[{"system":"http://terminology.hl7.org/CodeSystem/v2-0203","code":"MR"}]},"system":"urn:fhirgen:mrn","value":"480-47-5502"}],"name":[{"use":"official","family":"Riddle","given":["Paul"]},{"use":"maiden","family":"Lawson"}],"telecom":[{"system":"phone","value":"953-963-9673x6422","use":"work"},{"system":"email","value":"jordanstephanie@gmail.com","use":"work"}],"gender":"male","birthDate":"1986-07-10","address":[{"use":"home","line":["294 Michael Parkways"],"city":"South Sandraburgh","state":"ME","postalCode":"53778"},{"use":"old","line":["74865 Lang Gateway Apt. 471"],"city":"Stricklandland","state":"SD","postalCode":"79016"}]},"request":{"method":"POST","url":"Patient"}},{"fullUrl":"Observation/ef62ebcd-7eaa-4f13-96fa-7f962223a3b8","resource":{"resourceType":"Observation","id":"ef62ebcd-7eaa-4f13-96fa-7f962223a3b8","meta":{"profile":["http://hl7.org/fhir/us/core/StructureDefinition/us-core-observation-lab"]},"status":"final","category":[{"coding":[{"system":"http://terminology.hl7.org/CodeSystem/observation-category","code":"laboratory","display":"Laboratory"}]}],"code":{"coding":[{"system":"http://loinc.org","code":"5394-2"}]},"subject":{"reference":"Patient/6f9629a6-6b8c-4381-bfd5-16c7a0e3d4c6"},"effectiveDateTime":"2022-07-13T00:00:00+00:00","valueRatio":{"numerator":{"value":1},"denominator":{"value":4}}},"request":{"method":"POST","url":"Observation"}},{"fullUrl":"Observation/606fef45-6910-4e52-92c6-86e0d9538194","resource":{"resourceType":"Observation","id":"606fef45-6910-4e52-92c6-86e0d9538194","meta":{"profile":["http://hl7.org/fhir/us/core/StructureDefinition/us-core-observation-lab"]},"status":"final","category":[{"coding":[{"system":"http://terminology.hl7.org/CodeSystem/observation-category","code":"laboratory","display":"Laboratory"}]}],"code":{"coding":[{"system":"http://loinc.org","code":"46203-6"}]},"subject":{"reference":"Patient/6f9629a6-6b8c-4381-bfd5-16c7a0e3d4c6"},"effectiveDateTime":"2022-03-07T00:00:00+00:00","valueRatio":{"numerator":{"value":1},"denominator":{"value":64}}},"request":{"method":"POST","url":"Observation"}},{"fullUrl":"Observation/ac1c4ddb-6e32-4866-9af8-5088b1149e5c","resource":{"resourceType":"Observation","id":"ac1c4ddb-6e32-4866-9af8-5088b1149e5c","meta":{"profile":["http://hl7.org/fhir/us/core/StructureDefinition/us-core-observation-lab"]},"status":"final","category":[{"coding":[{"system":"http://terminology.hl7.org/CodeSystem/observation-category","code":"laboratory","display":"Laboratory"}]}],"code":{"coding":[{"system":"http://loinc.org","code":"46203-6"}]},"subject":{"reference":"Patient/6f9629a6-6b8c-4381-bfd5-16c7a0e3d4c6"},"effectiveDateTime":"2022-05-09T00:00:00+00:00","valueRatio":{"numerator":{"value":1},"denominator":{"value":32}}},"request":{"method":"POST","url":"Observation"}},{"fullUrl":"Condition/73d46ff3-8c8a-4a94-a2a7-9d0e7100fd5f","resource":{"resourceType":"Condition","id":"73d46ff3-8c8a-4a94-a2a7-9d0e7100fd5f","meta":{"profile":["http://hl7.org/fhir/us/core/StructureDefinition/us-core-condition"]},"clinicalStatus":{"coding":[{"system":"http://terminology.hl7.org/CodeSystem/condition-clinical","code":"active","display":"Active"}]},"category":[{"coding":[{"system":"http://terminology.hl7.org/CodeSystem/condition-category","code":"problem-list-item"}]}],"code":{"coding":[{"system":"http://snomed.info/sct","code":"736686006"}]},"subject":{"reference":"Patient/6f9629a6-6b8c-4381-bfd5-16c7a0e3d4c6"},"onsetDateTime":"2022-07-13T00:00:00+00:00"},"request":{"method":"POST","url":"Condition"}},{"fullUrl":"Condition/4d322811-51be-4348-b8ea-c6a482b92e1c","resource":{"resourceType":"Condition","id":"4d322811-51be-4348-b8ea-c6a482b92e1c","meta":{"profile":["http://hl7.org/fhir/us/core/StructureDefinition/us-core-condition"]},"clinicalStatus":{"coding":[{"system":"http://terminology.hl7.org/CodeSystem/condition-clinical","code":"active","display":"Active"}]},"category":[{"coding":[{"system":"http://terminology.hl7.org/CodeSystem/condition-category","code":"problem-list-item"}]}],"code":{"coding":[{"system":"http://snomed.info/sct","code":"418290006"}]},"subject":{"reference":"Patient/6f9629a6-6b8c-4381-bfd5-16c7a0e3d4c6"},"onsetDateTime":"2022-12-28T00:00:00+00:00"},"request":{"method":"POST","url":"Condition"}},{"fullUrl":"Condition/d2c59580-08e8-44f3-acc0-60e51fd2ea7d","resource":{"resourceType":"Condition","id":"d2c59580-08e8-44f3-acc0-60e51fd2ea7d","meta":{"profile":["http://hl7.org/fhir/us/core/StructureDefinition/us-core-condition"]},"clinicalStatus":{"coding":[{"system":"http://terminology.hl7.org/CodeSystem/condition-clinical","code":"active","display":"Active"}]},"category":[{"coding":[{"system":"http://terminology.hl7.org/CodeSystem/condition-category","code":"problem-list-item"}]}],"code":{"coding":[{"system":"http://snomed.info/sct","code":"91554004"}]},"subject":{"reference":"Patient/6f9629a6-6b8c-4381-bfd5-16c7a0e3d4c6"},"onsetDateTime":"2022-06-03T00:00:00+00:00"},"request":{"method":"POST","url":"Condition"}},{"fullUrl":"Condition/d1c54a75-ad2d-4ac1-b803-a78effb5dffa","resource":{"resourceType":"Condition","id":"d1c54a75-ad2d-4ac1-b803-a78effb5dffa","meta":{"profile":["http://hl7.org/fhir/us/core/StructureDefinition/us-core-condition"]},"clinicalStatus":{"coding":[{"system":"http://terminology.hl7.org/CodeSystem/condition-clinical","code":"active","display":"Active"}]},"category":[{"coding":[{"system":"http://terminology.hl7.org/CodeSystem/condition-category","code":"problem-list-item"}]}],"code":{"coding":[{"system":"http://snomed.info/sct","code":"44882003"}]},"subject":{"reference":"Patient/6f9629a6-6b8c-4381-bfd5-16c7a0e3d4c6"},"onsetDateTime":"2022-12-09T00:00:00+00:00"},"request":{"method":"POST","url":"Condition"}},{"fullUrl":"Condition/5c0db14f-7e5e-42b8-a689-17797384cf67","resource":{"resourceType":"Condition","id":"5c0db14f-7e5e-42b8-a689-17797384cf67","meta":{"profile":["http://hl7.org/fhir/us/core/StructureDefinition/us-core-condition"]},"clinicalStatus":{"coding":[{"system":"http://terminology.hl7.org/CodeSystem/condition-clinical","code":"active","display":"Active"}]},"category":[{"coding":[{"system":"http://terminology.hl7.org/CodeSystem/condition-category","code":"problem-list-item"}]}],"code":{"coding":[{"system":"http://snomed.info/sct","code":"736686006"}]},"subject":{"reference":"Patient/6f9629a6-6b8c-4381-bfd5-16c7a0e3d4c6"},"onsetDateTime":"2022-05-31T00:00:00+00:00"},"request":{"method":"POST","url":"Condition"}},{"fullUrl":"Observation/fc2e0993-91ef-4228-894e-64eb9999c2a7","resource":{"resourceType":"Observation","id":"fc2e0993-91ef-4228-894e-64eb9999c2a7","meta":{"profile":["http://hl7.org/fhir/us/core/StructureDefinition/us-core-observation-lab"]},"status":"final","category":[{"coding":[{"system":"http://terminology.hl7.org/CodeSystem/observation-category","code":"laboratory","display":"Laboratory"}]}],"code":{"coding":[{"system":"http://loinc.org","code":"49498-9"}]},"subject":{"reference":"Patient/6f9629a6-6b8c-4381-bfd5-16c7a0e3d4c6"},"effectiveDateTime":"2022-09-22T00:00:00+00:00","valueQuantity":{"value":5.5}},"request":{"method":"POST","url":"Observation"}},{"fullUrl":"Observation/66b3e8dd-8e86-4362-a26f-2dfca9a47ccc","resource":{"resourceType":"Observation","id":"66b3e8dd-8e86-4362-a26f-2dfca9a47ccc","meta":{"profile":["http://hl7.org/fhir/us/core/StructureDefinition/us-core-observation-lab"]},"status":"final","category":[{"coding":[{"system":"http://terminology.hl7.org/CodeSystem/observation-category","code":"laboratory","display":"Laboratory"}]}],"code":{"coding":[{"system":"http://loinc.org","code":"49498-9"}]},"subject":{"reference":"Patient/6f9629a6-6b8c-4381-bfd5-16c7a0e3d4c6"},"effectiveDateTime":"2022-08-28T00:00:00+00:00","valueQuantity":{"value":9.6}},"request":{"method":"POST","url":"Observation"}},{"fullUrl":"Observation/4b34c63b-6e2e-4358-85fd-6883024d9990","resource":{"resourceType":"Observation","id":"4b34c63b-6e2e-4358-85fd-6883024d9990","meta":{"profile":["http://hl7.org/fhir/us/core/StructureDefinition/us-core-observation-lab"]},"status":"final","category":[{"coding":[{"system":"http://terminology.hl7.org/CodeSystem/observation-category","code":"laboratory","display":"Laboratory"}]}],"code":{"coding":[{"system":"http://loinc.org","code":"49498-9"}]},"subject":{"reference":"Patient/6f9629a6-6b8c-4381-bfd5-16c7a0e3d4c6"},"effectiveDateTime":"2022-04-13T00:00:00+00:00","valueQuantity":{"value":7.7}},"request":{"method":"POST","url":"Observation"}},{"fullUrl":"Observation/b2665c0c-55bc-4462-8c62-ae852b61e8c6","resource":{"resourceType":"Observation","id":"b2665c0c-55bc-4462-8c62-ae852b61e8c6","meta":{"profile":["http://hl7.org/fhir/us/core/StructureDefinition/us-core-bmi"]},"status":"final","category":[{"coding":[{"system":"http://terminology.hl7.org/CodeSystem/observation-category","code":"vital-signs","display":"Vital Signs"}]}],"code":{"coding":[{"system":"http://loinc.org","code":"39156-5"}]},"subject":{"reference":"Patient/6f9629a6-6b8c-4381-bfd5-16c7a0e3d4c6"},"effectiveDateTime":"2022-03-03T00:00:00+00:00","valueQuantity":{"value":25.34,"unit":"kg/m2","system":"http://unitsofmeasure.org","code":"kg/m2"}},"request":{"method":"POST","url":"Observation"}},{"fullUrl":"Observation/0e40bafc-789f-45c3-8054-4daa0914d392","resource":{"resourceType":"Observation","id":"0e40bafc-789f-45c3-8054-4daa0914d392","meta":{"profile":["http://hl7.org/fhir/us/core/StructureDefinition/us-core-head-circumference"]},"status":"final","category":[{"coding":[{"system":"http://terminology.hl7.org/CodeSystem/observation-category","code":"vital-signs","display":"Vital Signs"}]}],"code":{"coding":[{"system":"http://loinc.org","code":"9843-4"}]},"subject":{"reference":"Patient/6f9629a6-6b8c-4381-bfd5-16c7a0e3d4c6"},"effectiveDateTime":"2022-01-02T00:00:00+00:00","valueQuantity":{"value":8.1,"unit":"Inch","system":"http://unitsofmeasure.org","code":"[in_i]"}},"request":{"method":"POST","url":"Observation"}},{"fullUrl":"Observation/b336d38b-ac5f-4abb-84f7-32c2cacb751b","resource":{"resourceType":"Observation","id":"b336d38b-ac5f-4abb-84f7-32c2cacb751b","meta":{"profile":["http://hl7.org/fhir/us/core/StructureDefinition/us-core-body-height"]},"status":"final","category":[{"coding":[{"system":"http://terminology.hl7.org/CodeSystem/observation-category","code":"vital-signs","display":"Vital Signs"}]}],"code":{"coding":[{"system":"http://loinc.org","code":"8302-2"}]},"subject":{"reference":"Patient/6f9629a6-6b8c-4381-bfd5-16c7a0e3d4c6"},"effectiveDateTime":"2022-04-12T00:00:00+00:00","valueQuantity":{"value":64.2,"unit":"Inch","system":"http://unitsofmeasure.org","code":"[in_i]"}},"request":{"method":"POST","url":"Observation"}},{"fullUrl":"Observation/8dc8c735-803b-4a89-9313-24be3571ddc4","resource":{"resourceType":"Observation","id":"8dc8c735-803b-4a89-9313-24be3571ddc4","meta":{"profile":["http://hl7.org/fhir/us/core/StructureDefinition/us-core-body-height"]},"status":"final","category":[{"coding":[{"system":"http://terminology.hl7.org/CodeSystem/observation-category","code":"vital-signs","display":"Vital Signs"}]}],"code":{"coding":[{"system":"http://loinc.org","code":"8302-2"}]},"subject":{"reference":"Patient/6f9629a6-6b8c-4381-bfd5-16c7a0e3d4c6"},"effectiveDateTime":"2022-06-25T00:00:00+00:00","valueQuantity":{"value":82.3,"unit":"Inch","system":"http://unitsofmeasure.org","code":"[in_i]"}},"request":{"method":"POST","url":"Observation"}},{"fullUrl":"Observation/deaf7a10-8236-4c21-970e-f71d4573d60d","resource":{"resourceType":"Observation","id":"deaf7a10-8236-4c21-970e-f71d4573d60d","meta":{"profile":["http://hl7.org/fhir/us/core/StructureDefinition/us-core-body-weight"]},"status":"final","category":[{"coding":[{"system":"http://terminology.hl7.org/CodeSystem/observation-category","code":"vital-signs","display":"Vital Signs"}]}],"code":{"coding":[{"system":"http://loinc.org","code":"29463-7"}]},"subject":{"reference":"Patient/6f9629a6-6b8c-4381-bfd5-16c7a0e3d4c6"},"effectiveDateTime":"2022-05-07T00:00:00+00:00","valueQuantity":{"value":38.2,"unit":"kilogram","system":"http://unitsofmeasure.org","code":"kg"}},"request":{"method":"POST","url":"Observation"}},{"fullUrl":"Observation/ff128fba-ad89-4f02-bfa4-46c75a4dc23d","resource":{"resourceType":"Observation","id":"ff128fba-ad89-4f02-bfa4-46c75a4dc23d","meta":{"profile":["http://hl7.org/fhir/us/core/StructureDefinition/us-core-body-temperature"]},"status":"final","category":[{"coding":[{"system":"http://terminology.hl7.org/CodeSystem/observation-category","code":"vital-signs","display":"Vital Signs"}]}],"code":{"coding":[{"system":"http://loinc.org","code":"8310-5"}]},"subject":{"reference":"Patient/6f9629a6-6b8c-4381-bfd5-16c7a0e3d4c6"},"effectiveDateTime":"2022-02-05T00:00:00+00:00","valueQuantity":{"value":21.52,"unit":"Degrees Fahrenheit","system":"http://unitsofmeasure.org","code":"[degF]"}},"request":{"method":"POST","url":"Observation"}},{"fullUrl":"Observation/6eca12ba-c044-4b69-b265-821dece56b20","resource":{"resourceType":"Observation","id":"6eca12ba-c044-4b69-b265-821dece56b20","meta":{"profile":["http://hl7.org/fhir/us/core/StructureDefinition/us-core-heart-rate"]},"status":"final","category":[{"coding":[{"system":"http://terminology.hl7.org/CodeSystem/observation-category","code":"vital-signs","display":"Vital Signs"}]}],"code":{"coding":[{"system":"http://loinc.org","code":"8867-4"}]},"subject":{"reference":"Patient/6f9629a6-6b8c-4381-bfd5-16c7a0e3d4c6"},"effectiveDateTime":"2022-02-08T00:00:00+00:00","valueQuantity":{"value":96.1,"unit":"Per Minute","system":"http://unitsofmeasure.org","code":"/min"}},"request":{"method":"POST","url":"Observation"}},{"fullUrl":"Observation/6c42c441-a544-4296-b0bf-6dd5f484e5a1","resource":{"resourceType":"Observation","id":"6c42c441-a544-4296-b0bf-6dd5f484e5a1","meta":{"profile":["http://hl7.org/fhir/us/core/StructureDefinition/us-core-heart-rate"]},"status":"final","category":[{"coding":[{"system":"http://terminology.hl7.org/CodeSystem/observation-category","code":"vital-signs","display":"Vital Signs"}]}],"code":{"coding":[{"system":"http://loinc.org","code":"8867-4"}]},"subject":{"reference":"Patient/6f9629a6-6b8c-4381-bfd5-16c7a0e3d4c6"},"effectiveDateTime":"2022-08-20T00:00:00+00:00","valueQuantity":{"value":98.9,"unit":"Per Minute","system":"http://unitsofmeasure.org","code":"/min"}},"request":{"method":"POST","url":"Observation"}},{"fullUrl":"Patient/b3bcdeb1-5d90-4756-b48e-cb410c45c19b","resource":{"resourceType":"Patient","id":"b3bcdeb1-5d90-4756-b48e-cb410c45c19b","meta":{"profile":["http://hl7.org/fhir/us/core/StructureDefinition/us-core-patient"]},"extension":[{"extension":[{"url":"ombCategory","valueCoding":{"system":"urn:oid:2.16.840.1.113883.6.238","code":"2054-5","display":"Black or African American"}},{"url":"text","valueString":"Black or African American"}],"url":"http://hl7.org/fhir/us/core/StructureDefinition/us-core-race"},{"extension":[{"url":"ombCategory","valueCoding":{"system":"urn:oid:2.16.840.1.113883.6.238","code":"2186-5","display":"Non Hispanic or Latino"}},{"url":"text","valueString":"Non Hispanic or Latino"}],"url":"http://hl7.org/fhir/us/core/StructureDefinition/us-core-ethnicity"}],"identifier":[{"type":{"coding":[{"system":"http://terminology.hl7.org/CodeSystem/v2-0203","code":"MR"}]},"system":"urn:fhirgen:mrn","value":"795-39-0499"}],"name":[{"use":"official","family":"Johnson","given":["Cassie"]},{"use":"maiden","family":"Larsen"}],"telecom":[{"system":"phone","value":"087-640-0017x9593","use":"home"},{"system":"email","value":"charles82@gmail.com","use":"work"}],"gender":"female","birthDate":"1948-12-11","address":[{"use":"home","line":["6409 Robert Summit"],"city":"North Joseph","state":"PA","postalCode":"76281"},{"use":"old","line":["2819 Andrews Well Suite 036"],"city":"Lake Richardtown","state":"IL","postalCode":"96591"}]},"request":{"method":"POST","url":"Patient"}},{"fullUrl":"Observation/029bf2f6-46f2-4335-9435-9bc557a49081","resource":{"resourceType":"Observation","id":"029bf2f6-46f2-4335-9435-9bc557a49081","meta":{"profile":["http://hl7.org/fhir/us/core/StructureDefinition/us-core-observation-lab"]},"status":"final","category":[{"coding":[{"system":"http://terminology.hl7.org/CodeSystem/observation-category","code":"laboratory","display":"Laboratory"}]}],"code":{"coding":[{"system":"http://loinc.org","code":"5394-2"}]},"subject":{"reference":"Patient/b3bcdeb1-5d90-4756-b48e-cb410c45c19b"},"effectiveDateTime":"2022-01-19T00:00:00+00:00","valueRatio":{"numerator":{"value":1},"denominator":{"value":32}}},"request":{"method":"POST","url":"Observation"}},{"fullUrl":"Observation/e5d13a54-f7ab-432b-8072-2e7ab700bad9","resource":{"resourceType":"Observation","id":"e5d13a54-f7ab-432b-8072-2e7ab700bad9","meta":{"profile":["http://hl7.org/fhir/us/core/StructureDefinition/us-core-observation-lab"]},"status":"final","category":[{"coding":[{"system":"http://terminology.hl7.org/CodeSystem/observation-category","code":"laboratory","display":"Laboratory"}]}],"code":{"coding":[{"system":"http://loinc.org","code":"50695-6"}]},"subject":{"reference":"Patient/b3bcdeb1-5d90-4756-b48e-cb410c45c19b"},"effectiveDateTime":"2022-11-12T00:00:00+00:00","valueRatio":{"numerator":{"value":1},"denominator":{"value":32}}},"request":{"method":"POST","url":"Observation"}},{"fullUrl":"Condition/f6c14f2d-c24b-402a-8eaa-27caa0771b4c","resource":{"resourceType":"Condition","id":"f6c14f2d-c24b-402a-8eaa-27caa0771b4c","meta":{"profile":["http://hl7.org/fhir/us/core/StructureDefinition/us-core-condition"]},"clinicalStatus":{"coding":[{"system":"http://terminology.hl7.org/CodeSystem/condition-clinical","code":"active","display":"Active"}]},"category":[{"coding":[{"system":"http://terminology.hl7.org/CodeSystem/condition-category","code":"problem-list-item"}]}],"code":{"coding":[{"system":"http://snomed.info/sct","code":"709977002"}]},"subject":{"reference":"Patient/b3bcdeb1-5d90-4756-b48e-cb410c45c19b"},"onsetDateTime":"2022-01-25T00:00:00+00:00"},"request":{"method":"POST","url":"Condition"}},{"fullUrl":"Condition/e0dd597a-aa42-4475-9558-e18c011dbc0b","resource":{"resourceType":"Condition","id":"e0dd597a-aa42-4475-9558-e18c011dbc0b","meta":{"profile":["http://hl7.org/fhir/us/core/StructureDefinition/us-core-condition"]},"clinicalStatus":{"coding":[{"system":"http://terminology.hl7.org/CodeSystem/condition-clinical","code":"active","display":"Active"}]},"category":[{"coding":[{"system":"http://terminology.hl7.org/CodeSystem/condition-category","code":"problem-list-item"}]}],"code":{"coding":[{"system":"http://snomed.info/sct","code":"736686006"}]},"subject":{"reference":"Patient/b3bcdeb1-5d90-4756-b48e-cb410c45c19b"},"onsetDateTime":"2022-03-31T00:00:00+00:00"},"request":{"method":"POST","url":"Condition"}},{"fullUrl":"Condition/3be42ae9-de0c-4949-ac11-f092ddf65dfc","resource":{"resourceType":"Condition","id":"3be42ae9-de0c-4949-ac11-f092ddf65dfc","meta":{"profile":["http://hl7.org/fhir/us/core/StructureDefinition/us-core-condition"]},"clinicalStatus":{"coding":[{"system":"http://terminology.hl7.org/CodeSystem/condition-clinical","code":"active","display":"Active"}]},"category":[{"coding":[{"system":"http://terminology.hl7.org/CodeSystem/condition-category","code":"problem-list-item"}]}],"code":{"coding":[{"system":"http://snomed.info/sct","code":"44882003"}]},"subject":{"reference":"Patient/b3bcdeb1-5d90-4756-b48e-cb410c45c19b"},"onsetDateTime":"2022-10-31T00:00:00+00:00"},"request":{"method":"POST","url":"Condition"}},{"fullUrl":"Condition/e47e54aa-7423-4b31-bfa7-34ded97baae6","resource":{"resourceType":"Condition","id":"e47e54aa-7423-4b31-bfa7-34ded97baae6","meta":{"profile":["http://hl7.org/fhir/us/core/StructureDefinition/us-core-condition"]},"clinicalStatus":{"coding":[{"system":"http://terminology.hl7.org/CodeSystem/condition-clinical","code":"active","display":"Active"}]},"category":[{"coding":[{"system":"http://terminology.hl7.org/CodeSystem/condition-category","code":"problem-list-item"}]}],"code":{"coding":[{"system":"http://snomed.info/sct","code":"44882003"}]},"subject":{"reference":"Patient/b3bcdeb1-5d90-4756-b48e-cb410c45c19b"},"onsetDateTime":"2022-03-21T00:00:00+00:00"},"request":{"method":"POST","url":"Condition"}},{"fullUrl":"Condition/31f7288b-4db8-4f7a-ae6f-b1799dc4ef82","resource":{"resourceType":"Condition","id":"31f7288b-4db8-4f7a-ae6f-b1799dc4ef82","meta":{"profile":["http://hl7.org/fhir/us/core/StructureDefinition/us-core-condition"]},"clinicalStatus":{"coding":[{"system":"http://terminology.hl7.org/CodeSystem/condition-clinical","code":"active","display":"Active"}]},"category":[{"coding":[{"system":"http://terminology.hl7.org/CodeSystem/condition-category","code":"problem-list-item"}]}],"code":{"coding":[{"system":"http://snomed.info/sct","code":"736686006"}]},"subject":{"reference":"Patient/b3bcdeb1-5d90-4756-b48e-cb410c45c19b"},"onsetDateTime":"2022-04-23T00:00:00+00:00"},"request":{"method":"POST","url":"Condition"}},{"fullUrl":"Observation/01fe2069-e0fa-40e0-9d73-e8cfdcd78dfe","resource":{"resourceType":"Observation","id":"01fe2069-e0fa-40e0-9d73-e8cfdcd78dfe","meta":{"profile":["http://hl7.org/fhir/us/core/StructureDefinition/us-core-observation-lab"]},"status":"final","category":[{"coding":[{"system":"http://terminology.hl7.org/CodeSystem/observation-category","code":"laboratory","display":"Laboratory"}]}],"code":{"coding":[{"system":"http://loinc.org","code":"26464-8"}]},"subject":{"reference":"Patient/b3bcdeb1-5d90-4756-b48e-cb410c45c19b"},"effectiveDateTime":"2022-12-15T00:00:00+00:00","valueQuantity":{"value":9.3}},"request":{"method":"POST","url":"Observation"}},{"fullUrl":"Observation/1be58c01-90b7-4ab1-905b-6d22d6d34752","resource":{"resourceType":"Observation","id":"1be58c01-90b7-4ab1-905b-6d22d6d34752","meta":{"profile":["http://hl7.org/fhir/us/core/StructureDefinition/us-core-observation-lab"]},"status":"final","category":[{"coding":[{"system":"http://terminology.hl7.org/CodeSystem/observation-category","code":"laboratory","display":"Laboratory"}]}],"code":{"coding":[{"system":"http://loinc.org","code":"804-5"}]},"subject":{"reference":"Patient/b3bcdeb1-5d90-4756-b48e-cb410c45c19b"},"effectiveDateTime":"2022-03-15T00:00:00+00:00","valueQuantity":{"value":5.4}},"request":{"method":"POST","url":"Observation"}},{"fullUrl":"Observation/89d314b6-ace9-4b7c-ba14-cbde4711bedc","resource":{"resourceType":"Observation","id":"89d314b6-ace9-4b7c-ba14-cbde4711bedc","meta":{"profile":["http://hl7.org/fhir/us/core/StructureDefinition/us-core-bmi"]},"status":"final","category":[{"coding":[{"system":"http://terminology.hl7.org/CodeSystem/observation-category","code":"vital-signs","display":"Vital Signs"}]}],"code":{"coding":[{"system":"http://loinc.org","code":"39156-5"}]},"subject":{"reference":"Patient/b3bcdeb1-5d90-4756-b48e-cb410c45c19b"},"effectiveDateTime":"2022-05-06T00:00:00+00:00","valueQuantity":{"value":26.8,"unit":"kg/m2","system":"http://unitsofmeasure.org","code":"kg/m2"}},"request":{"method":"POST","url":"Observation"}},{"fullUrl":"Observation/8f55c69f-69bd-43e8-bbbc-14117eabcb3e","resource":{"resourceType":"Observation","id":"8f55c69f-69bd-43e8-bbbc-14117eabcb3e","meta":{"profile":["http://hl7.org/fhir/us/core/StructureDefinition/us-core-bmi"]},"status":"final","category":[{"coding":[{"system":"http://terminology.hl7.org/CodeSystem/observation-category","code":"vital-signs","display":"Vital Signs"}]}],"code":{"coding":[{"system":"http://loinc.org","code":"39156-5"}]},"subject":{"reference":"Patient/b3bcdeb1-5d90-4756-b48e-cb410c45c19b"},"effectiveDateTime":"2022-03-11T00:00:00+00:00","valueQuantity":{"value":15.01,"unit":"kg/m2","system":"http://unitsofmeasure.org","code":"kg/m2"}},"request":{"method":"POST","url":"Observation"}},{"fullUrl":"Observation/6db5e0e7-bfa8-4a30-b281-8d3bbbb1f652","resource":{"resourceType":"Observation","id":"6db5e0e7-bfa8-4a30-b281-8d3bbbb1f652","meta":{"profile":["http://hl7.org/fhir/us/core/StructureDefinition/us-core-head-circumference"]},"status":"final","category":[{"coding":[{"system":"http://terminology.hl7.org/CodeSystem/observation-category","code":"vital-signs","display":"Vital Signs"}]}],"code":{"coding":[{"system":"http://loinc.org","code":"9843-4"}]},"subject":{"reference":"Patient/b3bcdeb1-5d90-4756-b48e-cb410c45c19b"},"effectiveDateTime":"2022-06-29T00:00:00+00:00","valueQuantity":{"value":3.6,"unit":"Inch","system":"http://unitsofmeasure.org","code":"[in_i]"}},"request":{"method":"POST","url":"Observation"}},{"fullUrl":"Observation/7ff17df6-8af1-4d8f-9953-238702d3cd46","resource":{"resourceType":"Observation","id":"7ff17df6-8af1-4d8f-9953-238702d3cd46","meta":{"profile":["http://hl7.org/fhir/us/core/StructureDefinition/us-core-body-height"]},"status":"final","category":[{"coding":[{"system":"http://terminology.hl7.org/CodeSystem/observation-category","code":"vital-signs","display":"Vital Signs"}]}],"code":{"coding":[{"system":"http://loinc.org","code":"8302-2"}]},"subject":{"reference":"Patient/b3bcdeb1-5d90-4756-b48e-cb410c45c19b"},"effectiveDateTime":"2022-09-29T00:00:00+00:00","valueQuantity":{"value":72.7,"unit":"Inch","system":"http://unitsofmeasure.org","code":"[in_i]"}},"request":{"method":"POST","url":"Observation"}},{"fullUrl":"Observation/3fe47aed-65a1-46ac-ad8a-1b5df1d18d02","resource":{"resourceType":"Observation","id":"3fe47aed-65a1-46ac-ad8a-1b5df1d18d02","meta":{"profile":["http://hl7.org/fhir/us/core/StructureDefinition/us-core-body-height"]},"status":"final","category":[{"coding":[{"system":"http://terminology.hl7.org/CodeSystem/observation-category","code":"vital-signs","display":"Vital Signs"}]}],"code":{"coding":[{"system":"http://loinc.org","code":"8302-2"}]},"subject":{"reference":"Patient/b3bcdeb1-5d90-4756-b48e-cb410c45c19b"},"effectiveDateTime":"2022-10-22T00:00:00+00:00","valueQuantity":{"value":69.4,"unit":"Inch","system":"http://unitsofmeasure.org","code":"[in_i]"}},"request":{"method":"POST","url":"Observation"}},{"fullUrl":"Observation/6d2e966c-b450-4c38-9f4c-8f7c9b9665ba","resource":{"resourceType":"Observation","id":"6d2e966c-b450-4c38-9f4c-8f7c9b9665ba","meta":{"profile":["http://hl7.org/fhir/us/core/StructureDefinition/us-core-body-weight"]},"status":"final","category":[{"coding":[{"system":"http://terminology.hl7.org/CodeSystem/observation-category","code":"vital-signs","display":"Vital Signs"}]}],"code":{"coding":[{"system":"http://loinc.org","code":"29463-7"}]},"subject":{"reference":"Patient/b3bcdeb1-5d90-4756-b48e-cb410c45c19b"},"effectiveDateTime":"2022-03-01T00:00:00+00:00","valueQuantity":{"value":145.35,"unit":"kilogram","system":"http://unitsofmeasure.org","code":"kg"}},"request":{"method":"POST","url":"Observation"}},{"fullUrl":"Observation/59d55a31-bbb8-46df-9682-1f9d5639ea99","resource":{"resourceType":"Observation","id":"59d55a31-bbb8-46df-9682-1f9d5639ea99","meta":{"profile":["http://hl7.org/fhir/us/core/StructureDefinition/us-core-body-temperature"]},"status":"final","category":[{"coding":[{"system":"http://terminology.hl7.org/CodeSystem/observation-category","code":"vital-signs","display":"Vital Signs"}]}],"code":{"coding":[{"system":"http://loinc.org","code":"8310-5"}]},"subject":{"reference":"Patient/b3bcdeb1-5d90-4756-b48e-cb410c45c19b"},"effectiveDateTime":"2022-02-09T00:00:00+00:00","valueQuantity":{"value":40.25,"unit":"Degrees Fahrenheit","system":"http://unitsofmeasure.org","code":"[degF]"}},"request":{"method":"POST","url":"Observation"}},{"fullUrl":"Observation/de968d3a-6682-46bf-bdda-6f0dc34c4c82","resource":{"resourceType":"Observation","id":"de968d3a-6682-46bf-bdda-6f0dc34c4c82","meta":{"profile":["http://hl7.org/fhir/us/core/StructureDefinition/us-core-body-temperature"]},"status":"final","category":[{"coding":[{"system":"http://terminology.hl7.org/CodeSystem/observation-category","code":"vital-signs","display":"Vital Signs"}]}],"code":{"coding":[{"system":"http://loinc.org","code":"8310-5"}]},"subject":{"reference":"Patient/b3bcdeb1-5d90-4756-b48e-cb410c45c19b"},"effectiveDateTime":"2022-03-07T00:00:00+00:00","valueQuantity":{"value":106.93,"unit":"Degrees Fahrenheit","system":"http://unitsofmeasure.org","code":"[degF]"}},"request":{"method":"POST","url":"Observation"}},{"fullUrl":"Observation/e7b46837-b984-4414-8a28-af715975a090","resource":{"resourceType":"Observation","id":"e7b46837-b984-4414-8a28-af715975a090","meta":{"profile":["http://hl7.org/fhir/us/core/StructureDefinition/us-core-heart-rate"]},"status":"final","category":[{"coding":[{"system":"http://terminology.hl7.org/CodeSystem/observation-category","code":"vital-signs","display":"Vital Signs"}]}],"code":{"coding":[{"system":"http://loinc.org","code":"8867-4"}]},"subject":{"reference":"Patient/b3bcdeb1-5d90-4756-b48e-cb410c45c19b"},"effectiveDateTime":"2022-04-04T00:00:00+00:00","valueQuantity":{"value":98.7,"unit":"Per Minute","system":"http://unitsofmeasure.org","code":"/min"}},"request":{"method":"POST","url":"Observation"}},{"fullUrl":"Patient/e9e74f84-13ca-4cde-870c-9400684addd1","resource":{"resourceType":"Patient","id":"e9e74f84-13ca-4cde-870c-9400684addd1","meta":{"profile":["http://hl7.org/fhir/us/core/StructureDefinition/us-core-patient"]},"extension":[{"extension":[{"url":"ombCategory","valueCoding":{"system":"http://terminology.hl7.org/CodeSystem/v3-NullFlavor","code":"UNK","display":"unknown"}},{"url":"text","valueString":"unknown"}],"url":"http://hl7.org/fhir/us/core/StructureDefinition/us-core-race"},{"extension":[{"url":"ombCategory","valueCoding":{"system":"urn:oid:2.16.840.1.113883.6.238","code":"2186-5","display":"Non Hispanic or Latino"}},{"url":"text","valueString":"Non Hispanic or Latino"}],"url":"http://hl7.org/fhir/us/core/StructureDefinition/us-core-ethnicity"}],"identifier":[{"type":{"coding":[{"system":"http://terminology.hl7.org/CodeSystem/v2-0203","code":"MR"}]},"system":"urn:fhirgen:mrn","value":"641-22-9289"}],"name":[{"use":"official","family":"Bass","given":["Brenda"]},{"use":"maiden","family":"Lawson"}],"telecom":[{"system":"phone","value":"(995)424-8924x92406","use":"mobile"},{"system":"email","value":"cwarner@hotmail.com","use":"work"}],"gender":"female","birthDate":"1986-10-12","address":[{"use":"home","line":["15004 Mclaughlin Brook"],"city":"Kevinmouth","state":"MN","postalCode":"74801"},{"use":"old","line":["420 Frazier Fort"],"city":"Perkinsberg","state":"ME","postalCode":"00908"}]},"request":{"method":"POST","url":"Patient"}},{"fullUrl":"Observation/c2fac6ba-275e-468b-be21-04f9a9a3cfd5","resource":{"resourceType":"Observation","id":"c2fac6ba-275e-468b-be21-04f9a9a3cfd5","meta":{"profile":["http://hl7.org/fhir/us/core/StructureDefinition/us-core-observation-lab"]},"status":"final","category":[{"coding":[{"system":"http://terminology.hl7.org/CodeSystem/observation-category","code":"laboratory","display":"Laboratory"}]}],"code":{"coding":[{"system":"http://loinc.org","code":"34382-2"}]},"subject":{"reference":"Patient/e9e74f84-13ca-4cde-870c-9400684addd1"},"effectiveDateTime":"2022-08-13T00:00:00+00:00","valueRatio":{"numerator":{"value":1},"denominator":{"value":64}}},"request":{"method":"POST","url":"Observation"}},{"fullUrl":"Observation/d46de54d-b23c-4d1d-9112-634f077b11ae","resource":{"resourceType":"Observation","id":"d46de54d-b23c-4d1d-9112-634f077b11ae","meta":{"profile":["http://hl7.org/fhir/us/core/StructureDefinition/us-core-observation-lab"]},"status":"final","category":[{"coding":[{"system":"http://terminology.hl7.org/CodeSystem/observation-category","code":"laboratory","display":"Laboratory"}]}],"code":{"coding":[{"system":"http://loinc.org","code":"50690-7"}]},"subject":{"reference":"Patient/e9e74f84-13ca-4cde-870c-9400684addd1"},"effectiveDateTime":"2022-02-28T00:00:00+00:00","valueRatio":{"numerator":{"value":1},"denominator":{"value":64}}},"request":{"method":"POST","url":"Observation"}},{"fullUrl":"Observation/46b5ce7e-0d3f-4659-abc8-0ab426bb30ab","resource":{"resourceType":"Observation","id":"46b5ce7e-0d3f-4659-abc8-0ab426bb30ab","meta":{"profile":["http://hl7.org/fhir/us/core/StructureDefinition/us-core-observation-lab"]},"status":"final","category":[{"coding":[{"system":"http://terminology.hl7.org/CodeSystem/observation-category","code":"laboratory","display":"Laboratory"}]}],"code":{"coding":[{"system":"http://loinc.org","code":"50695-6"}]},"subject":{"reference":"Patient/e9e74f84-13ca-4cde-870c-9400684addd1"},"effectiveDateTime":"2022-06-19T00:00:00+00:00","valueRatio":{"numerator":{"value":1},"denominator":{"value":64}}},"request":{"method":"POST","url":"Observation"}},{"fullUrl":"Condition/ea02f93b-10e6-42bb-8702-ad1e93d55b45","resource":{"resourceType":"Condition","id":"ea02f93b-10e6-42bb-8702-ad1e93d55b45","meta":{"profile":["http://hl7.org/fhir/us/core/StructureDefinition/us-core-condition"]},"clinicalStatus":{"coding":[{"system":"http://terminology.hl7.org/CodeSystem/condition-clinical","code":"active","display":"Active"}]},"category":[{"coding":[{"system":"http://terminology.hl7.org/CodeSystem/condition-category","code":"problem-list-item"}]}],"code":{"coding":[{"system":"http://snomed.info/sct","code":"418290006"}]},"subject":{"reference":"Patient/e9e74f84-13ca-4cde-870c-9400684addd1"},"onsetDateTime":"2022-03-13T00:00:00+00:00"},"request":{"method":"POST","url":"Condition"}},{"fullUrl":"Condition/032e3847-7c29-4c65-881f-36d57f7801aa","resource":{"resourceType":"Condition","id":"032e3847-7c29-4c65-881f-36d57f7801aa","meta":{"profile":["http://hl7.org/fhir/us/core/StructureDefinition/us-core-condition"]},"clinicalStatus":{"coding":[{"system":"http://terminology.hl7.org/CodeSystem/condition-clinical","code":"active","display":"Active"}]},"category":[{"coding":[{"system":"http://terminology.hl7.org/CodeSystem/condition-category","code":"problem-list-item"}]}],"code":{"coding":[{"system":"http://snomed.info/sct","code":"418290006"}]},"subject":{"reference":"Patient/e9e74f84-13ca-4cde-870c-9400684addd1"},"onsetDateTime":"2022-09-13T00:00:00+00:00"},"request":{"method":"POST","url":"Condition"}},{"fullUrl":"Condition/630d82c7-42a7-40e1-accd-2aa5bf66be16","resource":{"resourceType":"Condition","id":"630d82c7-42a7-40e1-accd-2aa5bf66be16","meta":{"profile":["http://hl7.org/fhir/us/core/StructureDefinition/us-core-condition"]},"clinicalStatus":{"coding":[{"system":"http://terminology.hl7.org/CodeSystem/condition-clinical","code":"active","display":"Active"}]},"category":[{"coding":[{"system":"http://terminology.hl7.org/CodeSystem/condition-category","code":"problem-list-item"}]}],"code":{"coding":[{"system":"http://snomed.info/sct","code":"418290006"}]},"subject":{"reference":"Patient/e9e74f84-13ca-4cde-870c-9400684addd1"},"onsetDateTime":"2022-04-06T00:00:00+00:00"},"request":{"method":"POST","url":"Condition"}},{"fullUrl":"Condition/d36fcb12-3205-4b54-bcb6-ee6bf02ee239","resource":{"resourceType":"Condition","id":"d36fcb12-3205-4b54-bcb6-ee6bf02ee239","meta":{"profile":["http://hl7.org/fhir/us/core/StructureDefinition/us-core-condition"]},"clinicalStatus":{"coding":[{"system":"http://terminology.hl7.org/CodeSystem/condition-clinical","code":"active","display":"Active"}]},"category":[{"coding":[{"system":"http://terminology.hl7.org/CodeSystem/condition-category","code":"problem-list-item"}]}],"code":{"coding":[{"system":"http://snomed.info/sct","code":"44882003"}]},"subject":{"reference":"Patient/e9e74f84-13ca-4cde-870c-9400684addd1"},"onsetDateTime":"2022-05-05T00:00:00+00:00"},"request":{"method":"POST","url":"Condition"}},{"fullUrl":"Condition/e3d84f09-5071-40eb-b11e-c54ec82d026e","resource":{"resourceType":"Condition","id":"e3d84f09-5071-40eb-b11e-c54ec82d026e","meta":{"profile":["http://hl7.org/fhir/us/core/StructureDefinition/us-core-condition"]},"clinicalStatus":{"coding":[{"system":"http://terminology.hl7.org/CodeSystem/condition-clinical","code":"active","display":"Active"}]},"category":[{"coding":[{"system":"http://terminology.hl7.org/CodeSystem/condition-category","code":"problem-list-item"}]}],"code":{"coding":[{"system":"http://snomed.info/sct","code":"736686006"}]},"subject":{"reference":"Patient/e9e74f84-13ca-4cde-870c-9400684addd1"},"onsetDateTime":"2022-12-29T00:00:00+00:00"},"request":{"method":"POST","url":"Condition"}},{"fullUrl":"Condition/48a9be22-6ff9-41ac-8ae8-7bba9a3ba948","resource":{"resourceType":"Condition","id":"48a9be22-6ff9-41ac-8ae8-7bba9a3ba948","meta":{"profile":["http://hl7.org/fhir/us/core/StructureDefinition/us-core-condition"]},"clinicalStatus":{"coding":[{"system":"http://terminology.hl7.org/CodeSystem/condition-clinical","code":"active","display":"Active"}]},"category":[{"coding":[{"system":"http://terminology.hl7.org/CodeSystem/condition-category","code":"problem-list-item"}]}],"code":{"coding":[{"system":"http://snomed.info/sct","code":"91554004"}]},"subject":{"reference":"Patient/e9e74f84-13ca-4cde-870c-9400684addd1"},"onsetDateTime":"2022-09-29T00:00:00+00:00"},"request":{"method":"POST","url":"Condition"}},{"fullUrl":"Observation/dfcda9c4-fb01-4fab-b0bc-25932dd1e8b9","resource":{"resourceType":"Observation","id":"dfcda9c4-fb01-4fab-b0bc-25932dd1e8b9","meta":{"profile":["http://hl7.org/fhir/us/core/StructureDefinition/us-core-observation-lab"]},"status":"final","category":[{"coding":[{"system":"http://terminology.hl7.org/CodeSystem/observation-category","code":"laboratory","display":"Laboratory"}]}],"code":{"coding":[{"system":"http://loinc.org","code":"49498-9"}]},"subject":{"reference":"Patient/e9e74f84-13ca-4cde-870c-9400684addd1"},"effectiveDateTime":"2022-08-08T00:00:00+00:00","valueQuantity":{"value":7.1}},"request":{"method":"POST","url":"Observation"}},{"fullUrl":"Observation/0ff0a3ab-e96c-4cbc-8ea1-03b8b1596678","resource":{"resourceType":"Observation","id":"0ff0a3ab-e96c-4cbc-8ea1-03b8b1596678","meta":{"profile":["http://hl7.org/fhir/us/core/StructureDefinition/us-core-observation-lab"]},"status":"final","category":[{"coding":[{"system":"http://terminology.hl7.org/CodeSystem/observation-category","code":"laboratory","display":"Laboratory"}]}],"code":{"coding":[{"system":"http://loinc.org","code":"804-5"}]},"subject":{"reference":"Patient/e9e74f84-13ca-4cde-870c-9400684addd1"},"effectiveDateTime":"2022-05-19T00:00:00+00:00","valueQuantity":{"value":5.2}},"request":{"method":"POST","url":"Observation"}},{"fullUrl":"Observation/8ef9fe82-b4a5-4cf9-bc89-a957ea0ed90e","resource":{"resourceType":"Observation","id":"8ef9fe82-b4a5-4cf9-bc89-a957ea0ed90e","meta":{"profile":["http://hl7.org/fhir/us/core/StructureDefinition/us-core-observation-lab"]},"status":"final","category":[{"coding":[{"system":"http://terminology.hl7.org/CodeSystem/observation-category","code":"laboratory","display":"Laboratory"}]}],"code":{"coding":[{"system":"http://loinc.org","code":"49498-9"}]},"subject":{"reference":"Patient/e9e74f84-13ca-4cde-870c-9400684addd1"},"effectiveDateTime":"2022-07-17T00:00:00+00:00","valueQuantity":{"value":10.8}},"request":{"method":"POST","url":"Observation"}},{"fullUrl":"Observation/777e140d-6efe-4cf4-9ee6-193c303af8eb","resource":{"resourceType":"Observation","id":"777e140d-6efe-4cf4-9ee6-193c303af8eb","meta":{"profile":["http://hl7.org/fhir/us/core/StructureDefinition/us-core-bmi"]},"status":"final","category":[{"coding":[{"system":"http://terminology.hl7.org/CodeSystem/observation-category","code":"vital-signs","display":"Vital Signs"}]}],"code":{"coding":[{"system":"http://loinc.org","code":"39156-5"}]},"subject":{"reference":"Patient/e9e74f84-13ca-4cde-870c-9400684addd1"},"effectiveDateTime":"2022-12-14T00:00:00+00:00","valueQuantity":{"value":14.57,"unit":"kg/m2","system":"http://unitsofmeasure.org","code":"kg/m2"}},"request":{"method":"POST","url":"Observation"}},{"fullUrl":"Observation/79204667-4456-481e-b9e3-2309f4b68ee1","resource":{"resourceType":"Observation","id":"79204667-4456-481e-b9e3-2309f4b68ee1","meta":{"profile":["http://hl7.org/fhir/us/core/StructureDefinition/us-core-bmi"]},"status":"final","category":[{"coding":[{"system":"http://terminology.hl7.org/CodeSystem/observation-category","code":"vital-signs","display":"Vital Signs"}]}],"code":{"coding":[{"system":"http://loinc.org","code":"39156-5"}]},"subject":{"reference":"Patient/e9e74f84-13ca-4cde-870c-9400684addd1"},"effectiveDateTime":"2022-08-01T00:00:00+00:00","valueQuantity":{"value":18.08,"unit":"kg/m2","system":"http://unitsofmeasure.org","code":"kg/m2"}},"request":{"method":"POST","url":"Observation"}},{"fullUrl":"Observation/248e488c-a137-4235-b477-374433201b90","resource":{"resourceType":"Observation","id":"248e488c-a137-4235-b477-374433201b90","meta":{"profile":["http://hl7.org/fhir/us/core/StructureDefinition/us-core-head-circumference"]},"status":"final","category":[{"coding":[{"system":"http://terminology.hl7.org/CodeSystem/observation-category","code":"vital-signs","display":"Vital Signs"}]}],"code":{"coding":[{"system":"http://loinc.org","code":"9843-4"}]},"subject":{"reference":"Patient/e9e74f84-13ca-4cde-870c-9400684addd1"},"effectiveDateTime":"2022-07-29T00:00:00+00:00","valueQuantity":{"value":6.5,"unit":"Inch","system":"http://unitsofmeasure.org","code":"[in_i]"}},"request":{"method":"POST","url":"Observation"}},{"fullUrl":"Observation/0cd2c934-85d4-4798-98d4-4e6c03c7c0f9","resource":{"resourceType":"Observation","id":"0cd2c934-85d4-4798-98d4-4e6c03c7c0f9","meta":{"profile":["http://hl7.org/fhir/us/core/StructureDefinition/us-core-body-height"]},"status":"final","category":[{"coding":[{"system":"http://terminology.hl7.org/CodeSystem/observation-category","code":"vital-signs","display":"Vital Signs"}]}],"code":{"coding":[{"system":"http://loinc.org","code":"8302-2"}]},"subject":{"reference":"Patient/e9e74f84-13ca-4cde-870c-9400684addd1"},"effectiveDateTime":"2022-06-20T00:00:00+00:00","valueQuantity":{"value":78.6,"unit":"Inch","system":"http://unitsofmeasure.org","code":"[in_i]"}},"request":{"method":"POST","url":"Observation"}},{"fullUrl":"Observation/a21db743-17dc-43b6-9403-eb7b365261dd","resource":{"resourceType":"Observation","id":"a21db743-17dc-43b6-9403-eb7b365261dd","meta":{"profile":["http://hl7.org/fhir/us/core/StructureDefinition/us-core-body-height"]},"status":"final","category":[{"coding":[{"system":"http://terminology.hl7.org/CodeSystem/observation-category","code":"vital-signs","display":"Vital Signs"}]}],"code":{"coding":[{"system":"http://loinc.org","code":"8302-2"}]},"subject":{"reference":"Patient/e9e74f84-13ca-4cde-870c-9400684addd1"},"effectiveDateTime":"2022-12-23T00:00:00+00:00","valueQuantity":{"value":75.7,"unit":"Inch","system":"http://unitsofmeasure.org","code":"[in_i]"}},"request":{"method":"POST","url":"Observation"}},{"fullUrl":"Observation/1833e174-cf0b-49e0-8260-222badc23257","resource":{"resourceType":"Observation","id":"1833e174-cf0b-49e0-8260-222badc23257","meta":{"profile":["http://hl7.org/fhir/us/core/StructureDefinition/us-core-body-weight"]},"status":"final","category":[{"coding":[{"system":"http://terminology.hl7.org/CodeSystem/observation-category","code":"vital-signs","display":"Vital Signs"}]}],"code":{"coding":[{"system":"http://loinc.org","code":"29463-7"}]},"subject":{"reference":"Patient/e9e74f84-13ca-4cde-870c-9400684addd1"},"effectiveDateTime":"2022-12-14T00:00:00+00:00","valueQuantity":{"value":87.56,"unit":"kilogram","system":"http://unitsofmeasure.org","code":"kg"}},"request":{"method":"POST","url":"Observation"}},{"fullUrl":"Observation/891e66a4-1995-4987-acc2-e8e2fd23135d","resource":{"resourceType":"Observation","id":"891e66a4-1995-4987-acc2-e8e2fd23135d","meta":{"profile":["http://hl7.org/fhir/us/core/StructureDefinition/us-core-body-weight"]},"status":"final","category":[{"coding":[{"system":"http://terminology.hl7.org/CodeSystem/observation-category","code":"vital-signs","display":"Vital Signs"}]}],"code":{"coding":[{"system":"http://loinc.org","code":"29463-7"}]},"subject":{"reference":"Patient/e9e74f84-13ca-4cde-870c-9400684addd1"},"effectiveDateTime":"2022-10-04T00:00:00+00:00","valueQuantity":{"value":120.16,"unit":"kilogram","system":"http://unitsofmeasure.org","code":"kg"}},"request":{"method":"POST","url":"Observation"}},{"fullUrl":"Observation/929cd124-7287-4a2b-ab86-e6381d8a5832","resource":{"resourceType":"Observation","id":"929cd124-7287-4a2b-ab86-e6381d8a5832","meta":{"profile":["http://hl7.org/fhir/us/core/StructureDefinition/us-core-body-temperature"]},"status":"final","category":[{"coding":[{"system":"http://terminology.hl7.org/CodeSystem/observation-category","code":"vital-signs","display":"Vital Signs"}]}],"code":{"coding":[{"system":"http://loinc.org","code":"8310-5"}]},"subject":{"reference":"Patient/e9e74f84-13ca-4cde-870c-9400684addd1"},"effectiveDateTime":"2022-10-26T00:00:00+00:00","valueQuantity":{"value":116.29,"unit":"Degrees Fahrenheit","system":"http://unitsofmeasure.org","code":"[degF]"}},"request":{"method":"POST","url":"Observation"}},{"fullUrl":"Observation/cdb21b3b-9e22-4a90-8dba-0194ef400da8","resource":{"resourceType":"Observation","id":"cdb21b3b-9e22-4a90-8dba-0194ef400da8","meta":{"profile":["http://hl7.org/fhir/us/core/StructureDefinition/us-core-body-temperature"]},"status":"final","category":[{"coding":[{"system":"http://terminology.hl7.org/CodeSystem/observation-category","code":"vital-signs","display":"Vital Signs"}]}],"code":{"coding":[{"system":"http://loinc.org","code":"8310-5"}]},"subject":{"reference":"Patient/e9e74f84-13ca-4cde-870c-9400684addd1"},"effectiveDateTime":"2022-12-21T00:00:00+00:00","valueQuantity":{"value":78.32,"unit":"Degrees Fahrenheit","system":"http://unitsofmeasure.org","code":"[degF]"}},"request":{"method":"POST","url":"Observation"}},{"fullUrl":"Observation/9946834b-1e5d-46f4-9680-ea21c62d7a8f","resource":{"resourceType":"Observation","id":"9946834b-1e5d-46f4-9680-ea21c62d7a8f","meta":{"profile":["http://hl7.org/fhir/us/core/StructureDefinition/us-core-heart-rate"]},"status":"final","category":[{"coding":[{"system":"http://terminology.hl7.org/CodeSystem/observation-category","code":"vital-signs","display":"Vital Signs"}]}],"code":{"coding":[{"system":"http://loinc.org","code":"8867-4"}]},"subject":{"reference":"Patient/e9e74f84-13ca-4cde-870c-9400684addd1"},"effectiveDateTime":"2022-12-31T00:00:00+00:00","valueQuantity":{"value":96.5,"unit":"Per Minute","system":"http://unitsofmeasure.org","code":"/min"}},"request":{"method":"POST","url":"Observation"}},{"fullUrl":"Patient/7159ead8-a8b2-4f0d-bc22-bd641a9a0c24","resource":{"resourceType":"Patient","id":"7159ead8-a8b2-4f0d-bc22-bd641a9a0c24","meta":{"profile":["http://hl7.org/fhir/us/core/StructureDefinition/us-core-patient"]},"extension":[{"extension":[{"url":"ombCategory","valueCoding":{"system":"http://terminology.hl7.org/CodeSystem/v3-NullFlavor","code":"ASKU","display":"asked but unknown"}},{"url":"text","valueString":"asked but unknown"}],"url":"http://hl7.org/fhir/us/core/StructureDefinition/us-core-race"},{"extension":[{"url":"ombCategory","valueCoding":{"system":"urn:oid:2.16.840.1.113883.6.238","code":"2186-5","display":"Non Hispanic or Latino"}},{"url":"text","valueString":"Non Hispanic or Latino"}],"url":"http://hl7.org/fhir/us/core/StructureDefinition/us-core-ethnicity"}],"identifier":[{"type":{"coding":[{"system":"http://terminology.hl7.org/CodeSystem/v2-0203","code":"MR"}]},"system":"urn:fhirgen:mrn","value":"518-28-1927"}],"name":[{"use":"official","family":"Pace","given":["David"]},{"use":"maiden","family":"Smith"}],"telecom":[{"system":"phone","value":"007.786.9142x40742","use":"work"},{"system":"email","value":"michaelhanson@yahoo.com","use":"home"}],"gender":"other","birthDate":"1988-11-27","address":[{"use":"home","line":["1402 Pena Parkways"],"city":"Delgadoberg","state":"WV","postalCode":"90160"},{"use":"old","line":["72585 Robbins Throughway"],"city":"Lake Allison","state":"AZ","postalCode":"00937"}]},"request":{"method":"POST","url":"Patient"}},{"fullUrl":"Observation/cae8be93-608e-4322-bc85-82154dbf13d7","resource":{"resourceType":"Observation","id":"cae8be93-608e-4322-bc85-82154dbf13d7","meta":{"profile":["http://hl7.org/fhir/us/core/StructureDefinition/us-core-observation-lab"]},"status":"final","category":[{"coding":[{"system":"http://terminology.hl7.org/CodeSystem/observation-category","code":"laboratory","display":"Laboratory"}]}],"code":{"coding":[{"system":"http://loinc.org","code":"47476-7"}]},"subject":{"reference":"Patient/7159ead8-a8b2-4f0d-bc22-bd641a9a0c24"},"effectiveDateTime":"2022-04-13T00:00:00+00:00","valueRatio":{"numerator":{"value":1},"denominator":{"value":4}}},"request":{"method":"POST","url":"Observation"}},{"fullUrl":"Observation/2f4ff046-dc6f-48a5-bb6a-868ceed863bf","resource":{"resourceType":"Observation","id":"2f4ff046-dc6f-48a5-bb6a-868ceed863bf","meta":{"profile":["http://hl7.org/fhir/us/core/StructureDefinition/us-core-observation-lab"]},"status":"final","category":[{"coding":[{"system":"http://terminology.hl7.org/CodeSystem/observation-category","code":"laboratory","display":"Laboratory"}]}],"code":{"coding":[{"system":"http://loinc.org","code":"46203-6"}]},"subject":{"reference":"Patient/7159ead8-a8b2-4f0d-bc22-bd641a9a0c24"},"effectiveDateTime":"2022-08-18T00:00:00+00:00","valueRatio":{"numerator":{"value":1},"denominator":{"value":64}}},"request":{"method":"POST","url":"Observation"}},{"fullUrl":"Condition/fb383c8e-e7a7-423f-9b41-ce7272c37003","resource":{"resourceType":"Condition","id":"fb383c8e-e7a7-423f-9b41-ce7272c37003","meta":{"profile":["http://hl7.org/fhir/us/core/StructureDefinition/us-core-condition"]},"clinicalStatus":{"coding":[{"system":"http://terminology.hl7.org/CodeSystem/condition-clinical","code":"active","display":"Active"}]},"category":[{"coding":[{"system":"http://terminology.hl7.org/CodeSystem/condition-category","code":"problem-list-item"}]}],"code":{"coding":[{"system":"http://snomed.info/sct","code":"418290006"}]},"subject":{"reference":"Patient/7159ead8-a8b2-4f0d-bc22-bd641a9a0c24"},"onsetDateTime":"2022-12-09T00:00:00+00:00"},"request":{"method":"POST","url":"Condition"}},{"fullUrl":"Condition/b30375cc-1fbc-4098-a866-49ffda01e014","resource":{"resourceType":"Condition","id":"b30375cc-1fbc-4098-a866-49ffda01e014","meta":{"profile":["http://hl7.org/fhir/us/core/StructureDefinition/us-core-condition"]},"clinicalStatus":{"coding":[{"system":"http://terminology.hl7.org/CodeSystem/condition-clinical","code":"active","display":"Active"}]},"category":[{"coding":[{"system":"http://terminology.hl7.org/CodeSystem/condition-category","code":"problem-list-item"}]}],"code":{"coding":[{"system":"http://snomed.info/sct","code":"736686006"}]},"subject":{"reference":"Patient/7159ead8-a8b2-4f0d-bc22-bd641a9a0c24"},"onsetDateTime":"2022-02-18T00:00:00+00:00"},"request":{"method":"POST","url":"Condition"}},{"fullUrl":"Condition/83c68bfb-4e53-49c9-86db-b721c8662b51","resource":{"resourceType":"Condition","id":"83c68bfb-4e53-49c9-86db-b721c8662b51","meta":{"profile":["http://hl7.org/fhir/us/core/StructureDefinition/us-core-condition"]},"clinicalStatus":{"coding":[{"system":"http://terminology.hl7.org/CodeSystem/condition-clinical","code":"active","display":"Active"}]},"category":[{"coding":[{"system":"http://terminology.hl7.org/CodeSystem/condition-category","code":"problem-list-item"}]}],"code":{"coding":[{"system":"http://snomed.info/sct","code":"418290006"}]},"subject":{"reference":"Patient/7159ead8-a8b2-4f0d-bc22-bd641a9a0c24"},"onsetDateTime":"2022-12-13T00:00:00+00:00"},"request":{"method":"POST","url":"Condition"}},{"fullUrl":"Condition/067cbbbd-8939-4bc8-a487-33666617ea98","resource":{"resourceType":"Condition","id":"067cbbbd-8939-4bc8-a487-33666617ea98","meta":{"profile":["http://hl7.org/fhir/us/core/StructureDefinition/us-core-condition"]},"clinicalStatus":{"coding":[{"system":"http://terminology.hl7.org/CodeSystem/condition-clinical","code":"active","display":"Active"}]},"category":[{"coding":[{"system":"http://terminology.hl7.org/CodeSystem/condition-category","code":"problem-list-item"}]}],"code":{"coding":[{"system":"http://snomed.info/sct","code":"736686006"}]},"subject":{"reference":"Patient/7159ead8-a8b2-4f0d-bc22-bd641a9a0c24"},"onsetDateTime":"2022-03-17T00:00:00+00:00"},"request":{"method":"POST","url":"Condition"}},{"fullUrl":"Condition/39481065-a5d0-4613-b7a5-3bae2c35033e","resource":{"resourceType":"Condition","id":"39481065-a5d0-4613-b7a5-3bae2c35033e","meta":{"profile":["http://hl7.org/fhir/us/core/StructureDefinition/us-core-condition"]},"clinicalStatus":{"coding":[{"system":"http://terminology.hl7.org/CodeSystem/condition-clinical","code":"active","display":"Active"}]},"category":[{"coding":[{"system":"http://terminology.hl7.org/CodeSystem/condition-category","code":"problem-list-item"}]}],"code":{"coding":[{"system":"http://snomed.info/sct","code":"44882003"}]},"subject":{"reference":"Patient/7159ead8-a8b2-4f0d-bc22-bd641a9a0c24"},"onsetDateTime":"2022-11-26T00:00:00+00:00"},"request":{"method":"POST","url":"Condition"}},{"fullUrl":"Condition/20b274f3-a8f0-412b-915e-ea5498f546f0","resource":{"resourceType":"Condition","id":"20b274f3-a8f0-412b-915e-ea5498f546f0","meta":{"profile":["http://hl7.org/fhir/us/core/StructureDefinition/us-core-condition"]},"clinicalStatus":{"coding":[{"system":"http://terminology.hl7.org/CodeSystem/condition-clinical","code":"active","display":"Active"}]},"category":[{"coding":[{"system":"http://terminology.hl7.org/CodeSystem/condition-category","code":"problem-list-item"}]}],"code":{"coding":[{"system":"http://snomed.info/sct","code":"44882003"}]},"subject":{"reference":"Patient/7159ead8-a8b2-4f0d-bc22-bd641a9a0c24"},"onsetDateTime":"2022-08-12T00:00:00+00:00"},"request":{"method":"POST","url":"Condition"}},{"fullUrl":"Observation/28809cd0-7706-46d1-bde7-238996e19a37","resource":{"resourceType":"Observation","id":"28809cd0-7706-46d1-bde7-238996e19a37","meta":{"profile":["http://hl7.org/fhir/us/core/StructureDefinition/us-core-observation-lab"]},"status":"final","category":[{"coding":[{"system":"http://terminology.hl7.org/CodeSystem/observation-category","code":"laboratory","display":"Laboratory"}]}],"code":{"coding":[{"system":"http://loinc.org","code":"49498-9"}]},"subject":{"reference":"Patient/7159ead8-a8b2-4f0d-bc22-bd641a9a0c24"},"effectiveDateTime":"2022-04-27T00:00:00+00:00","valueQuantity":{"value":8.8}},"request":{"method":"POST","url":"Observation"}},{"fullUrl":"Observation/78440699-c568-4f5a-894f-fa70c53dde8d","resource":{"resourceType":"Observation","id":"78440699-c568-4f5a-894f-fa70c53dde8d","meta":{"profile":["http://hl7.org/fhir/us/core/StructureDefinition/us-core-observation-lab"]},"status":"final","category":[{"coding":[{"system":"http://terminology.hl7.org/CodeSystem/observation-category","code":"laboratory","display":"Laboratory"}]}],"code":{"coding":[{"system":"http://loinc.org","code":"26464-8"}]},"subject":{"reference":"Patient/7159ead8-a8b2-4f0d-bc22-bd641a9a0c24"},"effectiveDateTime":"2022-02-21T00:00:00+00:00","valueQuantity":{"value":10.3}},"request":{"method":"POST","url":"Observation"}},{"fullUrl":"Observation/52a3955e-5b10-43a0-b6e0-eabcbf73099e","resource":{"resourceType":"Observation","id":"52a3955e-5b10-43a0-b6e0-eabcbf73099e","meta":{"profile":["http://hl7.org/fhir/us/core/StructureDefinition/us-core-bmi"]},"status":"final","category":[{"coding":[{"system":"http://terminology.hl7.org/CodeSystem/observation-category","code":"vital-signs","display":"Vital Signs"}]}],"code":{"coding":[{"system":"http://loinc.org","code":"39156-5"}]},"subject":{"reference":"Patient/7159ead8-a8b2-4f0d-bc22-bd641a9a0c24"},"effectiveDateTime":"2022-03-23T00:00:00+00:00","valueQuantity":{"value":17.31,"unit":"kg/m2","system":"http://unitsofmeasure.org","code":"kg/m2"}},"request":{"method":"POST","url":"Observation"}},{"fullUrl":"Observation/2eec942e-d220-4e28-821e-0a3007973a49","resource":{"resourceType":"Observation","id":"2eec942e-d220-4e28-821e-0a3007973a49","meta":{"profile":["http://hl7.org/fhir/us/core/StructureDefinition/us-core-head-circumference"]},"status":"final","category":[{"coding":[{"system":"http://terminology.hl7.org/CodeSystem/observation-category","code":"vital-signs","display":"Vital Signs"}]}],"code":{"coding":[{"system":"http://loinc.org","code":"9843-4"}]},"subject":{"reference":"Patient/7159ead8-a8b2-4f0d-bc22-bd641a9a0c24"},"effectiveDateTime":"2022-03-03T00:00:00+00:00","valueQuantity":{"value":8.5,"unit":"Inch","system":"http://unitsofmeasure.org","code":"[in_i]"}},"request":{"method":"POST","url":"Observation"}},{"fullUrl":"Observation/e9edb966-6835-40e1-8e4e-8a2a24a0e393","resource":{"resourceType":"Observation","id":"e9edb966-6835-40e1-8e4e-8a2a24a0e393","meta":{"profile":["http://hl7.org/fhir/us/core/StructureDefinition/us-core-head-circumference"]},"status":"final","category":[{"coding":[{"system":"http://terminology.hl7.org/CodeSystem/observation-category","code":"vital-signs","display":"Vital Signs"}]}],"code":{"coding":[{"system":"http://loinc.org","code":"9843-4"}]},"subject":{"reference":"Patient/7159ead8-a8b2-4f0d-bc22-bd641a9a0c24"},"effectiveDateTime":"2022-02-28T00:00:00+00:00","valueQuantity":{"value":7.9,"unit":"Inch","system":"http://unitsofmeasure.org","code":"[in_i]"}},"request":{"method":"POST","url":"Observation"}},{"fullUrl":"Observation/d057a453-c992-437b-afe2-408e80c9f53f","resource":{"resourceType":"Observation","id":"d057a453-c992-437b-afe2-408e80c9f53f","meta":{"profile":["http://hl7.org/fhir/us/core/StructureDefinition/us-core-body-height"]},"status":"final","category":[{"coding":[{"system":"http://terminology.hl7.org/CodeSystem/observation-category","code":"vital-signs","display":"Vital Signs"}]}],"code":{"coding":[{"system":"http://loinc.org","code":"8302-2"}]},"subject":{"reference":"Patient/7159ead8-a8b2-4f0d-bc22-bd641a9a0c24"},"effectiveDateTime":"2022-10-21T00:00:00+00:00","valueQuantity":{"value":72.3,"unit":"Inch","system":"http://unitsofmeasure.org","code":"[in_i]"}},"request":{"method":"POST","url":"Observation"}},{"fullUrl":"Observation/606bd945-1444-4c7d-b6a9-0cd8553240cd","resource":{"resourceType":"Observation","id":"606bd945-1444-4c7d-b6a9-0cd8553240cd","meta":{"profile":["http://hl7.org/fhir/us/core/StructureDefinition/us-core-body-weight"]},"status":"final","category":[{"coding":[{"system":"http://terminology.hl7.org/CodeSystem/observation-category","code":"vital-signs","display":"Vital Signs"}]}],"code":{"coding":[{"system":"http://loinc.org","code":"29463-7"}]},"subject":{"reference":"Patient/7159ead8-a8b2-4f0d-bc22-bd641a9a0c24"},"effectiveDateTime":"2022-11-20T00:00:00+00:00","valueQuantity":{"value":88.66,"unit":"kilogram","system":"http://unitsofmeasure.org","code":"kg"}},"request":{"method":"POST","url":"Observation"}},{"fullUrl":"Observation/68dff005-ba4f-4f77-8b1e-b1a6560b8481","resource":{"resourceType":"Observation","id":"68dff005-ba4f-4f77-8b1e-b1a6560b8481","meta":{"profile":["http://hl7.org/fhir/us/core/StructureDefinition/us-core-body-temperature"]},"status":"final","category":[{"coding":[{"system":"http://terminology.hl7.org/CodeSystem/observation-category","code":"vital-signs","display":"Vital Signs"}]}],"code":{"coding":[{"system":"http://loinc.org","code":"8310-5"}]},"subject":{"reference":"Patient/7159ead8-a8b2-4f0d-bc22-bd641a9a0c24"},"effectiveDateTime":"2022-03-18T00:00:00+00:00","valueQuantity":{"value":119.64,"unit":"Degrees Fahrenheit","system":"http://unitsofmeasure.org","code":"[degF]"}},"request":{"method":"POST","url":"Observation"}},{"fullUrl":"Observation/7eb098f7-d3c0-4556-937e-15ebe87aa7e1","resource":{"resourceType":"Observation","id":"7eb098f7-d3c0-4556-937e-15ebe87aa7e1","meta":{"profile":["http://hl7.org/fhir/us/core/StructureDefinition/us-core-heart-rate"]},"status":"final","category":[{"coding":[{"system":"http://terminology.hl7.org/CodeSystem/observation-category","code":"vital-signs","display":"Vital Signs"}]}],"code":{"coding":[{"system":"http://loinc.org","code":"8867-4"}]},"subject":{"reference":"Patient/7159ead8-a8b2-4f0d-bc22-bd641a9a0c24"},"effectiveDateTime":"2022-04-01T00:00:00+00:00","valueQuantity":{"value":98.9,"unit":"Per Minute","system":"http://unitsofmeasure.org","code":"/min"}},"request":{"method":"POST","url":"Observation"}},{"fullUrl":"Observation/97464d19-8be9-4bd4-83ee-08e945e58e1f","resource":{"resourceType":"Observation","id":"97464d19-8be9-4bd4-83ee-08e945e58e1f","meta":{"profile":["http://hl7.org/fhir/us/core/StructureDefinition/us-core-heart-rate"]},"status":"final","category":[{"coding":[{"system":"http://terminology.hl7.org/CodeSystem/observation-category","code":"vital-signs","display":"Vital Signs"}]}],"code":{"coding":[{"system":"http://loinc.org","code":"8867-4"}]},"subject":{"reference":"Patient/7159ead8-a8b2-4f0d-bc22-bd641a9a0c24"},"effectiveDateTime":"2022-08-01T00:00:00+00:00","valueQuantity":{"value":101.8,"unit":"Per Minute","system":"http://unitsofmeasure.org","code":"/min"}},"request":{"method":"POST","url":"Observation"}}]}