{"resourceType":"Bundle","id":"35986272-2548-4e9b-819e-82c32a112a1e","type":"transaction","entry":[{"fullUrl":"Patient/f9801d24-5f49-4bac-b1f4-848c9bb499cf","resource":{"resourceType":"Patient","id":"f9801d24-5f49-4bac-b1f4-848c9bb499cf","identifier":[{"type":{"coding":[{"system":"http://terminology.hl7.org/CodeSystem/v2-0203","code":"MR"}]},"system":"urn:fhirgen:mrn","value":"811-84-5458"},{"system":"http://hl7.org/fhir/sid/us-ssn","value":"582-13-7980"}],"name":[{"use":"official","family":"Williams","given":["Jacob"]},{"use":"maiden","family":"Ross"}],"telecom":[{"system":"phone","value":"(220)482-7101x5515","use":"mobile"},{"system":"email","value":"kruegerkaitlin@hotmail.com","use":"mobile"}],"gender":"male","birthDate":"1999-12-27","address":[{"use":"home","line":["86802 Joseph Motorway Apt. 603"],"city":"Lake Glenda","state":"ME","postalCode":"91672"},{"use":"old","line":["9837 Hubbard Flat Apt. 986"],"city":"Bradleyfort","state":"OK","postalCode":"20486"}],"maritalStatus":{"coding":[{"system":"http://terminology.hl7.org/CodeSystem/v3-MaritalStatus","code":"I","display":"Interlocutory"}]}},"request":{"method":"POST","url":"Patient"}},{"fullUrl":"Observation/0c89bbdd-9e3e-4d90-8fa3-42681433b352","resource":{"resourceType":"Observation","id":"0c89bbdd-9e3e-4d90-8fa3-42681433b352","status":"final","code":{"coding":[{"system":"http://loinc.org","code":"34382-2"}]},"subject":{"reference":"Patient/f9801d24-5f49-4bac-b1f4-848c9bb499cf"},"effectiveDateTime":"2022-03-11T00:00:00+00:00","valueRatio":{"numerator":{"value":1},"denominator":{"value":4}}},"request":{"method":"POST","url":"Observation"}},{"fullUrl":"Observation/0f479f50-2994-4841-aeb7-e85465b0c90d","resource":{"resourceType":"Observation","id":"0f479f50-2994-4841-aeb7-e85465b0c90d","status":"final","code":{"coding":[{"system":"http://loinc.org","code":"46203-6"}]},"subject":{"reference":"Patient/f9801d24-5f49-4bac-b1f4-848c9bb499cf"},"effectiveDateTime":"2022-03-28T00:00:00+00:00","valueRatio":{"numerator":{"value":1},"denominator":{"value":4}}},"request":{"method":"POST","url":"Observation"}},{"fullUrl":"Observation/7933233a-fdab-42a9-a13e-3032f3b97a8f","resource":{"resourceType":"Observation","id":"7933233a-fdab-42a9-a13e-3032f3b97a8f","status":"final","code":{"coding":[{"system":"http://loinc.org","code":"34382-2"}]},"subject":{"reference":"Patient/f9801d24-5f49-4bac-b1f4-848c9bb499cf"},"effectiveDateTime":"2022-10-14T00:00:00+00:00","valueRatio":{"numerator":{"value":1},"denominator":{"value":64}}},"request":{"method":"POST","url":"Observation"}},{"fullUrl":"Condition/ddd4f7ae-383b-4f93-acef-b2cbe12b92ce","resource":{"resourceType":"Condition","id":"ddd4f7ae-383b-4f93-acef-b2cbe12b92ce","code":{"coding":[{"system":"http://snomed.info/sct","code":"248980004"}]},"subject":{"reference":"Patient/f9801d24-5f49-4bac-b1f4-848c9bb499cf"},"onsetDateTime":"2022-06-14T00:00:00+00:00"},"request":{"method":"POST","url":"Condition"}},{"fullUrl":"Condition/49f67113-2917-480d-958f-50792f9ff681","resource":{"resourceType":"Condition","id":"49f67113-2917-480d-958f-50792f9ff681","code":{"coding":[{"system":"http://snomed.info/sct","code":"56317004"}]},"subject":{"reference":"Patient/f9801d24-5f49-4bac-b1f4-848c9bb499cf"},"onsetDateTime":"2022-01-09T00:00:00+00:00"},"request":{"method":"POST","url":"Condition"}},{"fullUrl":"Condition/164ee77c-2a5f-4a67-ad25-a739f9332d44","resource":{"resourceType":"Condition","id":"164ee77c-2a5f-4a67-ad25-a739f9332d44","code":{"coding":[{"system":"http://snomed.info/sct","code":"271939006"}]},"subject":{"reference":"Patient/f9801d24-5f49-4bac-b1f4-848c9bb499cf"},"onsetDateTime":"2022-06-07T00:00:00+00:00"},"request":{"method":"POST","url":"Condition"}},{"fullUrl":"Condition/40987ceb-f933-48f7-b5ef-7c965474e3b7","resource":{"resourceType":"Condition","id":"40987ceb-f933-48f7-b5ef-7c965474e3b7","code":{"coding":[{"system":"http://snomed.info/sct","code":"271807003"}]},"subject":{"reference":"Patient/f9801d24-5f49-4bac-b1f4-848c9bb499cf"},"onsetDateTime":"2022-04-29T00:00:00+00:00"},"request":{"method":"POST","url":"Condition"}},{"fullUrl":"Condition/d3f7cca5-5000-454a-bd24-f7839be7ab1c","resource":{"resourceType":"Condition","id":"d3f7cca5-5000-454a-bd24-f7839be7ab1c","code":{"coding":[{"system":"http://snomed.info/sct","code":"91554004"}]},"subject":{"reference":"Patient/f9801d24-5f49-4bac-b1f4-848c9bb499cf"},"onsetDateTime":"2022-01-30T00:00:00+00:00"},"request":{"method":"POST","url":"Condition"}},{"fullUrl":"Condition/111314e5-046f-463f-b627-c68f2f0239ef","resource":{"resourceType":"Condition","id":"111314e5-046f-463f-b627-c68f2f0239ef","code":{"coding":[{"system":"http://snomed.info/sct","code":"297123002"}]},"subject":{"reference":"Patient/f9801d24-5f49-4bac-b1f4-848c9bb499cf"},"onsetDateTime":"2022-05-19T00:00:00+00:00"},"request":{"method":"POST","url":"Condition"}},{"fullUrl":"Condition/580c0d56-7ebc-4ba6-8b7d-c1f03fab4742","resource":{"resourceType":"Condition","id":"580c0d56-7ebc-4ba6-8b7d-c1f03fab4742","code":{"coding":[{"system":"http://snomed.info/sct","code":"91554004"}]},"subject":{"reference":"Patient/f9801d24-5f49-4bac-b1f4-848c9bb499cf"},"onsetDateTime":"2022-03-26T00:00:00+00:00"},"request":{"method":"POST","url":"Condition"}},{"fullUrl":"Condition/2ccea50e-f6d0-4749-a482-5a919b3bd41e","resource":{"resourceType":"Condition","id":"2ccea50e-f6d0-4749-a482-5a919b3bd41e","code":{"coding":[{"system":"http://snomed.info/sct","code":"709977002"}]},"subject":{"reference":"Patient/f9801d24-5f49-4bac-b1f4-848c9bb499cf"},"onsetDateTime":"2022-02-14T00:00:00+00:00"},"request":{"method":"POST","url":"Condition"}},{"fullUrl":"Observation/02b40810-8e1f-499e-9d4f-2d68f537ee9e","resource":{"resourceType":"Observation","id":"02b40810-8e1f-499e-9d4f-2d68f537ee9e","status":"final","code":{"coding":[{"system":"http://loinc.org","code":"49498-9"}]},"subject":{"reference":"Patient/f9801d24-5f49-4bac-b1f4-848c9bb499cf"},"effectiveDateTime":"2022-11-07T00:00:00+00:00","valueQuantity":{"value":7}},"request":{"method":"POST","url":"Observation"}},{"fullUrl":"Observation/b7061653-1db9-4c79-b8e0-0c61f2eab52e","resource":{"resourceType":"Observation","id":"b7061653-1db9-4c79-b8e0-0c61f2eab52e","status":"final","code":{"coding":[{"system":"http://loinc.org","code":"6690-2"}]},"subject":{"reference":"Patient/f9801d24-5f49-4bac-b1f4-848c9bb499cf"},"effectiveDateTime":"2022-06-03T00:00:00+00:00","valueQuantity":{"value":5.8}},"request":{"method":"POST","url":"Observation"}},{"fullUrl":"Observation/2ff14301-88b3-4093-b538-8cc8127f1c7c","resource":{"resourceType":"Observation","id":"2ff14301-88b3-4093-b538-8cc8127f1c7c","status":"final","code":{"coding":[{"system":"http://loinc.org","code":"26464-8"}]},"subject":{"reference":"Patient/f9801d24-5f49-4bac-b1f4-848c9bb499cf"},"effectiveDateTime":"2022-12-24T00:00:00+00:00","valueCodeableConcept":{"coding":[{"system":"snomed","code":"123456","display":"fake snomed"}]}},"request":{"method":"POST","url":"Observation"}},{"fullUrl":"Observation/328c9e6f-1691-42a6-a5a0-27f286dd6f5a","resource":{"resourceType":"Observation","id":"328c9e6f-1691-42a6-a5a0-27f286dd6f5a","status":"final","code":{"coding":[{"system":"http://loinc.org","code":"49498-9"}]},"subject":{"reference":"Patient/f9801d24-5f49-4bac-b1f4-848c9bb499cf"},"effectiveDateTime":"2022-08-25T00:00:00+00:00","valueCodeableConcept":{"coding":[{"system":"snomed","code":"123456","display":"fake snomed"}]}},"request":{"method":"POST","url":"Observation"}},{"fullUrl":"Observation/b6101540-d306-43a1-809f-36381de84e2b","resource":{"resourceType":"Observation","id":"b6101540-d306-43a1-809f-36381de84e2b","status":"final","code":{"coding":[{"system":"http://loinc.org","code":"49498-9"}]},"subject":{"reference":"Patient/f9801d24-5f49-4bac-b1f4-848c9bb499cf"},"effectiveDateTime":"2022-07-09T00:00:00+00:00"},"request":{"method":"POST","url":"Observation"}},{"fullUrl":"Observation/95a9d96c-a9dd-4b03-bd0c-0861a4d43a3d","resource":{"resourceType":"Observation","id":"95a9d96c-a9dd-4b03-bd0c-0861a4d43a3d","status":"final","code":{"coding":[{"system":"http://loinc.org","code":"49498-9"}]},"subject":{"reference":"Patient/f9801d24-5f49-4bac-b1f4-848c9bb499cf"},"effectiveDateTime":"2022-06-04T00:00:00+00:00"},"request":{"method":"POST","url":"Observation"}},{"fullUrl":"Observation/6bb468d2-325c-406c-b927-66f9d0b72e76","resource":{"resourceType":"Observation","id":"6bb468d2-325c-406c-b927-66f9d0b72e76","status":"final","code":{"coding":[{"system":"http://loinc.org","code":"49498-9"}]},"subject":{"reference":"Patient/f9801d24-5f49-4bac-b1f4-848c9bb499cf"},"effectiveDateTime":"2022-05-11T00:00:00+00:00"},"request":{"method":"POST","url":"Observation"}},{"fullUrl":"Procedure/ebf6d495-aa90-40fb-98b7-3a990ca7e4c3","resource":{"resourceType":"Procedure","id":"ebf6d495-aa90-40fb-98b7-3a990ca7e4c3","status":"completed","code":{"coding":[{"system":"http://snomed.info/sct","code":"189009"}]},"subject":{"reference":"Patient/f9801d24-5f49-4bac-b1f4-848c9bb499cf"},"performedDateTime":"2022-09-03T00:00:00+00:00"},"request":{"method":"POST","url":"Procedure"}},{"fullUrl":"Procedure/36240ae9-befe-487e-b1a1-3cd1faaafff9","resource":{"resourceType":"Procedure","id":"36240ae9-befe-487e-b1a1-3cd1faaafff9","status":"completed","code":{"coding":[{"system":"http://snomed.info/sct","code":"647000"}]},"subject":{"reference":"Patient/f9801d24-5f49-4bac-b1f4-848c9bb499cf"},"performedDateTime":"2022-06-08T00:00:00+00:00"},"request":{"method":"POST","url":"Procedure"}},{"fullUrl":"Procedure/f09b15bf-8da1-4dd4-af63-b92d1f886bfb","resource":{"resourceType":"Procedure","id":"f09b15bf-8da1-4dd4-af63-b92d1f886bfb","status":"completed","code":{"coding":[{"system":"http://snomed.info/sct","code":"146005"}]},"subject":{"reference":"Patient/f9801d24-5f49-4bac-b1f4-848c9bb499cf"},"performedDateTime":"2022-05-07T00:00:00+00:00"},"request":{"method":"POST","url":"Procedure"}},{"fullUrl":"MedicationStatement/ff5951bf-f149-4aa1-b8e9-4d03f36fbd65","resource":{"resourceType":"MedicationStatement","id":"ff5951bf-f149-4aa1-b8e9-4d03f36fbd65","status":"completed","medicationCodeableConcept":{"coding":[{"system":"http://www.nlm.nih.gov/research/umls/rxnorm","code":"7980"}]},"subject":{"reference":"Patient/f9801d24-5f49-4bac-b1f4-848c9bb499cf"},"effectiveDateTime":"2022-07-01T00:00:00+00:00","dosage":[{"doseAndRate":[{"doseQuantity":{"value":2,"unit":"TAB","system":"http://terminology.hl7.org/CodeSystem/v3-orderableDrugForm","code":"TAB"}}]}]},"request":{"method":"POST","url":"MedicationStatement"}},{"fullUrl":"MedicationStatement/bc7c3a10-4e11-4286-bb9f-cc4791a43fb9","resource":{"resourceType":"MedicationStatement","id":"bc7c3a10-4e11-4286-bb9f-cc4791a43fb9","status":"completed","medicationCodeableConcept":{"coding":[{"system":"http://www.nlm.nih.gov/research/umls/rxnorm","code":"2193"}]},"subject":{"reference":"Patient/f9801d24-5f49-4bac-b1f4-848c9bb499cf"},"effectiveDateTime":"2022-07-24T00:00:00+00:00","dosage":[{"doseAndRate":[{"doseQuantity":{"value":1,"unit":"TAB","system":"http://terminology.hl7.org/CodeSystem/v3-orderableDrugForm","code":"TAB"}}]}]},"request":{"method":"POST","url":"MedicationStatement"}},{"fullUrl":"MedicationStatement/3321f969-0251-48ac-85a0-020b18eeaff2","resource":{"resourceType":"MedicationStatement","id":"3321f969-0251-48ac-85a0-020b18eeaff2","status":"completed","medicationCodeableConcept":{"coding":[{"system":"http://www.nlm.nih.gov/research/umls/rxnorm","code":"7984"}]},"subject":{"reference":"Patient/f9801d24-5f49-4bac-b1f4-848c9bb499cf"},"effectiveDateTime":"2022-06-17T00:00:00+00:00","dosage":[{"doseAndRate":[{"doseQuantity":{"value":2,"unit":"TAB","system":"http://terminology.hl7.org/CodeSystem/v3-orderableDrugForm","code":"TAB"}}]}]},"request":{"method":"POST","url":"MedicationStatement"}},{"fullUrl":"MedicationStatement/739f447f-4505-4b9b-9154-7e999274e4bc","resource":{"resourceType":"MedicationStatement","id":"739f447f-4505-4b9b-9154-7e999274e4bc","status":"completed","medicationCodeableConcept":{"coding":[{"system":"http://www.nlm.nih.gov/research/umls/rxnorm","code":"7980"}]},"subject":{"reference":"Patient/f9801d24-5f49-4bac-b1f4-848c9bb499cf"},"effectiveDateTime":"2022-07-13T00:00:00+00:00","dosage":[{"doseAndRate":[{"doseQuantity":{"value":1,"unit":"TAB","system":"http://terminology.hl7.org/CodeSystem/v3-orderableDrugForm","code":"TAB"}}]}]},"request":{"method":"POST","url":"MedicationStatement"}},{"fullUrl":"MedicationStatement/4a034cd5-18a5-4391-840a-7c386b04e8ff","resource":{"resourceType":"MedicationStatement","id":"4a034cd5-18a5-4391-840a-7c386b04e8ff","status":"completed","medicationCodeableConcept":{"coding":[{"system":"http://www.nlm.nih.gov/research/umls/rxnorm","code":"7980"}]},"subject":{"reference":"Patient/f9801d24-5f49-4bac-b1f4-848c9bb499cf"},"effectiveDateTime":"2022-06-26T00:00:00+00:00","dosage":[{"doseAndRate":[{"doseQuantity":{"value":7,"unit":"TAB","system":"http://terminology.hl7.org/CodeSystem/v3-orderableDrugForm","code":"TAB"}}]}]},"request":{"method":"POST","url":"MedicationStatement"}},{"fullUrl":"MedicationStatement/17a72139-fb52-45ab-a810-4d2ecebb7559","resource":{"resourceType":"MedicationStatement","id":"17a72139-fb52-45ab-a810-4d2ecebb7559","status":"completed","medicationCodeableConcept":{"coding":[{"system":"http://www.nlm.nih.gov/research/umls/rxnorm","code":"8698"}]},"subject":{"reference":"Patient/f9801d24-5f49-4bac-b1f4-848c9bb499cf"},"effectiveDateTime":"2022-02-21T00:00:00+00:00","dosage":[{"doseAndRate":[{"doseQuantity":{"value":5.4,"unit":"TAB","system":"http://terminology.hl7.org/CodeSystem/v3-orderableDrugForm","code":"TAB"}}]}]},"request":{"method":"POST","url":"MedicationStatement"}},{"fullUrl":"MedicationStatement/286d7671-f320-4ff5-bff0-9b717a2a515e","resource":{"resourceType":"MedicationStatement","id":"286d7671-f320-4ff5-bff0-9b717a2a515e","status":"completed","medicationCodeableConcept":{"coding":[{"system":"http://www.nlm.nih.gov/research/umls/rxnorm","code":"2193"}]},"subject":{"reference":"Patient/f9801d24-5f49-4bac-b1f4-848c9bb499cf"},"effectiveDateTime":"2022-08-30T00:00:00+00:00","dosage":[{"doseAndRate":[{"doseQuantity":{"value":4.3,"unit":"TAB","system":"http://terminology.hl7.org/CodeSystem/v3-orderableDrugForm","code":"TAB"}}]}]},"request":{"method":"POST","url":"MedicationStatement"}},{"fullUrl":"MedicationStatement/0b655781-f6f7-41ab-9a98-0442ca38ef6b","resource":{"resourceType":"MedicationStatement","id":"0b655781-f6f7-41ab-9a98-0442ca38ef6b","status":"completed","medicationCodeableConcept":{"coding":[{"system":"http://www.nlm.nih.gov/research/umls/rxnorm","code":"2193"}]},"subject":{"reference":"Patient/f9801d24-5f49-4bac-b1f4-848c9bb499cf"},"effectiveDateTime":"2022-01-26T00:00:00+00:00","dosage":[{"doseAndRate":[{"doseQuantity":{"value":3.9,"unit":"TAB","system":"http://terminology.hl7.org/CodeSystem/v3-orderableDrugForm","code":"TAB"}}]}]},"request":{"method":"POST","url":"MedicationStatement"}},{"fullUrl":"Encounter/d55a6389-a4a1-4af3-aa9e-b86f3d230580","resource":{"resourceType":"Encounter","id":"d55a6389-a4a1-4af3-aa9e-b86f3d230580","status":"finished","class":{"system":"http://terminology.hl7.org/CodeSystem/v3-ActCode","code":"IMP","display":"inpatient encounter"},"type":[{"coding":[{"system":"http://terminology.hl7.org/CodeSystem/encounter-type","code":"BD/BM-clin"}]}],"subject":{"reference":"Patient/f9801d24-5f49-4bac-b1f4-848c9bb499cf"},"period":{"start":"2022-11-26T00:00:00+00:00","end":"2022-11-30T00:00:00+00:00"}},"request":{"method":"POST","url":"Encounter"}},{"fullUrl":"Encounter/ce660374-ebb3-452e-ab86-a41e601ce28d","resource":{"resourceType":"Encounter","id":"ce660374-ebb3-452e-ab86-a41e601ce28d","status":"finished","class":{"system":"http://terminology.hl7.org/CodeSystem/v3-ActCode","code":"IMP","display":"inpatient encounter"},"type":[{"coding":[{"system":"http://terminology.hl7.org/CodeSystem/encounter-type","code":"BD/BM-clin"}]}],"subject":{"reference":"Patient/f9801d24-5f49-4bac-b1f4-848c9bb499cf"},"period":{"start":"2022-05-30T00:00:00+00:00","end":"2022-06-04T00:00:00+00:00"}},"request":{"method":"POST","url":"Encounter"}},{"fullUrl":"Encounter/55db9ff4-bab9-4f25-90a8-1a0a75554e8c","resource":{"resourceType":"Encounter","id":"55db9ff4-bab9-4f25-90a8-1a0a75554e8c","status":"finished","class":{"system":"http://terminology.hl7.org/CodeSystem/v3-ActCode","code":"FLD","display":"field"},"type":[{"coding":[{"system":"http://terminology.hl7.org/CodeSystem/encounter-type","code":"BD/BM-clin"}]}],"subject":{"reference":"Patient/f9801d24-5f49-4bac-b1f4-848c9bb499cf"},"period":{"start":"2022-08-05T00:00:00+00:00","end":"2022-08-10T00:00:00+00:00"}},"request":{"method":"POST","url":"Encounter"}},{"fullUrl":"Encounter/bf6fdabf-5203-4449-b9da-a4e352c1da19","resource":{"resourceType":"Encounter","id":"bf6fdabf-5203-4449-b9da-a4e352c1da19","status":"finished","class":{"system":"http://terminology.hl7.org/CodeSystem/v3-ActCode","code":"OBSENC","display":"observation encounter"},"type":[{"coding":[{"system":"http://terminology.hl7.org/CodeSystem/encounter-type","code":"BD/BM-clin"}]}],"subject":{"reference":"Patient/f9801d24-5f49-4bac-b1f4-848c9bb499cf"},"period":{"start":"2022-12-06T00:00:00+00:00","end":"2022-12-12T00:00:00+00:00"}},"request":{"method":"POST","url":"Encounter"}},{"fullUrl":"Location/75c1a7f8-8b5f-4c0d-88a8-719248781324","resource":{"resourceType":"Location","id":"75c1a7f8-8b5f-4c0d-88a8-719248781324","status":"active","name":"Lee and Sons","telecom":[{"system":"phone","value":"982.908.4099x885","use":"work"}],"address":{"use":"work","line":["243 Martinez Groves"],"city":"Smithmouth","state":"AZ","postalCode":"15833"}},"request":{"method":"POST","url":"Location"}},{"fullUrl":"Observation/245efca2-160c-4215-b7a7-eae1d880895b","resource":{"resourceType":"Observation","id":"245efca2-160c-4215-b7a7-eae1d880895b","status":"final","code":{"coding":[{"system":"http://loinc.org","code":"81956-5"}]},"subject":{"reference":"Patient/f9801d24-5f49-4bac-b1f4-848c9bb499cf"},"effectiveDateTime":"2022-03-02T00:00:00+00:00","valueDateTime":"2021-12-20T00:00:00+00:00"},"request":{"method":"POST","url":"Observation"}},{"fullUrl":"Patient/bcf51f19-7f6a-4a2a-9f4e-093ab7cdeafd","resource":{"resourceType":"Patient","id":"bcf51f19-7f6a-4a2a-9f4e-093ab7cdeafd","identifier":[{"type":{"coding":[{"system":"http://terminology.hl7.org/CodeSystem/v2-0203","code":"MR"}]},"system":"urn:fhirgen:mrn","value":"358-25-6396"},{"system":"http://hl7.org/fhir/sid/us-ssn","value":"348-18-2383"}],"name":[{"use":"official","family":"Mack","given":["Nathan"]},{"use":"maiden","family":"Baker"}],"telecom":[{"system":"phone","value":"(842)453-5505","use":"mobile"},{"system":"email","value":"hdudley@hotmail.com","use":"home"}],"gender":"male","birthDate":"1955-10-05","address":[{"use":"home","line":["629 Juarez Loop Apt. 981"],"city":"Bishopmouth","state":"MO","postalCode":"52994"},{"use":"old","line":["4439 Timothy Spurs"],"city":"Toddtown","state":"SC","postalCode":"75377"}],"maritalStatus":{"coding":[{"system":"http://terminology.hl7.org/CodeSystem/v3-MaritalStatus","code":"A","display":"Annulled"}]}},"request":{"method":"POST","url":"Patient"}},{"fullUrl":"Observation/025ac95c-80ca-4718-a21a-b5c523b75748","resource":{"resourceType":"Observation","id":"025ac95c-80ca-4718-a21a-b5c523b75748","status":"final","code":{"coding":[{"system":"http://loinc.org","code":"31146-4"}]},"subject":{"reference":"Patient/bcf51f19-7f6a-4a2a-9f4e-093ab7cdeafd"},"effectiveDateTime":"2022-07-02T00:00:00+00:00","valueRatio":{"numerator":{"value":1},"denominator":{"value":32}}},"request":{"method":"POST","url":"Observation"}},{"fullUrl":"Observation/9db07984-84dd-4ea6-91b1-9b803a392682","resource":{"resourceType":"Observation","id":"9db07984-84dd-4ea6-91b1-9b803a392682","status":"final","code":{"coding":[{"system":"http://loinc.org","code":"87925-4"}]},"subject":{"reference":"Patient/bcf51f19-7f6a-4a2a-9f4e-093ab7cdeafd"},"effectiveDateTime":"2022-02-24T00:00:00+00:00","valueRatio":{"numerator":{"value":1},"denominator":{"value":4}}},"request":{"method":"POST","url":"Observation"}},{"fullUrl":"Observation/6fddfd26-e473-4c52-9379-111e6e9277a8","resource":{"resourceType":"Observation","id":"6fddfd26-e473-4c52-9379-111e6e9277a8","status":"final","code":{"coding":[{"system":"http://loinc.org","code":"22590-4"}]},"subject":{"reference":"Patient/bcf51f19-7f6a-4a2a-9f4e-093ab7cdeafd"},"effectiveDateTime":"2022-03-30T00:00:00+00:00","valueRatio":{"numerator":{"value":1},"denominator":{"value":32}}},"request":{"method":"POST","url":"Observation"}},{"fullUrl":"Condition/d897feba-9636-4188-9cc3-7378359c5713","resource":{"resourceType":"Condition","id":"d897feba-9636-4188-9cc3-7378359c5713","code":{"coding":[{"system":"http://snomed.info/sct","code":"18165001"}]},"subject":{"reference":"Patient/bcf51f19-7f6a-4a2a-9f4e-093ab7cdeafd"},"onsetDateTime":"2022-10-31T00:00:00+00:00"},"request":{"method":"POST","url":"Condition"}},{"fullUrl":"Condition/14b34caa-e755-41de-b514-600f9677d83b","resource":{"resourceType":"Condition","id":"14b34caa-e755-41de-b514-600f9677d83b","code":{"coding":[{"system":"http://snomed.info/sct","code":"71315007"}]},"subject":{"reference":"Patient/bcf51f19-7f6a-4a2a-9f4e-093ab7cdeafd"},"onsetDateTime":"2022-10-28T00:00:00+00:00"},"request":{"method":"POST","url":"Condition"}},{"fullUrl":"Condition/456a6acb-eb5e-4a9f-a0c7-1e77005b56e7","resource":{"resourceType":"Condition","id":"456a6acb-eb5e-4a9f-a0c7-1e77005b56e7","code":{"coding":[{"system":"http://snomed.info/sct","code":"418290006"}]},"subject":{"reference":"Patient/bcf51f19-7f6a-4a2a-9f4e-093ab7cdeafd"},"onsetDateTime":"2022-03-09T00:00:00+00:00"},"request":{"method":"POST","url":"Condition"}},{"fullUrl":"Condition/a21a2806-308e-44b2-accd-eb14b7b6a8fe","resource":{"resourceType":"Condition","id":"a21a2806-308e-44b2-accd-eb14b7b6a8fe","code":{"coding":[{"system":"http://snomed.info/sct","code":"736686006"}]},"subject":{"reference":"Patient/bcf51f19-7f6a-4a2a-9f4e-093ab7cdeafd"},"onsetDateTime":"2022-01-11T00:00:00+00:00"},"request":{"method":"POST","url":"Condition"}},{"fullUrl":"Condition/fd1f4b8a-b906-485a-9896-11e41f7abb62","resource":{"resourceType":"Condition","id":"fd1f4b8a-b906-485a-9896-11e41f7abb62","code":{"coding":[{"system":"http://snomed.info/sct","code":"3951002"}]},"subject":{"reference":"Patient/bcf51f19-7f6a-4a2a-9f4e-093ab7cdeafd"},"onsetDateTime":"2022-06-25T00:00:00+00:00"},"request":{"method":"POST","url":"Condition"}},{"fullUrl":"Condition/666fad72-4407-4915-a274-70a846f1ff95","resource":{"resourceType":"Condition","id":"666fad72-4407-4915-a274-70a846f1ff95","code":{"coding":[{"system":"http://snomed.info/sct","code":"3951002"}]},"subject":{"reference":"Patient/bcf51f19-7f6a-4a2a-9f4e-093ab7cdeafd"},"onsetDateTime":"2022-05-27T00:00:00+00:00"},"request":{"method":"POST","url":"Condition"}},{"fullUrl":"Condition/bfdbd0cd-aa8b-4b1a-ae82-39f8138231ed","resource":{"resourceType":"Condition","id":"bfdbd0cd-aa8b-4b1a-ae82-39f8138231ed","code":{"coding":[{"system":"http://snomed.info/sct","code":"56317004"}]},"subject":{"reference":"Patient/bcf51f19-7f6a-4a2a-9f4e-093ab7cdeafd"},"onsetDateTime":"2022-03-30T00:00:00+00:00"},"request":{"method":"POST","url":"Condition"}},{"fullUrl":"Condition/82c35d2a-64e5-4ca3-84c9-74b43dc3c5d0","resource":{"resourceType":"Condition","id":"82c35d2a-64e5-4ca3-84c9-74b43dc3c5d0","code":{"coding":[{"system":"http://snomed.info/sct","code":"71315007"}]},"subject":{"reference":"Patient/bcf51f19-7f6a-4a2a-9f4e-093ab7cdeafd"},"onsetDateTime":"2022-07-25T00:00:00+00:00"},"request":{"method":"POST","url":"Condition"}},{"fullUrl":"Observation/7a4936bb-38b3-46ac-b83c-b8d86f7341c4","resource":{"resourceType":"Observation","id":"7a4936bb-38b3-46ac-b83c-b8d86f7341c4","status":"final","code":{"coding":[{"system":"http://loinc.org","code":"49498-9"}]},"subject":{"reference":"Patient/bcf51f19-7f6a-4a2a-9f4e-093ab7cdeafd"},"effectiveDateTime":"2022-05-26T00:00:00+00:00","valueQuantity":{"value":10.7}},"request":{"method":"POST","url":"Observation"}},{"fullUrl":"Observation/b70452f1-f71f-4c43-bbf8-0350950786c4","resource":{"resourceType":"Observation","id":"b70452f1-f71f-4c43-bbf8-0350950786c4","status":"final","code":{"coding":[{"system":"http://www.ama-assn.org/go/cpt","code":"85048"}]},"subject":{"reference":"Patient/bcf51f19-7f6a-4a2a-9f4e-093ab7cdeafd"},"effectiveDateTime":"2022-07-24T00:00:00+00:00","valueQuantity":{"value":9.5}},"request":{"method":"POST","url":"Observation"}},{"fullUrl":"Observation/4b29ae31-02b1-4ee2-a90e-195c9ec3b114","resource":{"resourceType":"Observation","id":"4b29ae31-02b1-4ee2-a90e-195c9ec3b114","status":"final","code":{"coding":[{"system":"http://loinc.org","code":"49498-9"}]},"subject":{"reference":"Patient/bcf51f19-7f6a-4a2a-9f4e-093ab7cdeafd"},"effectiveDateTime":"2022-04-11T00:00:00+00:00","valueQuantity":{"value":8.7}},"request":{"method":"POST","url":"Observation"}},{"fullUrl":"Observation/001e13fb-c327-4e4d-afdc-0907f808426d","resource":{"resourceType":"Observation","id":"001e13fb-c327-4e4d-afdc-0907f808426d","status":"final","code":{"coding":[{"system":"http://loinc.org","code":"804-5"}]},"subject":{"reference":"Patient/bcf51f19-7f6a-4a2a-9f4e-093ab7cdeafd"},"effectiveDateTime":"2022-02-14T00:00:00+00:00","valueCodeableConcept":{"coding":[{"system":"snomed","code":"123456","display":"fake snomed"}]}},"request":{"method":"POST","url":"Observation"}},{"fullUrl":"Observation/90317b82-4e9e-4ef9-b10c-a3b256a6b20c","resource":{"resourceType":"Observation","id":"90317b82-4e9e-4ef9-b10c-a3b256a6b20c","status":"final","code":{"coding":[{"system":"http://loinc.org","code":"804-5"}]},"subject":{"reference":"Patient/bcf51f19-7f6a-4a2a-9f4e-093ab7cdeafd"},"effectiveDateTime":"2022-03-16T00:00:00+00:00","valueCodeableConcept":{"coding":[{"system":"snomed","code":"123456","display":"fake snomed"}]}},"request":{"method":"POST","url":"Observation"}},{"fullUrl":"Observation/f00c56c3-85d0-4857-ac7f-b9b5cb5dea89","resource":{"resourceType":"Observation","id":"f00c56c3-85d0-4857-ac7f-b9b5cb5dea89","status":"final","code":{"coding":[{"system":"http://loinc.org","code":"6690-2"}]},"subject":{"reference":"Patient/bcf51f19-7f6a-4a2a-9f4e-093ab7cdeafd"},"effectiveDateTime":"2022-03-11T00:00:00+00:00","valueCodeableConcept":{"coding":[{"system":"snomed","code":"123456","display":"fake snomed"}]}},"request":{"method":"POST","url":"Observation"}},{"fullUrl":"Observation/198f4cbf-a712-4040-8de2-8af7bdea6281","resource":{"resourceType":"Observation","id":"198f4cbf-a712-4040-8de2-8af7bdea6281","status":"final","code":{"coding":[{"system":"http://loinc.org","code":"49498-9"}]},"subject":{"reference":"Patient/bcf51f19-7f6a-4a2a-9f4e-093ab7cdeafd"},"effectiveDateTime":"2022-02-09T00:00:00+00:00"},"request":{"method":"POST","url":"Observation"}},{"fullUrl":"Observation/26154494-6af5-468d-b94b-96af2e157232","resource":{"resourceType":"Observation","id":"26154494-6af5-468d-b94b-96af2e157232","status":"final","code":{"coding":[{"system":"http://loinc.org","code":"49498-9"}]},"subject":{"reference":"Patient/bcf51f19-7f6a-4a2a-9f4e-093ab7cdeafd"},"effectiveDateTime":"2022-07-07T00:00:00+00:00"},"request":{"method":"POST","url":"Observation"}},{"fullUrl":"Procedure/be566fbf-8ccd-41fa-8510-3710dec31975","resource":{"resourceType":"Procedure","id":"be566fbf-8ccd-41fa-8510-3710dec31975","status":"completed","code":{"coding":[{"system":"http://snomed.info/sct","code":"146005"}]},"subject":{"reference":"Patient/bcf51f19-7f6a-4a2a-9f4e-093ab7cdeafd"},"performedDateTime":"2022-08-17T00:00:00+00:00"},"request":{"method":"POST","url":"Procedure"}},{"fullUrl":"Procedure/5d76a9f6-e8b6-4a27-9ca5-f146463ae129","resource":{"resourceType":"Procedure","id":"5d76a9f6-e8b6-4a27-9ca5-f146463ae129","status":"completed","code":{"coding":[{"system":"http://snomed.info/sct","code":"104001"}]},"subject":{"reference":"Patient/bcf51f19-7f6a-4a2a-9f4e-093ab7cdeafd"},"performedDateTime":"2022-01-13T00:00:00+00:00"},"request":{"method":"POST","url":"Procedure"}},{"fullUrl":"Procedure/d769e15d-b1d6-43eb-a4db-c942cf6230fe","resource":{"resourceType":"Procedure","id":"d769e15d-b1d6-43eb-a4db-c942cf6230fe","status":"completed","code":{"coding":[{"system":"http://snomed.info/sct","code":"104001"}]},"subject":{"reference":"Patient/bcf51f19-7f6a-4a2a-9f4e-093ab7cdeafd"},"performedDateTime":"2022-01-18T00:00:00+00:00"},"request":{"method":"POST","url":"Procedure"}},{"fullUrl":"MedicationStatement/8bd4517b-52b7-4d36-82b5-2baa9fc3e533","resource":{"resourceType":"MedicationStatement","id":"8bd4517b-52b7-4d36-82b5-2baa9fc3e533","status":"completed","medicationCodeableConcept":{"coding":[{"system":"http://www.nlm.nih.gov/research/umls/rxnorm","code":"8698"}]},"subject":{"reference":"Patient/bcf51f19-7f6a-4a2a-9f4e-093ab7cdeafd"},"effectiveDateTime":"2022-05-13T00:00:00+00:00","dosage":[{"doseAndRate":[{"doseQuantity":{"value":2,"unit":"TAB","system":"http://terminology.hl7.org/CodeSystem/v3-orderableDrugForm","code":"TAB"}}]}]},"request":{"method":"POST","url":"MedicationStatement"}},{"fullUrl":"MedicationStatement/2b91f142-41c6-44ff-b047-842ae0b92094","resource":{"resourceType":"MedicationStatement","id":"2b91f142-41c6-44ff-b047-842ae0b92094","status":"completed","medicationCodeableConcept":{"coding":[{"system":"http://www.nlm.nih.gov/research/umls/rxnorm","code":"3640"}]},"subject":{"reference":"Patient/bcf51f19-7f6a-4a2a-9f4e-093ab7cdeafd"},"effectiveDateTime":"2022-06-19T00:00:00+00:00","dosage":[{"doseAndRate":[{"doseQuantity":{"value":1,"unit":"TAB","system":"http://terminology.hl7.org/CodeSystem/v3-orderableDrugForm","code":"TAB"}}]}]},"request":{"method":"POST","url":"MedicationStatement"}},{"fullUrl":"MedicationStatement/8f0987ae-44c2-4da5-96b9-9df181c487cb","resource":{"resourceType":"MedicationStatement","id":"8f0987ae-44c2-4da5-96b9-9df181c487cb","status":"completed","medicationCodeableConcept":{"coding":[{"system":"http://www.nlm.nih.gov/research/umls/rxnorm","code":"3640"}]},"subject":{"reference":"Patient/bcf51f19-7f6a-4a2a-9f4e-093ab7cdeafd"},"effectiveDateTime":"2022-09-17T00:00:00+00:00","dosage":[{"doseAndRate":[{"doseQuantity":{"value":2,"unit":"TAB","system":"http://terminology.hl7.org/CodeSystem/v3-orderableDrugForm","code":"TAB"}}]}]},"request":{"method":"POST","url":"MedicationStatement"}},{"fullUrl":"MedicationStatement/7f48e834-97f8-4441-9b67-594c9861f019","resource":{"resourceType":"MedicationStatement","id":"7f48e834-97f8-4441-9b67-594c9861f019","status":"completed","medicationCodeableConcept":{"coding":[{"system":"http://www.nlm.nih.gov/research/umls/rxnorm","code":"3640"}]},"subject":{"reference":"Patient/bcf51f19-7f6a-4a2a-9f4e-093ab7cdeafd"},"effectiveDateTime":"2022-07-17T00:00:00+00:00","dosage":[{"doseAndRate":[{"doseQuantity":{"value":1,"unit":"TAB","system":"http://terminology.hl7.org/CodeSystem/v3-orderableDrugForm","code":"TAB"}}]}]},"request":{"method":"POST","url":"MedicationStatement"}},{"fullUrl":"MedicationStatement/f1df98f7-3fc8-4426-8495-2bbf6c92ba5b","resource":{"resourceType":"MedicationStatement","id":"f1df98f7-3fc8-4426-8495-2bbf6c92ba5b","status":"completed","medicationCodeableConcept":{"coding":[{"system":"http://www.nlm.nih.gov/research/umls/rxnorm","code":"2193"}]},"subject":{"reference":"Patient/bcf51f19-7f6a-4a2a-9f4e-093ab7cdeafd"},"effectiveDateTime":"2022-04-19T00:00:00+00:00","dosage":[{"doseAndRate":[{"doseQuantity":{"value":1,"unit":"TAB","system":"http://terminology.hl7.org/CodeSystem/v3-orderableDrugForm","code":"TAB"}}]}]},"request":{"method":"POST","url":"MedicationStatement"}},{"fullUrl":"MedicationStatement/02aa0aa1-9231-438e-a5e5-50f1b6954806","resource":{"resourceType":"MedicationStatement","id":"02aa0aa1-9231-438e-a5e5-50f1b6954806","status":"completed","medicationCodeableConcept":{"coding":[{"system":"http://www.nlm.nih.gov/research/umls/rxnorm","code":"8698"}]},"subject":{"reference":"Patient/bcf51f19-7f6a-4a2a-9f4e-093ab7cdeafd"},"effectiveDateTime":"2022-04-23T00:00:00+00:00","dosage":[{"doseAndRate":[{"doseQuantity":{"value":3.1,"unit":"TAB","system":"http://terminology.hl7.org/CodeSystem/v3-orderableDrugForm","code":"TAB"}}]}]},"request":{"method":"POST","url":"MedicationStatement"}},{"fullUrl":"Encounter/7887e5f0-c424-4556-9725-384e7736bc18","resource":{"resourceType":"Encounter","id":"7887e5f0-c424-4556-9725-384e7736bc18","status":"finished","class":{"system":"http://terminology.hl7.org/CodeSystem/v3-ActCode","code":"IMP","display":"inpatient encounter"},"type":[{"coding":[{"system":"http://terminology.hl7.org/CodeSystem/encounter-type","code":"CCS60"}]}],"subject":{"reference":"Patient/bcf51f19-7f6a-4a2a-9f4e-093ab7cdeafd"},"period":{"start":"2022-06-03T00:00:00+00:00","end":"2022-06-04T00:00:00+00:00"}},"request":{"method":"POST","url":"Encounter"}},{"fullUrl":"Encounter/2a905fe3-54ca-41da-a3e3-c67082669845","resource":{"resourceType":"Encounter","id":"2a905fe3-54ca-41da-a3e3-c67082669845","status":"finished","class":{"system":"http://terminology.hl7.org/CodeSystem/v3-ActCode","code":"IMP","display":"inpatient encounter"},"type":[{"coding":[{"system":"http://terminology.hl7.org/CodeSystem/encounter-type","code":"CCS60"}]}],"subject":{"reference":"Patient/bcf51f19-7f6a-4a2a-9f4e-093ab7cdeafd"},"period":{"start":"2022-10-22T00:00:00+00:00","end":"2022-10-28T00:00:00+00:00"}},"request":{"method":"POST","url":"Encounter"}},{"fullUrl":"Encounter/9193e29e-ca2e-40f3-981f-00362f79dd59","resource":{"resourceType":"Encounter","id":"9193e29e-ca2e-40f3-981f-00362f79dd59","status":"finished","class":{"system":"http://terminology.hl7.org/CodeSystem/v3-ActCode","code":"IMP","display":"inpatient encounter"},"type":[{"coding":[{"system":"http://terminology.hl7.org/CodeSystem/encounter-type","code":"ADMS"}]}],"subject":{"reference":"Patient/bcf51f19-7f6a-4a2a-9f4e-093ab7cdeafd"},"period":{"start":"2022-10-02T00:00:00+00:00","end":"2022-10-09T00:00:00+00:00"}},"request":{"method":"POST","url":"Encounter"}},{"fullUrl":"Encounter/7a703c72-593d-4dd2-b90c-8c847cd0ea66","resource":{"resourceType":"Encounter","id":"7a703c72-593d-4dd2-b90c-8c847cd0ea66","status":"finished","class":{"system":"http://terminology.hl7.org/CodeSystem/v3-ActCode","code":"OBSENC","display":"observation encounter"},"type":[{"coding":[{"system":"http://terminology.hl7.org/CodeSystem/encounter-type","code":"OKI"}]}],"subject":{"reference":"Patient/bcf51f19-7f6a-4a2a-9f4e-093ab7cdeafd"},"period":{"start":"2022-06-12T00:00:00+00:00","end":"2022-06-14T00:00:00+00:00"}},"request":{"method":"POST","url":"Encounter"}},{"fullUrl":"Location/65b6fe23-4ee2-4bf8-b7f1-ead0456483a5","resource":{"resourceType":"Location","id":"65b6fe23-4ee2-4bf8-b7f1-ead0456483a5","status":"active","name":"Thompson-Reese","telecom":[{"system":"phone","value":"001-105-599-6386x02290","use":"mobile"}],"address":{"use":"work","line":["7594 Thompson Drive"],"city":"Sandratown","state":"TN","postalCode":"93920"}},"request":{"method":"POST","url":"Location"}},{"fullUrl":"Observation/42da1ecf-9b4f-403b-9066-5f571bc0d734","resource":{"resourceType":"Observation","id":"42da1ecf-9b4f-403b-9066-5f571bc0d734","status":"final","code":{"coding":[{"system":"http://loinc.org","code":"81956-5"}]},"subject":{"reference":"Patient/bcf51f19-7f6a-4a2a-9f4e-093ab7cdeafd"},"effectiveDateTime":"2022-05-21T00:00:00+00:00","valueDateTime":"2022-04-12T00:00:00+00:00"},"request":{"method":"POST","url":"Observation"}},{"fullUrl":"Patient/4e47eb02-cb57-4a1c-bd35-b32ba9a29077","resource":{"resourceType":"Patient","id":"4e47eb02-cb57-4a1c-bd35-b32ba9a29077","identifier":[{"type":{"coding":[{"system":"http://terminology.hl7.org/CodeSystem/v2-0203","code":"MR"}]},"system":"urn:fhirgen:mrn","value":"631-64-0048"},{"system":"http://hl7.org/fhir/sid/us-ssn","value":"052-26-8919"}],"name":[{"use":"official","family":"Hicks","given":["Kendra"]},{"use":"maiden","family":"Durham"}],"telecom":[{"system":"phone","value":"001-519-461-1216x96137","use":"home"},{"system":"email","value":"shelly04@yahoo.com","use":"mobile"}],"gender":"female","birthDate":"1995-06-01","address":[{"use":"home","line":["11562 Williams Lock"],"city":"Port Erikaside","state":"VA","postalCode":"19471"},{"use":"old","line":["6133 Johnson Cape"],"city":"Tinafort","state":"LA","postalCode":"18383"}],"maritalStatus":{"coding":[{"system":"http://terminology.hl7.org/CodeSystem/v3-MaritalStatus","code":"A","display":"Annulled"}]}},"request":{"method":"POST","url":"Patient"}},{"fullUrl":"Observation/dcc8e277-8837-4714-bf7d-465bebfe8448","resource":{"resourceType":"Observation","id":"dcc8e277-8837-4714-bf7d-465bebfe8448","status":"final","code":{"coding":[{"system":"http://loinc.org","code":"22590-4"}]},"subject":{"reference":"Patient/4e47eb02-cb57-4a1c-bd35-b32ba9a29077"},"effectiveDateTime":"2022-09-29T00:00:00+00:00","valueRatio":{"numerator":{"value":1},"denominator":{"value":4}}},"request":{"method":"POST","url":"Observation"}},{"fullUrl":"Observation/c1551444-5882-4e33-a061-0ab03b5b596a","resource":{"resourceType":"Observation","id":"c1551444-5882-4e33-a061-0ab03b5b596a","status":"final","code":{"coding":[{"system":"http://loinc.org","code":"5394-2"}]},"subject":{"reference":"Patient/4e47eb02-cb57-4a1c-bd35-b32ba9a29077"},"effectiveDateTime":"2022-03-16T00:00:00+00:00","valueRatio":{"numerator":{"value":1},"denominator":{"value":4}}},"request":{"method":"POST","url":"Observation"}},{"fullUrl":"Condition/2c0483ca-de98-4f4d-a085-e869d77619cc","resource":{"resourceType":"Condition","id":"2c0483ca-de98-4f4d-a085-e869d77619cc","code":{"coding":[{"system":"http://snomed.info/sct","code":"248980004"}]},"subject":{"reference":"Patient/4e47eb02-cb57-4a1c-bd35-b32ba9a29077"},"onsetDateTime":"2022-11-17T00:00:00+00:00"},"request":{"method":"POST","url":"Condition"}},{"fullUrl":"Condition/920d7b57-a9a7-4b27-9572-db7d89a422a1","resource":{"resourceType":"Condition","id":"920d7b57-a9a7-4b27-9572-db7d89a422a1","code":{"coding":[{"system":"http://snomed.info/sct","code":"297123002"}]},"subject":{"reference":"Patient/4e47eb02-cb57-4a1c-bd35-b32ba9a29077"},"onsetDateTime":"2022-10-07T00:00:00+00:00"},"request":{"method":"POST","url":"Condition"}},{"fullUrl":"Condition/7c828fb0-7655-4185-ba8b-70c300c299a7","resource":{"resourceType":"Condition","id":"7c828fb0-7655-4185-ba8b-70c300c299a7","code":{"coding":[{"system":"http://snomed.info/sct","code":"248980004"}]},"subject":{"reference":"Patient/4e47eb02-cb57-4a1c-bd35-b32ba9a29077"},"onsetDateTime":"2022-10-11T00:00:00+00:00"},"request":{"method":"POST","url":"Condition"}},{"fullUrl":"Observation/273da238-d143-4de3-99b4-519736d27c72","resource":{"resourceType":"Observation","id":"273da238-d143-4de3-99b4-519736d27c72","status":"final","code":{"coding":[{"system":"http://www.ama-assn.org/go/cpt","code":"85048"}]},"subject":{"reference":"Patient/4e47eb02-cb57-4a1c-bd35-b32ba9a29077"},"effectiveDateTime":"2022-09-02T00:00:00+00:00","valueQuantity":{"value":5.6}},"request":{"method":"POST","url":"Observation"}},{"fullUrl":"Observation/58efee8e-0c9e-4a20-962e-2bda20685002","resource":{"resourceType":"Observation","id":"58efee8e-0c9e-4a20-962e-2bda20685002","status":"final","code":{"coding":[{"system":"http://loinc.org","code":"26464-8"}]},"subject":{"reference":"Patient/4e47eb02-cb57-4a1c-bd35-b32ba9a29077"},"effectiveDateTime":"2022-03-30T00:00:00+00:00","valueQuantity":{"value":5.1}},"request":{"method":"POST","url":"Observation"}},{"fullUrl":"Observation/c7f2eb63-1513-464d-8780-153f704a1248","resource":{"resourceType":"Observation","id":"c7f2eb63-1513-464d-8780-153f704a1248","status":"final","code":{"coding":[{"system":"http://loinc.org","code":"26464-8"}]},"subject":{"reference":"Patient/4e47eb02-cb57-4a1c-bd35-b32ba9a29077"},"effectiveDateTime":"2022-03-02T00:00:00+00:00","valueQuantity":{"value":8.8}},"request":{"method":"POST","url":"Observation"}},{"fullUrl":"Observation/318280d3-e513-48e0-9af0-8d8aad864002","resource":{"resourceType":"Observation","id":"318280d3-e513-48e0-9af0-8d8aad864002","status":"final","code":{"coding":[{"system":"http://loinc.org","code":"6690-2"}]},"subject":{"reference":"Patient/4e47eb02-cb57-4a1c-bd35-b32ba9a29077"},"effectiveDateTime":"2022-11-26T00:00:00+00:00","valueCodeableConcept":{"coding":[{"system":"snomed","code":"123456","display":"fake snomed"}]}},"request":{"method":"POST","url":"Observation"}},{"fullUrl":"Observation/a889ef13-b844-4a4d-bf5e-4a1579874cbb","resource":{"resourceType":"Observation","id":"a889ef13-b844-4a4d-bf5e-4a1579874cbb","status":"final","code":{"coding":[{"system":"http://www.ama-assn.org/go/cpt","code":"85048"}]},"subject":{"reference":"Patient/4e47eb02-cb57-4a1c-bd35-b32ba9a29077"},"effectiveDateTime":"2022-10-27T00:00:00+00:00","valueCodeableConcept":{"coding":[{"system":"snomed","code":"123456","display":"fake snomed"}]}},"request":{"method":"POST","url":"Observation"}},{"fullUrl":"Observation/bd252cea-6694-4bc2-bb63-7488150a8f45","resource":{"resourceType":"Observation","id":"bd252cea-6694-4bc2-bb63-7488150a8f45","status":"final","code":{"coding":[{"system":"http://loinc.org","code":"49498-9"}]},"subject":{"reference":"Patient/4e47eb02-cb57-4a1c-bd35-b32ba9a29077"},"effectiveDateTime":"2022-04-02T00:00:00+00:00"},"request":{"method":"POST","url":"Observation"}},{"fullUrl":"Observation/732cf9a5-efc1-4342-8d38-84396fc42cdd","resource":{"resourceType":"Observation","id":"732cf9a5-efc1-4342-8d38-84396fc42cdd","status":"final","code":{"coding":[{"system":"http://loinc.org","code":"49498-9"}]},"subject":{"reference":"Patient/4e47eb02-cb57-4a1c-bd35-b32ba9a29077"},"effectiveDateTime":"2022-10-10T00:00:00+00:00"},"request":{"method":"POST","url":"Observation"}},{"fullUrl":"Observation/7fcf437b-894d-4be0-82f0-3ac5d7fb4998","resource":{"resourceType":"Observation","id":"7fcf437b-894d-4be0-82f0-3ac5d7fb4998","status":"final","code":{"coding":[{"system":"http://loinc.org","code":"49498-9"}]},"subject":{"reference":"Patient/4e47eb02-cb57-4a1c-bd35-b32ba9a29077"},"effectiveDateTime":"2022-11-04T00:00:00+00:00"},"request":{"method":"POST","url":"Observation"}},{"fullUrl":"Procedure/4dc0f30c-37eb-4632-a303-b8c2ae01d86b","resource":{"resourceType":"Procedure","id":"4dc0f30c-37eb-4632-a303-b8c2ae01d86b","status":"completed","code":{"coding":[{"system":"http://snomed.info/sct","code":"189009"}]},"subject":{"reference":"Patient/4e47eb02-cb57-4a1c-bd35-b32ba9a29077"},"performedDateTime":"2022-03-06T00:00:00+00:00"},"request":{"method":"POST","url":"Procedure"}},{"fullUrl":"Procedure/5964d0c1-2fcd-4d8a-ace3-50486a2b3686","resource":{"resourceType":"Procedure","id":"5964d0c1-2fcd-4d8a-ace3-50486a2b3686","status":"completed","code":{"coding":[{"system":"http://snomed.info/sct","code":"647000"}]},"subject":{"reference":"Patient/4e47eb02-cb57-4a1c-bd35-b32ba9a29077"},"performedDateTime":"2022-02-11T00:00:00+00:00"},"request":{"method":"POST","url":"Procedure"}},{"fullUrl":"Procedure/43d37b8f-f122-4a9f-93d7-ed5e9bc74a1c","resource":{"resourceType":"Procedure","id":"43d37b8f-f122-4a9f-93d7-ed5e9bc74a1c","status":"completed","code":{"coding":[{"system":"http://snomed.info/sct","code":"146005"}]},"subject":{"reference":"Patient/4e47eb02-cb57-4a1c-bd35-b32ba9a29077"},"performedDateTime":"2022-11-10T00:00:00+00:00"},"request":{"method":"POST","url":"Procedure"}},{"fullUrl":"MedicationStatement/d7dea29b-edd1-44e4-9fc5-b5f1c82c90a1","resource":{"resourceType":"MedicationStatement","id":"d7dea29b-edd1-44e4-9fc5-b5f1c82c90a1","status":"completed","medicationCodeableConcept":{"coding":[{"system":"http://www.nlm.nih.gov/research/umls/rxnorm","code":"7984"}]},"subject":{"reference":"Patient/4e47eb02-cb57-4a1c-bd35-b32ba9a29077"},"effectiveDateTime":"2022-03-05T00:00:00+00:00","dosage":[{"doseAndRate":[{"doseQuantity":{"value":2,"unit":"TAB","system":"http://terminology.hl7.org/CodeSystem/v3-orderableDrugForm","code":"TAB"}}]}]},"request":{"method":"POST","url":"MedicationStatement"}},{"fullUrl":"MedicationStatement/59ee7fbd-d1d7-45fe-af62-0443f3bfbb61","resource":{"resourceType":"MedicationStatement","id":"59ee7fbd-d1d7-45fe-af62-0443f3bfbb61","status":"completed","medicationCodeableConcept":{"coding":[{"system":"http://www.nlm.nih.gov/research/umls/rxnorm","code":"18631"}]},"subject":{"reference":"Patient/4e47eb02-cb57-4a1c-bd35-b32ba9a29077"},"effectiveDateTime":"2022-06-07T00:00:00+00:00","dosage":[{"doseAndRate":[{"doseQuantity":{"value":2,"unit":"TAB","system":"http://terminology.hl7.org/CodeSystem/v3-orderableDrugForm","code":"TAB"}}]}]},"request":{"method":"POST","url":"MedicationStatement"}},{"fullUrl":"MedicationStatement/17aedd07-0d81-49ee-97e6-28c318b78b91","resource":{"resourceType":"MedicationStatement","id":"17aedd07-0d81-49ee-97e6-28c318b78b91","status":"completed","medicationCodeableConcept":{"coding":[{"system":"http://www.nlm.nih.gov/research/umls/rxnorm","code":"3640"}]},"subject":{"reference":"Patient/4e47eb02-cb57-4a1c-bd35-b32ba9a29077"},"effectiveDateTime":"2022-07-05T00:00:00+00:00","dosage":[{"doseAndRate":[{"doseQuantity":{"value":1,"unit":"TAB","system":"http://terminology.hl7.org/CodeSystem/v3-orderableDrugForm","code":"TAB"}}]}]},"request":{"method":"POST","url":"MedicationStatement"}},{"fullUrl":"MedicationStatement/43ce639b-6e50-4f92-9747-18c3b7618d41","resource":{"resourceType":"MedicationStatement","id":"43ce639b-6e50-4f92-9747-18c3b7618d41","status":"completed","medicationCodeableConcept":{"coding":[{"system":"http://www.nlm.nih.gov/research/umls/rxnorm","code":"18631"}]},"subject":{"reference":"Patient/4e47eb02-cb57-4a1c-bd35-b32ba9a29077"},"effectiveDateTime":"2022-01-27T00:00:00+00:00","dosage":[{"doseAndRate":[{"doseQuantity":{"value":2,"unit":"TAB","system":"http://terminology.hl7.org/CodeSystem/v3-orderableDrugForm","code":"TAB"}}]}]},"request":{"method":"POST","url":"MedicationStatement"}},{"fullUrl":"MedicationStatement/3240afbb-c02d-4f26-bec7-9cd1e27f9712","resource":{"resourceType":"MedicationStatement","id":"3240afbb-c02d-4f26-bec7-9cd1e27f9712","status":"completed","medicationCodeableConcept":{"coding":[{"system":"http://www.nlm.nih.gov/research/umls/rxnorm","code":"2193"}]},"subject":{"reference":"Patient/4e47eb02-cb57-4a1c-bd35-b32ba9a29077"},"effectiveDateTime":"2022-05-19T00:00:00+00:00","dosage":[{"doseAndRate":[{"doseQuantity":{"value":2,"unit":"TAB","system":"http://terminology.hl7.org/CodeSystem/v3-orderableDrugForm","code":"TAB"}}]}]},"request":{"method":"POST","url":"MedicationStatement"}},{"fullUrl":"MedicationStatement/1c31eadf-6339-4a3d-84bc-785d442f2582","resource":{"resourceType":"MedicationStatement","id":"1c31eadf-6339-4a3d-84bc-785d442f2582","status":"completed","medicationCodeableConcept":{"coding":[{"system":"http://www.nlm.nih.gov/research/umls/rxnorm","code":"3640"}]},"subject":{"reference":"Patient/4e47eb02-cb57-4a1c-bd35-b32ba9a29077"},"effectiveDateTime":"2022-11-10T00:00:00+00:00","dosage":[{"doseAndRate":[{"doseQuantity":{"value":1,"unit":"TAB","system":"http://terminology.hl7.org/CodeSystem/v3-orderableDrugForm","code":"TAB"}}]}]},"request":{"method":"POST","url":"MedicationStatement"}},{"fullUrl":"MedicationStatement/2ee2c147-38ea-4208-8658-90f17eec856f","resource":{"resourceType":"MedicationStatement","id":"2ee2c147-38ea-4208-8658-90f17eec856f","status":"completed","medicationCodeableConcept":{"coding":[{"system":"http://www.nlm.nih.gov/research/umls/rxnorm","code":"2193"}]},"subject":{"reference":"Patient/4e47eb02-cb57-4a1c-bd35-b32ba9a29077"},"effectiveDateTime":"2022-08-21T00:00:00+00:00","dosage":[{"doseAndRate":[{"doseQuantity":{"value":2,"unit":"TAB","system":"http://terminology.hl7.org/CodeSystem/v3-orderableDrugForm","code":"TAB"}}]}]},"request":{"method":"POST","url":"MedicationStatement"}},{"fullUrl":"MedicationStatement/10737dfb-1437-4e14-b7c9-6e73e42ca292","resource":{"resourceType":"MedicationStatement","id":"10737dfb-1437-4e14-b7c9-6e73e42ca292","status":"completed","medicationCodeableConcept":{"coding":[{"system":"http://www.nlm.nih.gov/research/umls/rxnorm","code":"3640"}]},"subject":{"reference":"Patient/4e47eb02-cb57-4a1c-bd35-b32ba9a29077"},"effectiveDateTime":"2022-04-18T00:00:00+00:00","dosage":[{"doseAndRate":[{"doseQuantity":{"value":1,"unit":"TAB","system":"http://terminology.hl7.org/CodeSystem/v3-orderableDrugForm","code":"TAB"}}]}]},"request":{"method":"POST","url":"MedicationStatement"}},{"fullUrl":"MedicationStatement/bb5f59f8-9e7a-472d-a542-ba865d036a1f","resource":{"resourceType":"MedicationStatement","id":"bb5f59f8-9e7a-472d-a542-ba865d036a1f","status":"completed","medicationCodeableConcept":{"coding":[{"system":"http://www.nlm.nih.gov/research/umls/rxnorm","code":"2193"}]},"subject":{"reference":"Patient/4e47eb02-cb57-4a1c-bd35-b32ba9a29077"},"effectiveDateTime":"2022-06-09T00:00:00+00:00","dosage":[{"doseAndRate":[{"doseQuantity":{"value":7,"unit":"TAB","system":"http://terminology.hl7.org/CodeSystem/v3-orderableDrugForm","code":"TAB"}}]}]},"request":{"method":"POST","url":"MedicationStatement"}},{"fullUrl":"MedicationStatement/2e6d8363-7d42-4f8d-981b-a31881e9635d","resource":{"resourceType":"MedicationStatement","id":"2e6d8363-7d42-4f8d-981b-a31881e9635d","status":"completed","medicationCodeableConcept":{"coding":[{"system":"http://www.nlm.nih.gov/research/umls/rxnorm","code":"7980"}]},"subject":{"reference":"Patient/4e47eb02-cb57-4a1c-bd35-b32ba9a29077"},"effectiveDateTime":"2022-10-28T00:00:00+00:00","dosage":[{"doseAndRate":[{"doseQuantity":{"value":3.7,"unit":"TAB","system":"http://terminology.hl7.org/CodeSystem/v3-orderableDrugForm","code":"TAB"}}]}]},"request":{"method":"POST","url":"MedicationStatement"}},{"fullUrl":"MedicationStatement/44dd3a59-6748-4a83-9eb6-07ed5fac6d2a","resource":{"resourceType":"MedicationStatement","id":"44dd3a59-6748-4a83-9eb6-07ed5fac6d2a","status":"completed","medicationCodeableConcept":{"coding":[{"system":"http://www.nlm.nih.gov/research/umls/rxnorm","code":"10395"}]},"subject":{"reference":"Patient/4e47eb02-cb57-4a1c-bd35-b32ba9a29077"},"effectiveDateTime":"2022-07-30T00:00:00+00:00","dosage":[{"doseAndRate":[{"doseQuantity":{"value":3,"unit":"TAB","system":"http://terminology.hl7.org/CodeSystem/v3-orderableDrugForm","code":"TAB"}}]}]},"request":{"method":"POST","url":"MedicationStatement"}},{"fullUrl":"MedicationStatement/9bdf84f8-6890-4427-800c-01547811f66a","resource":{"resourceType":"MedicationStatement","id":"9bdf84f8-6890-4427-800c-01547811f66a","status":"completed","medicationCodeableConcept":{"coding":[{"system":"http://www.nlm.nih.gov/research/umls/rxnorm","code":"2193"}]},"subject":{"reference":"Patient/4e47eb02-cb57-4a1c-bd35-b32ba9a29077"},"effectiveDateTime":"2022-05-05T00:00:00+00:00","dosage":[{"doseAndRate":[{"doseQuantity":{"value":5.6,"unit":"TAB","system":"http://terminology.hl7.org/CodeSystem/v3-orderableDrugForm","code":"TAB"}}]}]},"request":{"method":"POST","url":"MedicationStatement"}},{"fullUrl":"MedicationStatement/9bc8a3c6-ae64-4ddf-b8eb-6dd0c27a36db","resource":{"resourceType":"MedicationStatement","id":"9bc8a3c6-ae64-4ddf-b8eb-6dd0c27a36db","status":"completed","medicationCodeableConcept":{"coding":[{"system":"http://www.nlm.nih.gov/research/umls/rxnorm","code":"2193"}]},"subject":{"reference":"Patient/4e47eb02-cb57-4a1c-bd35-b32ba9a29077"},"effectiveDateTime":"2022-04-30T00:00:00+00:00","dosage":[{"doseAndRate":[{"doseQuantity":{"value":4.4,"unit":"TAB","system":"http://terminology.hl7.org/CodeSystem/v3-orderableDrugForm","code":"TAB"}}]}]},"request":{"method":"POST","url":"MedicationStatement"}},{"fullUrl":"MedicationStatement/2b8b9cfd-c940-4732-a210-322050480550","resource":{"resourceType":"MedicationStatement","id":"2b8b9cfd-c940-4732-a210-322050480550","status":"completed","medicationCodeableConcept":{"coding":[{"system":"http://www.nlm.nih.gov/research/umls/rxnorm","code":"18631"}]},"subject":{"reference":"Patient/4e47eb02-cb57-4a1c-bd35-b32ba9a29077"},"effectiveDateTime":"2022-06-15T00:00:00+00:00","dosage":[{"doseAndRate":[{"doseQuantity":{"value":3.4,"unit":"TAB","system":"http://terminology.hl7.org/CodeSystem/v3-orderableDrugForm","code":"TAB"}}]}]},"request":{"method":"POST","url":"MedicationStatement"}},{"fullUrl":"Encounter/b6b6d74d-221c-4513-a4aa-eed184c3cbf2","resource":{"resourceType":"Encounter","id":"b6b6d74d-221c-4513-a4aa-eed184c3cbf2","status":"finished","class":{"system":"http://terminology.hl7.org/CodeSystem/v3-ActCode","code":"IMP","display":"inpatient encounter"},"type":[{"coding":[{"system":"http://terminology.hl7.org/CodeSystem/encounter-type","code":"CCS60"}]}],"subject":{"reference":"Patient/4e47eb02-cb57-4a1c-bd35-b32ba9a29077"},"period":{"start":"2022-07-16T00:00:00+00:00","end":"2022-07-23T00:00:00+00:00"}},"request":{"method":"POST","url":"Encounter"}},{"fullUrl":"Encounter/dc1b9c32-29bd-4666-91f4-50c513e94cf2","resource":{"resourceType":"Encounter","id":"dc1b9c32-29bd-4666-91f4-50c513e94cf2","status":"finished","class":{"system":"http://terminology.hl7.org/CodeSystem/v3-ActCode","code":"IMP","display":"inpatient encounter"},"type":[{"coding":[{"system":"http://terminology.hl7.org/CodeSystem/encounter-type","code":"ADMS"}]}],"subject":{"reference":"Patient/4e47eb02-cb57-4a1c-bd35-b32ba9a29077"},"period":{"start":"2022-04-16T00:00:00+00:00","end":"2022-04-22T00:00:00+00:00"}},"request":{"method":"POST","url":"Encounter"}},{"fullUrl":"Encounter/d72d54c8-35eb-4b85-bf73-b9c5e8c8aec3","resource":{"resourceType":"Encounter","id":"d72d54c8-35eb-4b85-bf73-b9c5e8c8aec3","status":"finished","class":{"system":"http://terminology.hl7.org/CodeSystem/v3-ActCode","code":"IMP","display":"inpatient encounter"},"type":[{"coding":[{"system":"http://terminology.hl7.org/CodeSystem/encounter-type","code":"CCS60"}]}],"subject":{"reference":"Patient/4e47eb02-cb57-4a1c-bd35-b32ba9a29077"},"period":{"start":"2022-03-20T00:00:00+00:00","end":"2022-03-21T00:00:00+00:00"}},"request":{"method":"POST","url":"Encounter"}},{"fullUrl":"Encounter/03aa43b8-22d4-439e-b173-b8866a6ddb72","resource":{"resourceType":"Encounter","id":"03aa43b8-22d4-439e-b173-b8866a6ddb72","status":"finished","class":{"system":"http://terminology.hl7.org/CodeSystem/v3-ActCode","code":"OBSENC","display":"observation encounter"},"type":[{"coding":[{"system":"http://terminology.hl7.org/CodeSystem/encounter-type","code":"CCS60"}]}],"subject":{"reference":"Patient/4e47eb02-cb57-4a1c-bd35-b32ba9a29077"},"period":{"start":"2022-01-18T00:00:00+00:00","end":"2022-01-23T00:00:00+00:00"}},"request":{"method":"POST","url":"Encounter"}},{"fullUrl":"Encounter/9b1b75ea-0551-4612-b36f-fb84d4e2e912","resource":{"resourceType":"Encounter","id":"9b1b75ea-0551-4612-b36f-fb84d4e2e912","status":"finished","class":{"system":"http://terminology.hl7.org/CodeSystem/v3-ActCode","code":"IMP","display":"inpatient encounter"},"type":[{"coding":[{"system":"http://terminology.hl7.org/CodeSystem/encounter-type","code":"ADMS"}]}],"subject":{"reference":"Patient/4e47eb02-cb57-4a1c-bd35-b32ba9a29077"},"period":{"start":"2022-06-27T00:00:00+00:00","end":"2022-06-28T00:00:00+00:00"}},"request":{"method":"POST","url":"Encounter"}},{"fullUrl":"Encounter/8845d316-a40c-4902-9860-9bf6c72fa2e1","resource":{"resourceType":"Encounter","id":"8845d316-a40c-4902-9860-9bf6c72fa2e1","status":"finished","class":{"system":"http://terminology.hl7.org/CodeSystem/v3-ActCode","code":"NONAC","display":"inpatient non-acute"},"type":[{"coding":[{"system":"http://terminology.hl7.org/CodeSystem/encounter-type","code":"BD/BM-clin"}]}],"subject":{"reference":"Patient/4e47eb02-cb57-4a1c-bd35-b32ba9a29077"},"period":{"start":"2022-11-14T00:00:00+00:00","end":"2022-11-19T00:00:00+00:00"}},"request":{"method":"POST","url":"Encounter"}},{"fullUrl":"Location/3cf85c97-b395-4409-92e8-5acb50547815","resource":{"resourceType":"Location","id":"3cf85c97-b395-4409-92e8-5acb50547815","status":"active","name":"Williams-Lee","telecom":[{"system":"phone","value":"3691287105","use":"home"}],"address":{"use":"work","line":["584 Greene Walk Suite 595"],"city":"Kevinport","state":"NV","postalCode":"12849"}},"request":{"method":"POST","url":"Location"}},{"fullUrl":"Observation/08c5b82f-7b0f-4250-ad71-0a30fb449117","resource":{"resourceType":"Observation","id":"08c5b82f-7b0f-4250-ad71-0a30fb449117","status":"final","code":{"coding":[{"system":"http://loinc.org","code":"81956-5"}]},"subject":{"reference":"Patient/4e47eb02-cb57-4a1c-bd35-b32ba9a29077"},"effectiveDateTime":"2022-09-29T00:00:00+00:00","valueDateTime":"2022-06-22T00:00:00+00:00"},"request":{"method":"POST","url":"Observation"}},{"fullUrl":"Patient/6a460cd6-d257-48f6-a62c-ab85fbfe6542","resource":{"resourceType":"Patient","id":"6a460cd6-d257-48f6-a62c-ab85fbfe6542","identifier":[{"type":{"coding":[{"system":"http://terminology.hl7.org/CodeSystem/v2-0203","code":"MR"}]},"system":"urn:fhirgen:mrn","value":"233-85-8129"},{"system":"http://hl7.org/fhir/sid/us-ssn","value":"363-31-7633"}],"name":[{"use":"official","family":"Moore","given":["Shannon"]},{"use":"maiden","family":"Howe"}],"telecom":[{"system":"phone","value":"001-567-586-9708x19649","use":"work"},{"system":"email","value":"jonathan21@hotmail.com","use":"home"}],"gender":"female","birthDate":"1969-05-26","address":[{"use":"home","line":["803 Petersen Islands"],"city":"Lake Roberttown","state":"UT","postalCode":"38703"},{"use":"old","line":["16230 Hayley Dam Apt. 580"],"city":"Joannemouth","state":"TX","postalCode":"74288"}],"maritalStatus":{"coding":[{"system":"http://terminology.hl7.org/CodeSystem/v3-MaritalStatus","code":"U","display":"unmarried"}]}},"request":{"method":"POST","url":"Patient"}},{"fullUrl":"Observation/6412e7e5-2a1f-4ed1-9c66-bb6ea0c886ff","resource":{"resourceType":"Observation","id":"6412e7e5-2a1f-4ed1-9c66-bb6ea0c886ff","status":"final","code":{"coding":[{"system":"http://loinc.org","code":"87925-4"}]},"subject":{"reference":"Patient/6a460cd6-d257-48f6-a62c-ab85fbfe6542"},"effectiveDateTime":"2022-07-28T00:00:00+00:00","valueRatio":{"numerator":{"value":1},"denominator":{"value":32}}},"request":{"method":"POST","url":"Observation"}},{"fullUrl":"Observation/e178a47b-b095-40b4-aef7-18f8e723920b","resource":{"resourceType":"Observation","id":"e178a47b-b095-40b4-aef7-18f8e723920b","status":"final","code":{"coding":[{"system":"http://loinc.org","code":"50690-7"}]},"subject":{"reference":"Patient/6a460cd6-d257-48f6-a62c-ab85fbfe6542"},"effectiveDateTime":"2022-01-30T00:00:00+00:00","valueRatio":{"numerator":{"value":1},"denominator":{"value":32}}},"request":{"method":"POST","url":"Observation"}},{"fullUrl":"Condition/97a0a7e0-7a27-4a35-b971-90c4b7fba5d1","resource":{"resourceType":"Condition","id":"97a0a7e0-7a27-4a35-b971-90c4b7fba5d1","code":{"coding":[{"system":"http://snomed.info/sct","code":"71315007"}]},"subject":{"reference":"Patient/6a460cd6-d257-48f6-a62c-ab85fbfe6542"},"onsetDateTime":"2022-02-16T00:00:00+00:00"},"request":{"method":"POST","url":"Condition"}},{"fullUrl":"Condition/10e260ca-9289-48c9-a554-949e5980fd33","resource":{"resourceType":"Condition","id":"10e260ca-9289-48c9-a554-949e5980fd33","code":{"coding":[{"system":"http://snomed.info/sct","code":"30746006"}]},"subject":{"reference":"Patient/6a460cd6-d257-48f6-a62c-ab85fbfe6542"},"onsetDateTime":"2022-12-28T00:00:00+00:00"},"request":{"method":"POST","url":"Condition"}},{"fullUrl":"Condition/8891f151-389d-4a7a-857a-55a2e14522c2","resource":{"resourceType":"Condition","id":"8891f151-389d-4a7a-857a-55a2e14522c2","code":{"coding":[{"system":"http://snomed.info/sct","code":"91554004"}]},"subject":{"reference":"Patient/6a460cd6-d257-48f6-a62c-ab85fbfe6542"},"onsetDateTime":"2022-09-05T00:00:00+00:00"},"request":{"method":"POST","url":"Condition"}},{"fullUrl":"Condition/addde510-570a-4a28-bd29-da110ddafb6c","resource":{"resourceType":"Condition","id":"addde510-570a-4a28-bd29-da110ddafb6c","code":{"coding":[{"system":"http://snomed.info/sct","code":"31070006"}]},"subject":{"reference":"Patient/6a460cd6-d257-48f6-a62c-ab85fbfe6542"},"onsetDateTime":"2022-03-19T00:00:00+00:00"},"request":{"method":"POST","url":"Condition"}},{"fullUrl":"Condition/94f775f5-d30b-429b-8e8b-a6a6b1d9393c","resource":{"resourceType":"Condition","id":"94f775f5-d30b-429b-8e8b-a6a6b1d9393c","code":{"coding":[{"system":"http://snomed.info/sct","code":"71315007"}]},"subject":{"reference":"Patient/6a460cd6-d257-48f6-a62c-ab85fbfe6542"},"onsetDateTime":"2022-02-01T00:00:00+00:00"},"request":{"method":"POST","url":"Condition"}},{"fullUrl":"Condition/51150b34-a59f-4f86-a827-b3029e47720e","resource":{"resourceType":"Condition","id":"51150b34-a59f-4f86-a827-b3029e47720e","code":{"coding":[{"system":"http://snomed.info/sct","code":"18165001"}]},"subject":{"reference":"Patient/6a460cd6-d257-48f6-a62c-ab85fbfe6542"},"onsetDateTime":"2022-07-05T00:00:00+00:00"},"request":{"method":"POST","url":"Condition"}},{"fullUrl":"Observation/becd744f-8c3b-4340-b3ee-913692d16bdd","resource":{"resourceType":"Observation","id":"becd744f-8c3b-4340-b3ee-913692d16bdd","status":"final","code":{"coding":[{"system":"http://loinc.org","code":"49498-9"}]},"subject":{"reference":"Patient/6a460cd6-d257-48f6-a62c-ab85fbfe6542"},"effectiveDateTime":"2022-02-04T00:00:00+00:00","valueQuantity":{"value":6.4}},"request":{"method":"POST","url":"Observation"}},{"fullUrl":"Observation/85f98534-083f-4a1e-a045-d3e17fe65daa","resource":{"resourceType":"Observation","id":"85f98534-083f-4a1e-a045-d3e17fe65daa","status":"final","code":{"coding":[{"system":"http://loinc.org","code":"26464-8"}]},"subject":{"reference":"Patient/6a460cd6-d257-48f6-a62c-ab85fbfe6542"},"effectiveDateTime":"2022-05-13T00:00:00+00:00","valueQuantity":{"value":6.3}},"request":{"method":"POST","url":"Observation"}},{"fullUrl":"Observation/f02a926d-1611-4617-979a-25f6f3771b77","resource":{"resourceType":"Observation","id":"f02a926d-1611-4617-979a-25f6f3771b77","status":"final","code":{"coding":[{"system":"http://loinc.org","code":"6690-2"}]},"subject":{"reference":"Patient/6a460cd6-d257-48f6-a62c-ab85fbfe6542"},"effectiveDateTime":"2022-06-04T00:00:00+00:00","valueQuantity":{"value":5.8}},"request":{"method":"POST","url":"Observation"}},{"fullUrl":"Observation/cb330daa-58a1-4add-af65-ff2fd585978f","resource":{"resourceType":"Observation","id":"cb330daa-58a1-4add-af65-ff2fd585978f","status":"final","code":{"coding":[{"system":"http://loinc.org","code":"26464-8"}]},"subject":{"reference":"Patient/6a460cd6-d257-48f6-a62c-ab85fbfe6542"},"effectiveDateTime":"2022-06-02T00:00:00+00:00","valueCodeableConcept":{"coding":[{"system":"snomed","code":"123456","display":"fake snomed"}]}},"request":{"method":"POST","url":"Observation"}},{"fullUrl":"Observation/1679131a-cd95-4179-ac97-9c4d0628b173","resource":{"resourceType":"Observation","id":"1679131a-cd95-4179-ac97-9c4d0628b173","status":"final","code":{"coding":[{"system":"http://loinc.org","code":"49498-9"}]},"subject":{"reference":"Patient/6a460cd6-d257-48f6-a62c-ab85fbfe6542"},"effectiveDateTime":"2022-12-10T00:00:00+00:00","valueCodeableConcept":{"coding":[{"system":"snomed","code":"123456","display":"fake snomed"}]}},"request":{"method":"POST","url":"Observation"}},{"fullUrl":"Observation/0ef2befa-a0a6-4a98-8d81-94eb6f6e8906","resource":{"resourceType":"Observation","id":"0ef2befa-a0a6-4a98-8d81-94eb6f6e8906","status":"final","code":{"coding":[{"system":"http://loinc.org","code":"49498-9"}]},"subject":{"reference":"Patient/6a460cd6-d257-48f6-a62c-ab85fbfe6542"},"effectiveDateTime":"2022-08-24T00:00:00+00:00"},"request":{"method":"POST","url":"Observation"}},{"fullUrl":"Observation/cbe2efd7-f88b-4bb0-9192-291629c58075","resource":{"resourceType":"Observation","id":"cbe2efd7-f88b-4bb0-9192-291629c58075","status":"final","code":{"coding":[{"system":"http://loinc.org","code":"49498-9"}]},"subject":{"reference":"Patient/6a460cd6-d257-48f6-a62c-ab85fbfe6542"},"effectiveDateTime":"2022-01-29T00:00:00+00:00"},"request":{"method":"POST","url":"Observation"}},{"fullUrl":"Procedure/875f2d6a-64cb-4b60-a599-fafb7e6069f7","resource":{"resourceType":"Procedure","id":"875f2d6a-64cb-4b60-a599-fafb7e6069f7","status":"completed","code":{"coding":[{"system":"http://snomed.info/sct","code":"146005"}]},"subject":{"reference":"Patient/6a460cd6-d257-48f6-a62c-ab85fbfe6542"},"performedDateTime":"2022-12-24T00:00:00+00:00"},"request":{"method":"POST","url":"Procedure"}},{"fullUrl":"Procedure/5060687a-0d23-4321-8c34-b50e9c062d03","resource":{"resourceType":"Procedure","id":"5060687a-0d23-4321-8c34-b50e9c062d03","status":"completed","code":{"coding":[{"system":"http://snomed.info/sct","code":"146005"}]},"subject":{"reference":"Patient/6a460cd6-d257-48f6-a62c-ab85fbfe6542"},"performedDateTime":"2022-03-18T00:00:00+00:00"},"request":{"method":"POST","url":"Procedure"}},{"fullUrl":"Procedure/84e6e6a0-07cc-43b1-b61c-882aacc85f21","resource":{"resourceType":"Procedure","id":"84e6e6a0-07cc-43b1-b61c-882aacc85f21","status":"completed","code":{"coding":[{"system":"http://snomed.info/sct","code":"104001"}]},"subject":{"reference":"Patient/6a460cd6-d257-48f6-a62c-ab85fbfe6542"},"performedDateTime":"2022-12-27T00:00:00+00:00"},"request":{"method":"POST","url":"Procedure"}},{"fullUrl":"MedicationStatement/a1510d32-3389-478b-9678-dfc4519dbdb0","resource":{"resourceType":"MedicationStatement","id":"a1510d32-3389-478b-9678-dfc4519dbdb0","status":"completed","medicationCodeableConcept":{"coding":[{"system":"http://www.nlm.nih.gov/research/umls/rxnorm","code":"7980"}]},"subject":{"reference":"Patient/6a460cd6-d257-48f6-a62c-ab85fbfe6542"},"effectiveDateTime":"2022-02-19T00:00:00+00:00","dosage":[{"doseAndRate":[{"doseQuantity":{"value":1,"unit":"TAB","system":"http://terminology.hl7.org/CodeSystem/v3-orderableDrugForm","code":"TAB"}}]}]},"request":{"method":"POST","url":"MedicationStatement"}},{"fullUrl":"MedicationStatement/18423297-b76d-4e8c-9332-8cb526735dea","resource":{"resourceType":"MedicationStatement","id":"18423297-b76d-4e8c-9332-8cb526735dea","status":"completed","medicationCodeableConcept":{"coding":[{"system":"http://www.nlm.nih.gov/research/umls/rxnorm","code":"10395"}]},"subject":{"reference":"Patient/6a460cd6-d257-48f6-a62c-ab85fbfe6542"},"effectiveDateTime":"2022-04-11T00:00:00+00:00","dosage":[{"doseAndRate":[{"doseQuantity":{"value":1,"unit":"TAB","system":"http://terminology.hl7.org/CodeSystem/v3-orderableDrugForm","code":"TAB"}}]}]},"request":{"method":"POST","url":"MedicationStatement"}},{"fullUrl":"MedicationStatement/8157439c-9e95-4fd5-8586-531a5f30f634","resource":{"resourceType":"MedicationStatement","id":"8157439c-9e95-4fd5-8586-531a5f30f634","status":"completed","medicationCodeableConcept":{"coding":[{"system":"http://www.nlm.nih.gov/research/umls/rxnorm","code":"3640"}]},"subject":{"reference":"Patient/6a460cd6-d257-48f6-a62c-ab85fbfe6542"},"effectiveDateTime":"2022-08-15T00:00:00+00:00","dosage":[{"doseAndRate":[{"doseQuantity":{"value":1,"unit":"TAB","system":"http://terminology.hl7.org/CodeSystem/v3-orderableDrugForm","code":"TAB"}}]}]},"request":{"method":"POST","url":"MedicationStatement"}},{"fullUrl":"MedicationStatement/ee73ef3c-23ce-4570-b663-52bb2b71e408","resource":{"resourceType":"MedicationStatement","id":"ee73ef3c-23ce-4570-b663-52bb2b71e408","status":"completed","medicationCodeableConcept":{"coding":[{"system":"http://www.nlm.nih.gov/research/umls/rxnorm","code":"2193"}]},"subject":{"reference":"Patient/6a460cd6-d257-48f6-a62c-ab85fbfe6542"},"effectiveDateTime":"2022-01-11T00:00:00+00:00","dosage":[{"doseAndRate":[{"doseQuantity":{"value":2,"unit":"TAB","system":"http://terminology.hl7.org/CodeSystem/v3-orderableDrugForm","code":"TAB"}}]}]},"request":{"method":"POST","url":"MedicationStatement"}},{"fullUrl":"MedicationStatement/cca836d7-705d-4274-8945-e80b81166bc6","resource":{"resourceType":"MedicationStatement","id":"cca836d7-705d-4274-8945-e80b81166bc6","status":"completed","medicationCodeableConcept":{"coding":[{"system":"http://www.nlm.nih.gov/research/umls/rxnorm","code":"10395"}]},"subject":{"reference":"Patient/6a460cd6-d257-48f6-a62c-ab85fbfe6542"},"effectiveDateTime":"2022-06-21T00:00:00+00:00","dosage":[{"doseAndRate":[{"doseQuantity":{"value":1,"unit":"TAB","system":"http://terminology.hl7.org/CodeSystem/v3-orderableDrugForm","code":"TAB"}}]}]},"request":{"method":"POST","url":"MedicationStatement"}},{"fullUrl":"MedicationStatement/a5c00926-701f-446c-970a-859260cf3ff0","resource":{"resourceType":"MedicationStatement","id":"a5c00926-701f-446c-970a-859260cf3ff0","status":"completed","medicationCodeableConcept":{"coding":[{"system":"http://www.nlm.nih.gov/research/umls/rxnorm","code":"18631"}]},"subject":{"reference":"Patient/6a460cd6-d257-48f6-a62c-ab85fbfe6542"},"effectiveDateTime":"2022-11-25T00:00:00+00:00","dosage":[{"doseAndRate":[{"doseQuantity":{"value":3.2,"unit":"TAB","system":"http://terminology.hl7.org/CodeSystem/v3-orderableDrugForm","code":"TAB"}}]}]},"request":{"method":"POST","url":"MedicationStatement"}},{"fullUrl":"Encounter/fc9fc978-a3a4-4678-8124-5f48dbfc2b01","resource":{"resourceType":"Encounter","id":"fc9fc978-a3a4-4678-8124-5f48dbfc2b01","status":"finished","class":{"system":"http://terminology.hl7.org/CodeSystem/v3-ActCode","code":"IMP","display":"inpatient encounter"},"type":[{"coding":[{"system":"http://terminology.hl7.org/CodeSystem/encounter-type","code":"OKI"}]}],"subject":{"reference":"Patient/6a460cd6-d257-48f6-a62c-ab85fbfe6542"},"period":{"start":"2022-05-13T00:00:00+00:00","end":"2022-05-14T00:00:00+00:00"}},"request":{"method":"POST","url":"Encounter"}},{"fullUrl":"Encounter/51c8b17d-6de1-4c70-a4c8-f574729927b7","resource":{"resourceType":"Encounter","id":"51c8b17d-6de1-4c70-a4c8-f574729927b7","status":"finished","class":{"system":"http://terminology.hl7.org/CodeSystem/v3-ActCode","code":"IMP","display":"inpatient encounter"},"type":[{"coding":[{"system":"http://terminology.hl7.org/CodeSystem/encounter-type","code":"ADMS"}]}],"subject":{"reference":"Patient/6a460cd6-d257-48f6-a62c-ab85fbfe6542"},"period":{"start":"2022-08-11T00:00:00+00:00","end":"2022-08-19T00:00:00+00:00"}},"request":{"method":"POST","url":"Encounter"}},{"fullUrl":"Encounter/3484116b-b160-4445-9694-4dff183c59a2","resource":{"resourceType":"Encounter","id":"3484116b-b160-4445-9694-4dff183c59a2","status":"finished","class":{"system":"http://terminology.hl7.org/CodeSystem/v3-ActCode","code":"IMP","display":"inpatient encounter"},"type":[{"coding":[{"system":"http://terminology.hl7.org/CodeSystem/encounter-type","code":"CCS60"}]}],"subject":{"reference":"Patient/6a460cd6-d257-48f6-a62c-ab85fbfe6542"},"period":{"start":"2022-04-01T00:00:00+00:00","end":"2022-04-05T00:00:00+00:00"}},"request":{"method":"POST","url":"Encounter"}},{"fullUrl":"Encounter/8de871ba-e8ae-4ebf-9f29-2ee8936f374c","resource":{"resourceType":"Encounter","id":"8de871ba-e8ae-4ebf-9f29-2ee8936f374c","status":"finished","class":{"system":"http://terminology.hl7.org/CodeSystem/v3-ActCode","code":"ACUTE","display":"inpatient acute"},"type":[{"coding":[{"system":"http://terminology.hl7.org/CodeSystem/encounter-type","code":"ADMS"}]}],"subject":{"reference":"Patient/6a460cd6-d257-48f6-a62c-ab85fbfe6542"},"period":{"start":"2022-07-13T00:00:00+00:00","end":"2022-07-16T00:00:00+00:00"}},"request":{"method":"POST","url":"Encounter"}},{"fullUrl":"Encounter/5e3ec7cc-3e9c-45d1-8290-6e22959e3677","resource":{"resourceType":"Encounter","id":"5e3ec7cc-3e9c-45d1-8290-6e22959e3677","status":"finished","class":{"system":"http://terminology.hl7.org/CodeSystem/v3-ActCode","code":"AMB","display":"ambulatory"},"type":[{"coding":[{"system":"http://terminology.hl7.org/CodeSystem/encounter-type","code":"ADMS"}]}],"subject":{"reference":"Patient/6a460cd6-d257-48f6-a62c-ab85fbfe6542"},"period":{"start":"2022-08-05T00:00:00+00:00","end":"2022-08-06T00:00:00+00:00"}},"request":{"method":"POST","url":"Encounter"}},{"fullUrl":"Location/f405aee4-a366-4cd1-9df5-68827b72b97f","resource":{"resourceType":"Location","id":"f405aee4-a366-4cd1-9df5-68827b72b97f","status":"active","name":"Lee-Wilkinson","telecom":[{"system":"phone","value":"001-781-721-1910x4000","use":"home"}],"address":{"use":"work","line":["436 Jessica Village"],"city":"Craigview","state":"OK","postalCode":"79648"}},"request":{"method":"POST","url":"Location"}},{"fullUrl":"Observation/78e2c059-7ed6-4b79-a69b-d8a00717b0da","resource":{"resourceType":"Observation","id":"78e2c059-7ed6-4b79-a69b-d8a00717b0da","status":"final","code":{"coding":[{"system":"http://loinc.org","code":"81956-5"}]},"subject":{"reference":"Patient/6a460cd6-d257-48f6-a62c-ab85fbfe6542"},"effectiveDateTime":"2022-03-06T00:00:00+00:00","valueDateTime":"2022-01-04T00:00:00+00:00"},"request":{"method":"POST","url":"Observation"}},{"fullUrl":"Patient/8e9bfc17-85ff-4d4c-be0c-4e04fbaad71e","resource":{"resourceType":"Patient","id":"8e9bfc17-85ff-4d4c-be0c-4e04fbaad71e","identifier":[{"type":{"coding":[{"system":"http://terminology.hl7.org/CodeSystem/v2-0203","code":"MR"}]},"system":"urn:fhirgen:mrn","value":"488-33-9716"},{"system":"http://hl7.org/fhir/sid/us-ssn","value":"760-70-3081"}],"name":[{"use":"official","family":"Harvey","given":["Joshua"]},{"use":"maiden","family":"Sanchez"}],"telecom":[{"system":"phone","value":"(193)293-1131x94365","use":"mobile"},{"system":"email","value":"ianderson@gmail.com","use":"mobile"}],"gender":"other","birthDate":"1954-01-11","address":[{"use":"home","line":["664 Kelly Fall Suite 643"],"city":"Joelview","state":"RI","postalCode":"45430"},{"use":"old","line":["5155 Jackson Street Apt. 889"],"city":"West Brandonberg","state":"KY","postalCode":"33518"}],"maritalStatus":{"coding":[{"system":"http://terminology.hl7.org/CodeSystem/v3-MaritalStatus","code":"L","display":"Legally Separated"}]}},"request":{"method":"POST","url":"Patient"}},{"fullUrl":"Observation/3fed16e2-62da-40c9-a1c1-97a6cfdff8ab","resource":{"resourceType":"Observation","id":"3fed16e2-62da-40c9-a1c1-97a6cfdff8ab","status":"final","code":{"coding":[{"system":"http://loinc.org","code":"31146-4"}]},"subject":{"reference":"Patient/8e9bfc17-85ff-4d4c-be0c-4e04fbaad71e"},"effectiveDateTime":"2022-08-06T00:00:00+00:00","valueRatio":{"numerator":{"value":1},"denominator":{"value":4}}},"request":{"method":"POST","url":"Observation"}},{"fullUrl":"Observation/5501a4d8-c925-4be6-9895-fc37b1848dde","resource":{"resourceType":"Observation","id":"5501a4d8-c925-4be6-9895-fc37b1848dde","status":"final","code":{"coding":[{"system":"http://loinc.org","code":"11084-1"}]},"subject":{"reference":"Patient/8e9bfc17-85ff-4d4c-be0c-4e04fbaad71e"},"effectiveDateTime":"2022-05-14T00:00:00+00:00","valueRatio":{"numerator":{"value":1},"denominator":{"value":64}}},"request":{"method":"POST","url":"Observation"}},{"fullUrl":"Observation/d9270434-eb81-4bf1-b8a7-4be799fea10b","resource":{"resourceType":"Observation","id":"d9270434-eb81-4bf1-b8a7-4be799fea10b","status":"final","code":{"coding":[{"system":"http://loinc.org","code":"46203-6"}]},"subject":{"reference":"Patient/8e9bfc17-85ff-4d4c-be0c-4e04fbaad71e"},"effectiveDateTime":"2022-03-23T00:00:00+00:00","valueRatio":{"numerator":{"value":1},"denominator":{"value":4}}},"request":{"method":"POST","url":"Observation"}},{"fullUrl":"Condition/feb79144-1e9a-4deb-bb93-64dce6fea2dc","resource":{"resourceType":"Condition","id":"feb79144-1e9a-4deb-bb93-64dce6fea2dc","code":{"coding":[{"system":"http://snomed.info/sct","code":"18165001"}]},"subject":{"reference":"Patient/8e9bfc17-85ff-4d4c-be0c-4e04fbaad71e"},"onsetDateTime":"2022-12-26T00:00:00+00:00"},"request":{"method":"POST","url":"Condition"}},{"fullUrl":"Condition/687c360a-2921-45cd-9c8d-efdd0178ec13","resource":{"resourceType":"Condition","id":"687c360a-2921-45cd-9c8d-efdd0178ec13","code":{"coding":[{"system":"http://snomed.info/sct","code":"18165001"}]},"subject":{"reference":"Patient/8e9bfc17-85ff-4d4c-be0c-4e04fbaad71e"},"onsetDateTime":"2022-08-11T00:00:00+00:00"},"request":{"method":"POST","url":"Condition"}},{"fullUrl":"Condition/5f202450-261d-4bb3-bc81-83e1f99b908c","resource":{"resourceType":"Condition","id":"5f202450-261d-4bb3-bc81-83e1f99b908c","code":{"coding":[{"system":"http://snomed.info/sct","code":"31070006"}]},"subject":{"reference":"Patient/8e9bfc17-85ff-4d4c-be0c-4e04fbaad71e"},"onsetDateTime":"2022-12-25T00:00:00+00:00"},"request":{"method":"POST","url":"Condition"}},{"fullUrl":"Condition/4e4b1406-04b2-483d-a334-9eaa2f055d8b","resource":{"resourceType":"Condition","id":"4e4b1406-04b2-483d-a334-9eaa2f055d8b","code":{"coding":[{"system":"http://snomed.info/sct","code":"297123002"}]},"subject":{"reference":"Patient/8e9bfc17-85ff-4d4c-be0c-4e04fbaad71e"},"onsetDateTime":"2022-06-28T00:00:00+00:00"},"request":{"method":"POST","url":"Condition"}},{"fullUrl":"Condition/af9556b5-20f6-4025-a7be-f57af7a15dbc","resource":{"resourceType":"Condition","id":"af9556b5-20f6-4025-a7be-f57af7a15dbc","code":{"coding":[{"system":"http://snomed.info/sct","code":"271807003"}]},"subject":{"reference":"Patient/8e9bfc17-85ff-4d4c-be0c-4e04fbaad71e"},"onsetDateTime":"2022-11-05T00:00:00+00:00"},"request":{"method":"POST","url":"Condition"}},{"fullUrl":"Condition/cd00cd72-e840-409d-9878-a86cc8254579","resource":{"resourceType":"Condition","id":"cd00cd72-e840-409d-9878-a86cc8254579","code":{"coding":[{"system":"http://snomed.info/sct","code":"736686006"}]},"subject":{"reference":"Patient/8e9bfc17-85ff-4d4c-be0c-4e04fbaad71e"},"onsetDateTime":"2022-09-16T00:00:00+00:00"},"request":{"method":"POST","url":"Condition"}},{"fullUrl":"Condition/28d00387-aa12-4c19-b76d-7e4eee838215","resource":{"resourceType":"Condition","id":"28d00387-aa12-4c19-b76d-7e4eee838215","code":{"coding":[{"system":"http://snomed.info/sct","code":"405737000"}]},"subject":{"reference":"Patient/8e9bfc17-85ff-4d4c-be0c-4e04fbaad71e"},"onsetDateTime":"2022-05-31T00:00:00+00:00"},"request":{"method":"POST","url":"Condition"}},{"fullUrl":"Condition/24ec4e2b-d6c0-4468-85aa-2cccc4e52c27","resource":{"resourceType":"Condition","id":"24ec4e2b-d6c0-4468-85aa-2cccc4e52c27","code":{"coding":[{"system":"http://snomed.info/sct","code":"21522001"}]},"subject":{"reference":"Patient/8e9bfc17-85ff-4d4c-be0c-4e04fbaad71e"},"onsetDateTime":"2022-05-24T00:00:00+00:00"},"request":{"method":"POST","url":"Condition"}},{"fullUrl":"Observation/8cd8f405-ddec-42d6-8167-ced8cc48c5a6","resource":{"resourceType":"Observation","id":"8cd8f405-ddec-42d6-8167-ced8cc48c5a6","status":"final","code":{"coding":[{"system":"http://loinc.org","code":"49498-9"}]},"subject":{"reference":"Patient/8e9bfc17-85ff-4d4c-be0c-4e04fbaad71e"},"effectiveDateTime":"2022-12-12T00:00:00+00:00","valueQuantity":{"value":10.1}},"request":{"method":"POST","url":"Observation"}},{"fullUrl":"Observation/25c50aea-8336-4c32-a50f-dca9fdc20b5e","resource":{"resourceType":"Observation","id":"25c50aea-8336-4c32-a50f-dca9fdc20b5e","status":"final","code":{"coding":[{"system":"http://loinc.org","code":"804-5"}]},"subject":{"reference":"Patient/8e9bfc17-85ff-4d4c-be0c-4e04fbaad71e"},"effectiveDateTime":"2022-07-09T00:00:00+00:00","valueQuantity":{"value":6.9}},"request":{"method":"POST","url":"Observation"}},{"fullUrl":"Observation/d09b7e5b-43ca-4551-ae74-68ab2ec69e70","resource":{"resourceType":"Observation","id":"d09b7e5b-43ca-4551-ae74-68ab2ec69e70","status":"final","code":{"coding":[{"system":"http://loinc.org","code":"804-5"}]},"subject":{"reference":"Patient/8e9bfc17-85ff-4d4c-be0c-4e04fbaad71e"},"effectiveDateTime":"2022-12-03T00:00:00+00:00","valueQuantity":{"value":7.8}},"request":{"method":"POST","url":"Observation"}},{"fullUrl":"Observation/2adb45d8-1fb5-4fb3-ba9f-2af6fcb85ad3","resource":{"resourceType":"Observation","id":"2adb45d8-1fb5-4fb3-ba9f-2af6fcb85ad3","status":"final","code":{"coding":[{"system":"http://loinc.org","code":"6690-2"}]},"subject":{"reference":"Patient/8e9bfc17-85ff-4d4c-be0c-4e04fbaad71e"},"effectiveDateTime":"2022-02-08T00:00:00+00:00","valueCodeableConcept":{"coding":[{"system":"snomed","code":"123456","display":"fake snomed"}]}},"request":{"method":"POST","url":"Observation"}},{"fullUrl":"Observation/bc7d816c-54a8-4a93-aa19-ec697b8ad132","resource":{"resourceType":"Observation","id":"bc7d816c-54a8-4a93-aa19-ec697b8ad132","status":"final","code":{"coding":[{"system":"http://loinc.org","code":"49498-9"}]},"subject":{"reference":"Patient/8e9bfc17-85ff-4d4c-be0c-4e04fbaad71e"},"effectiveDateTime":"2022-11-09T00:00:00+00:00","valueCodeableConcept":{"coding":[{"system":"snomed","code":"123456","display":"fake snomed"}]}},"request":{"method":"POST","url":"Observation"}},{"fullUrl":"Observation/339fd807-287d-4e9e-9629-e9b83985742a","resource":{"resourceType":"Observation","id":"339fd807-287d-4e9e-9629-e9b83985742a","status":"final","code":{"coding":[{"system":"http://loinc.org","code":"804-5"}]},"subject":{"reference":"Patient/8e9bfc17-85ff-4d4c-be0c-4e04fbaad71e"},"effectiveDateTime":"2022-08-17T00:00:00+00:00","valueCodeableConcept":{"coding":[{"system":"snomed","code":"123456","display":"fake snomed"}]}},"request":{"method":"POST","url":"Observation"}},{"fullUrl":"Observation/7b005319-19c8-41aa-93d5-5332056b0f7c","resource":{"resourceType":"Observation","id":"7b005319-19c8-41aa-93d5-5332056b0f7c","status":"final","code":{"coding":[{"system":"http://loinc.org","code":"49498-9"}]},"subject":{"reference":"Patient/8e9bfc17-85ff-4d4c-be0c-4e04fbaad71e"},"effectiveDateTime":"2022-08-12T00:00:00+00:00"},"request":{"method":"POST","url":"Observation"}},{"fullUrl":"Observation/6ddf11bf-6103-4f46-b1a2-04c191474f4b","resource":{"resourceType":"Observation","id":"6ddf11bf-6103-4f46-b1a2-04c191474f4b","status":"final","code":{"coding":[{"system":"http://loinc.org","code":"49498-9"}]},"subject":{"reference":"Patient/8e9bfc17-85ff-4d4c-be0c-4e04fbaad71e"},"effectiveDateTime":"2022-01-08T00:00:00+00:00"},"request":{"method":"POST","url":"Observation"}},{"fullUrl":"Observation/edc98717-3faf-4b71-b7a8-81ed23dda0ae","resource":{"resourceType":"Observation","id":"edc98717-3faf-4b71-b7a8-81ed23dda0ae","status":"final","code":{"coding":[{"system":"http://loinc.org","code":"49498-9"}]},"subject":{"reference":"Patient/8e9bfc17-85ff-4d4c-be0c-4e04fbaad71e"},"effectiveDateTime":"2022-08-22T00:00:00+00:00"},"request":{"method":"POST","url":"Observation"}},{"fullUrl":"Procedure/4f0931be-20ef-47e5-96f3-339ab20683f8","resource":{"resourceType":"Procedure","id":"4f0931be-20ef-47e5-96f3-339ab20683f8","status":"completed","code":{"coding":[{"system":"http://snomed.info/sct","code":"104001"}]},"subject":{"reference":"Patient/8e9bfc17-85ff-4d4c-be0c-4e04fbaad71e"},"performedDateTime":"2022-08-11T00:00:00+00:00"},"request":{"method":"POST","url":"Procedure"}},{"fullUrl":"Procedure/e8ccc6dd-2cc0-4acb-86c7-c398aa154b8e","resource":{"resourceType":"Procedure","id":"e8ccc6dd-2cc0-4acb-86c7-c398aa154b8e","status":"completed","code":{"coding":[{"system":"http://snomed.info/sct","code":"647000"}]},"subject":{"reference":"Patient/8e9bfc17-85ff-4d4c-be0c-4e04fbaad71e"},"performedDateTime":"2022-12-05T00:00:00+00:00"},"request":{"method":"POST","url":"Procedure"}},{"fullUrl":"Procedure/5e818147-5173-4fbc-9055-84836e881f85","resource":{"resourceType":"Procedure","id":"5e818147-5173-4fbc-9055-84836e881f85","status":"completed","code":{"coding":[{"system":"http://snomed.info/sct","code":"115006"}]},"subject":{"reference":"Patient/8e9bfc17-85ff-4d4c-be0c-4e04fbaad71e"},"performedDateTime":"2022-04-09T00:00:00+00:00"},"request":{"method":"POST","url":"Procedure"}},{"fullUrl":"MedicationStatement/7d3d706c-feec-43ad-a01e-4c76424b145e","resource":{"resourceType":"MedicationStatement","id":"7d3d706c-feec-43ad-a01e-4c76424b145e","status":"completed","medicationCodeableConcept":{"coding":[{"system":"http://www.nlm.nih.gov/research/umls/rxnorm","code":"10395"}]},"subject":{"reference":"Patient/8e9bfc17-85ff-4d4c-be0c-4e04fbaad71e"},"effectiveDateTime":"2022-06-23T00:00:00+00:00","dosage":[{"doseAndRate":[{"doseQuantity":{"value":1,"unit":"TAB","system":"http://terminology.hl7.org/CodeSystem/v3-orderableDrugForm","code":"TAB"}}]}]},"request":{"method":"POST","url":"MedicationStatement"}},{"fullUrl":"MedicationStatement/51a11450-0415-44e3-b5d0-fd898844bd9d","resource":{"resourceType":"MedicationStatement","id":"51a11450-0415-44e3-b5d0-fd898844bd9d","status":"completed","medicationCodeableConcept":{"coding":[{"system":"http://www.nlm.nih.gov/research/umls/rxnorm","code":"3640"}]},"subject":{"reference":"Patient/8e9bfc17-85ff-4d4c-be0c-4e04fbaad71e"},"effectiveDateTime":"2022-11-26T00:00:00+00:00","dosage":[{"doseAndRate":[{"doseQuantity":{"value":1,"unit":"TAB","system":"http://terminology.hl7.org/CodeSystem/v3-orderableDrugForm","code":"TAB"}}]}]},"request":{"method":"POST","url":"MedicationStatement"}},{"fullUrl":"MedicationStatement/8a1648e5-e007-405c-8b6d-5f3bbb419630","resource":{"resourceType":"MedicationStatement","id":"8a1648e5-e007-405c-8b6d-5f3bbb419630","status":"completed","medicationCodeableConcept":{"coding":[{"system":"http://www.nlm.nih.gov/research/umls/rxnorm","code":"7984"}]},"subject":{"reference":"Patient/8e9bfc17-85ff-4d4c-be0c-4e04fbaad71e"},"effectiveDateTime":"2022-04-11T00:00:00+00:00","dosage":[{"doseAndRate":[{"doseQuantity":{"value":2,"unit":"TAB","system":"http://terminology.hl7.org/CodeSystem/v3-orderableDrugForm","code":"TAB"}}]}]},"request":{"method":"POST","url":"MedicationStatement"}},{"fullUrl":"MedicationStatement/7989383a-ba60-418a-b962-348fc755202d","resource":{"resourceType":"MedicationStatement","id":"7989383a-ba60-418a-b962-348fc755202d","status":"completed","medicationCodeableConcept":{"coding":[{"system":"http://www.nlm.nih.gov/research/umls/rxnorm","code":"2193"}]},"subject":{"reference":"Patient/8e9bfc17-85ff-4d4c-be0c-4e04fbaad71e"},"effectiveDateTime":"2022-03-30T00:00:00+00:00","dosage":[{"doseAndRate":[{"doseQuantity":{"value":2,"unit":"TAB","system":"http://terminology.hl7.org/CodeSystem/v3-orderableDrugForm","code":"TAB"}}]}]},"request":{"method":"POST","url":"MedicationStatement"}},{"fullUrl":"MedicationStatement/1d62bfde-334b-4f91-a8dd-d10e1c3a561e","resource":{"resourceType":"MedicationStatement","id":"1d62bfde-334b-4f91-a8dd-d10e1c3a561e","status":"completed","medicationCodeableConcept":{"coding":[{"system":"http://www.nlm.nih.gov/research/umls/rxnorm","code":"7980"}]},"subject":{"reference":"Patient/8e9bfc17-85ff-4d4c-be0c-4e04fbaad71e"},"effectiveDateTime":"2022-10-03T00:00:00+00:00","dosage":[{"doseAndRate":[{"doseQuantity":{"value":3.7,"unit":"TAB","system":"http://terminology.hl7.org/CodeSystem/v3-orderableDrugForm","code":"TAB"}}]}]},"request":{"method":"POST","url":"MedicationStatement"}},{"fullUrl":"MedicationStatement/25da399a-b0d9-4f24-beae-cf9cc658f2d5","resource":{"resourceType":"MedicationStatement","id":"25da399a-b0d9-4f24-beae-cf9cc658f2d5","status":"completed","medicationCodeableConcept":{"coding":[{"system":"http://www.nlm.nih.gov/research/umls/rxnorm","code":"7984"}]},"subject":{"reference":"Patient/8e9bfc17-85ff-4d4c-be0c-4e04fbaad71e"},"effectiveDateTime":"2022-12-02T00:00:00+00:00","dosage":[{"doseAndRate":[{"doseQuantity":{"value":4.2,"unit":"TAB","system":"http://terminology.hl7.org/CodeSystem/v3-orderableDrugForm","code":"TAB"}}]}]},"request":{"method":"POST","url":"MedicationStatement"}},{"fullUrl":"MedicationStatement/cae26aea-c4fb-4df7-b1c2-dedaa93b4c2e","resource":{"resourceType":"MedicationStatement","id":"cae26aea-c4fb-4df7-b1c2-dedaa93b4c2e","status":"completed","medicationCodeableConcept":{"coding":[{"system":"http://www.nlm.nih.gov/research/umls/rxnorm","code":"7980"}]},"subject":{"reference":"Patient/8e9bfc17-85ff-4d4c-be0c-4e04fbaad71e"},"effectiveDateTime":"2022-10-22T00:00:00+00:00","dosage":[{"doseAndRate":[{"doseQuantity":{"value":4.3,"unit":"TAB","system":"http://terminology.hl7.org/CodeSystem/v3-orderableDrugForm","code":"TAB"}}]}]},"request":{"method":"POST","url":"MedicationStatement"}},{"fullUrl":"MedicationStatement/528a94a9-cfc4-4d8c-82a2-14fec6f10e69","resource":{"resourceType":"MedicationStatement","id":"528a94a9-cfc4-4d8c-82a2-14fec6f10e69","status":"completed","medicationCodeableConcept":{"coding":[{"system":"http://www.nlm.nih.gov/research/umls/rxnorm","code":"7984"}]},"subject":{"reference":"Patient/8e9bfc17-85ff-4d4c-be0c-4e04fbaad71e"},"effectiveDateTime":"2022-05-08T00:00:00+00:00","dosage":[{"doseAndRate":[{"doseQuantity":{"value":5.5,"unit":"TAB","system":"http://terminology.hl7.org/CodeSystem/v3-orderableDrugForm","code":"TAB"}}]}]},"request":{"method":"POST","url":"MedicationStatement"}},{"fullUrl":"MedicationStatement/6355da42-1852-4bfe-83c8-39147a09d7ef","resource":{"resourceType":"MedicationStatement","id":"6355da42-1852-4bfe-83c8-39147a09d7ef","status":"completed","medicationCodeableConcept":{"coding":[{"system":"http://www.nlm.nih.gov/research/umls/rxnorm","code":"2193"}]},"subject":{"reference":"Patient/8e9bfc17-85ff-4d4c-be0c-4e04fbaad71e"},"effectiveDateTime":"2022-06-23T00:00:00+00:00","dosage":[{"doseAndRate":[{"doseQuantity":{"value":3.9,"unit":"TAB","system":"http://terminology.hl7.org/CodeSystem/v3-orderableDrugForm","code":"TAB"}}]}]},"request":{"method":"POST","url":"MedicationStatement"}},{"fullUrl":"Encounter/d5f2af1d-dee9-4958-8651-8aa215fceda7","resource":{"resourceType":"Encounter","id":"d5f2af1d-dee9-4958-8651-8aa215fceda7","status":"finished","class":{"system":"http://terminology.hl7.org/CodeSystem/v3-ActCode","code":"IMP","display":"inpatient encounter"},"type":[{"coding":[{"system":"http://terminology.hl7.org/CodeSystem/encounter-type","code":"OKI"}]}],"subject":{"reference":"Patient/8e9bfc17-85ff-4d4c-be0c-4e04fbaad71e"},"period":{"start":"2022-12-15T00:00:00+00:00","end":"2022-12-21T00:00:00+00:00"}},"request":{"method":"POST","url":"Encounter"}},{"fullUrl":"Encounter/76685960-c53a-46b6-8988-303cbad189a8","resource":{"resourceType":"Encounter","id":"76685960-c53a-46b6-8988-303cbad189a8","status":"finished","class":{"system":"http://terminology.hl7.org/CodeSystem/v3-ActCode","code":"IMP","display":"inpatient encounter"},"type":[{"coding":[{"system":"http://terminology.hl7.org/CodeSystem/encounter-type","code":"ADMS"}]}],"subject":{"reference":"Patient/8e9bfc17-85ff-4d4c-be0c-4e04fbaad71e"},"period":{"start":"2022-01-08T00:00:00+00:00","end":"2022-01-16T00:00:00+00:00"}},"request":{"method":"POST","url":"Encounter"}},{"fullUrl":"Encounter/2137c6ff-360b-4b7d-bcb0-fd24b337acb4","resource":{"resourceType":"Encounter","id":"2137c6ff-360b-4b7d-bcb0-fd24b337acb4","status":"finished","class":{"system":"http://terminology.hl7.org/CodeSystem/v3-ActCode","code":"IMP","display":"inpatient encounter"},"type":[{"coding":[{"system":"http://terminology.hl7.org/CodeSystem/encounter-type","code":"OKI"}]}],"subject":{"reference":"Patient/8e9bfc17-85ff-4d4c-be0c-4e04fbaad71e"},"period":{"start":"2022-01-22T00:00:00+00:00","end":"2022-01-30T00:00:00+00:00"}},"request":{"method":"POST","url":"Encounter"}},{"fullUrl":"Encounter/8da50f82-ba1a-48b2-9b32-7b5cba7a0dbf","resource":{"resourceType":"Encounter","id":"8da50f82-ba1a-48b2-9b32-7b5cba7a0dbf","status":"finished","class":{"system":"http://terminology.hl7.org/CodeSystem/v3-ActCode","code":"FLD","display":"field"},"type":[{"coding":[{"system":"http://terminology.hl7.org/CodeSystem/encounter-type","code":"ADMS"}]}],"subject":{"reference":"Patient/8e9bfc17-85ff-4d4c-be0c-4e04fbaad71e"},"period":{"start":"2022-10-15T00:00:00+00:00","end":"2022-10-22T00:00:00+00:00"}},"request":{"method":"POST","url":"Encounter"}},{"fullUrl":"Encounter/afa46eef-891f-49f0-a4a7-ae56b2434d55","resource":{"resourceType":"Encounter","id":"afa46eef-891f-49f0-a4a7-ae56b2434d55","status":"finished","class":{"system":"http://terminology.hl7.org/CodeSystem/v3-ActCode","code":"NONAC","display":"inpatient non-acute"},"type":[{"coding":[{"system":"http://terminology.hl7.org/CodeSystem/encounter-type","code":"ADMS"}]}],"subject":{"reference":"Patient/8e9bfc17-85ff-4d4c-be0c-4e04fbaad71e"},"period":{"start":"2022-04-14T00:00:00+00:00","end":"2022-04-23T00:00:00+00:00"}},"request":{"method":"POST","url":"Encounter"}},{"fullUrl":"Location/a5dfa28e-91c4-4ab5-8b68-037bf56a3085","resource":{"resourceType":"Location","id":"a5dfa28e-91c4-4ab5-8b68-037bf56a3085","status":"active","name":"Reynolds, Monroe and Pope","telecom":[{"system":"phone","value":"(028)337-9467x4401","use":"mobile"}],"address":{"use":"work","line":["73100 Sean Lodge"],"city":"Bryanbury","state":"KY","postalCode":"88291"}},"request":{"method":"POST","url":"Location"}},{"fullUrl":"Observation/8073e07b-614c-48cd-af23-8254bd55ff91","resource":{"resourceType":"Observation","id":"8073e07b-614c-48cd-af23-8254bd55ff91","status":"final","code":{"coding":[{"system":"http://loinc.org","code":"81956-5"}]},"subject":{"reference":"Patient/8e9bfc17-85ff-4d4c-be0c-4e04fbaad71e"},"effectiveDateTime":"2022-11-06T00:00:00+00:00","valueDateTime":"2022-10-26T00:00:00+00:00"},"request":{"method":"POST","url":"Observation"}}]}