{"resourceType":"Bundle","id":"9407e568-04d9-41bf-83e1-869a68b11110","type":"collection","entry":[{"fullUrl":"Patient/fea3ea2d-67df-4980-8c26-7fb09545d7d9","resource":{"resourceType":"Patient","id":"fea3ea2d-67df-4980-8c26-7fb09545d7d9","meta":{"profile":["http://hl7.org/fhir/us/core/StructureDefinition/us-core-patient"]},"extension":[{"extension":[{"url":"ombCategory","valueCoding":{"system":"http://terminology.hl7.org/CodeSystem/v3-NullFlavor","code":"ASKU","display":"asked but unknown"}},{"url":"text","valueString":"asked but unknown"}],"url":"http://hl7.org/fhir/us/core/StructureDefinition/us-core-race"},{"extension":[{"url":"ombCategory","valueCoding":{"system":"urn:oid:2.16.840.1.113883.6.238","code":"2135-2","display":"Hispanic or Latino"}},{"url":"text","valueString":"Hispanic or Latino"}],"url":"http://hl7.org/fhir/us/core/StructureDefinition/us-core-ethnicity"}],"identifier":[{"type":{"coding":[{"system":"http://terminology.hl7.org/CodeSystem/v2-0203","code":"MR"}]},"system":"urn:fhirgen:mrn","value":"714-92-8307"}],"name":[{"use":"official","family":"Kirby","given":["Jonathan"]},{"use":"maiden","family":"Collins"}],"telecom":[{"system":"phone","value":"+1-372-145-1729x89372","use":"mobile"},{"system":"email","value":"clineisaac@gmail.com","use":"mobile"}],"gender":"male","birthDate":"1965-09-29","address":[{"use":"home","line":["77205 Bolton Landing"],"city":"New Kyleton","state":"NJ","postalCode":"66021"},{"use":"old","line":["4873 Matthew Wall Apt. 074"],"city":"West Shirleyland","state":"RI","postalCode":"85889"}]}},{"fullUrl":"Observation/073e4576-d4fb-4306-8708-54fc493181b1","resource":{"resourceType":"Observation","id":"073e4576-d4fb-4306-8708-54fc493181b1","meta":{"profile":["http://hl7.org/fhir/us/core/StructureDefinition/us-core-observation-lab"]},"status":"final","category":[{"coding":[{"system":"http://terminology.hl7.org/CodeSystem/observation-category","code":"laboratory","display":"Laboratory"}]}],"code":{"coding":[{"system":"http://loinc.org","code":"34382-2"}]},"subject":{"reference":"Patient/fea3ea2d-67df-4980-8c26-7fb09545d7d9"},"effectiveDateTime":"2022-04-27T00:00:00+00:00","valueRatio":{"numerator":{"value":1},"denominator":{"value":4}}}},{"fullUrl":"Observation/1261162c-ea0c-495a-9d1f-540968ded9ae","resource":{"resourceType":"Observation","id":"1261162c-ea0c-495a-9d1f-540968ded9ae","meta":{"profile":["http://hl7.org/fhir/us/core/StructureDefinition/us-core-observation-lab"]},"status":"final","category":[{"coding":[{"system":"http://terminology.hl7.org/CodeSystem/observation-category","code":"laboratory","display":"Laboratory"}]}],"code":{"coding":[{"system":"http://loinc.org","code":"5394-2"}]},"subject":{"reference":"Patient/fea3ea2d-67df-4980-8c26-7fb09545d7d9"},"effectiveDateTime":"2022-01-12T00:00:00+00:00","valueRatio":{"numerator":{"value":1},"denominator":{"value":32}}}},{"fullUrl":"Condition/dc816548-027d-4843-9561-8fd7a61a2a47","resource":{"resourceType":"Condition","id":"dc816548-027d-4843-9561-8fd7a61a2a47","meta":{"profile":["http://hl7.org/fhir/us/core/StructureDefinition/us-core-condition"]},"clinicalStatus":{"coding":[{"system":"http://terminology.hl7.org/CodeSystem/condition-clinical","code":"active","display":"Active"}]},"category":[{"coding":[{"system":"http://terminology.hl7.org/CodeSystem/condition-category","code":"problem-list-item"}]}],"code":{"coding":[{"system":"http://snomed.info/sct","code":"736686006"}]},"subject":{"reference":"Patient/fea3ea2d-67df-4980-8c26-7fb09545d7d9"},"onsetDateTime":"2022-05-09T00:00:00+00:00"}},{"fullUrl":"Condition/fd25a37a-f27a-4bee-a330-649fa5975975","resource":{"resourceType":"Condition","id":"fd25a37a-f27a-4bee-a330-649fa5975975","meta":{"profile":["http://hl7.org/fhir/us/core/StructureDefinition/us-core-condition"]},"clinicalStatus":{"coding":[{"system":"http://terminology.hl7.org/CodeSystem/condition-clinical","code":"active","display":"Active"}]},"category":[{"coding":[{"system":"http://terminology.hl7.org/CodeSystem/condition-category","code":"problem-list-item"}]}],"code":{"coding":[{"system":"http://snomed.info/sct","code":"709977002"}]},"subject":{"reference":"Patient/fea3ea2d-67df-4980-8c26-7fb09545d7d9"},"onsetDateTime":"2022-01-24T00:00:00+00:00"}},{"fullUrl":"Condition/0c671555-67eb-4e5f-af8a-78610a674d58","resource":{"resourceType":"Condition","id":"0c671555-67eb-4e5f-af8a-78610a674d58","meta":{"profile":["http://hl7.org/fhir/us/core/StructureDefinition/us-core-condition"]},"clinicalStatus":{"coding":[{"system":"http://terminology.hl7.org/CodeSystem/condition-clinical","code":"active","display":"Active"}]},"category":[{"coding":[{"system":"http://terminology.hl7.org/CodeSystem/condition-category","code":"problem-list-item"}]}],"code":{"coding":[{"system":"http://snomed.info/sct","code":"418290006"}]},"subject":{"reference":"Patient/fea3ea2d-67df-4980-8c26-7fb09545d7d9"},"onsetDateTime":"2022-10-30T00:00:00+00:00"}},{"fullUrl":"Condition/f9dae74f-b558-4df5-966d-334e816205cb","resource":{"resourceType":"Condition","id":"f9dae74f-b558-4df5-966d-334e816205cb","meta":{"profile":["http://hl7.org/fhir/us/core/StructureDefinition/us-core-condition"]},"clinicalStatus":{"coding":[{"system":"http://terminology.hl7.org/CodeSystem/condition-clinical","code":"active","display":"Active"}]},"category":[{"coding":[{"system":"http://terminology.hl7.org/CodeSystem/condition-category","code":"problem-list-item"}]}],"code":{"coding":[{"system":"http://snomed.info/sct","code":"418290006"}]},"subject":{"reference":"Patient/fea3ea2d-67df-4980-8c26-7fb09545d7d9"},"onsetDateTime":"2022-03-25T00:00:00+00:00"}},{"fullUrl":"Condition/5076f70f-cbcc-4ef1-996a-21f43880c22f","resource":{"resourceType":"Condition","id":"5076f70f-cbcc-4ef1-996a-21f43880c22f","meta":{"profile":["http://hl7.org/fhir/us/core/StructureDefinition/us-core-condition"]},"clinicalStatus":{"coding":[{"system":"http://terminology.hl7.org/CodeSystem/condition-clinical","code":"active","display":"Active"}]},"category":[{"coding":[{"system":"http://terminology.hl7.org/CodeSystem/condition-category","code":"problem-list-item"}]}],"code":{"coding":[{"system":"http://snomed.info/sct","code":"709977002"}]},"subject":{"reference":"Patient/fea3ea2d-67df-4980-8c26-7fb09545d7d9"},"onsetDateTime":"2022-09-22T00:00:00+00:00"}},{"fullUrl":"Condition/44223ba8-2b4a-4cda-b286-8191737a0b14","resource":{"resourceType":"Condition","id":"44223ba8-2b4a-4cda-b286-8191737a0b14","meta":{"profile":["http://hl7.org/fhir/us/core/StructureDefinition/us-core-condition"]},"clinicalStatus":{"coding":[{"system":"http://terminology.hl7.org/CodeSystem/condition-clinical","code":"active","display":"Active"}]},"category":[{"coding":[{"system":"http://terminology.hl7.org/CodeSystem/condition-category","code":"problem-list-item"}]}],"code":{"coding":[{"system":"http://snomed.info/sct","code":"91554004"}]},"subject":{"reference":"Patient/fea3ea2d-67df-4980-8c26-7fb09545d7d9"},"onsetDateTime":"2022-01-15T00:00:00+00:00"}},{"fullUrl":"Condition/6bbc8862-f328-456d-8832-12648bf93ff4","resource":{"resourceType":"Condition","id":"6bbc8862-f328-456d-8832-12648bf93ff4","meta":{"profile":["http://hl7.org/fhir/us/core/StructureDefinition/us-core-condition"]},"clinicalStatus":{"coding":[{"system":"http://terminology.hl7.org/CodeSystem/condition-clinical","code":"active","display":"Active"}]},"category":[{"coding":[{"system":"http://terminology.hl7.org/CodeSystem/condition-category","code":"problem-list-item"}]}],"code":{"coding":[{"system":"http://snomed.info/sct","code":"736686006"}]},"subject":{"reference":"Patient/fea3ea2d-67df-4980-8c26-7fb09545d7d9"},"onsetDateTime":"2022-12-14T00:00:00+00:00"}},{"fullUrl":"Observation/ee42e381-e2b9-43ed-9412-989f72bd72f6","resource":{"resourceType":"Observation","id":"ee42e381-e2b9-43ed-9412-989f72bd72f6","meta":{"profile":["http://hl7.org/fhir/us/core/StructureDefinition/us-core-observation-lab"]},"status":"final","category":[{"coding":[{"system":"http://terminology.hl7.org/CodeSystem/observation-category","code":"laboratory","display":"Laboratory"}]}],"code":{"coding":[{"system":"http://loinc.org","code":"26464-8"}]},"subject":{"reference":"Patient/fea3ea2d-67df-4980-8c26-7fb09545d7d9"},"effectiveDateTime":"2022-10-16T00:00:00+00:00","valueQuantity":{"value":10.1}}},{"fullUrl":"Observation/9c4791cc-565c-440d-82e8-93f0af9ca99b","resource":{"resourceType":"Observation","id":"9c4791cc-565c-440d-82e8-93f0af9ca99b","meta":{"profile":["http://hl7.org/fhir/us/core/StructureDefinition/us-core-observation-lab"]},"status":"final","category":[{"coding":[{"system":"http://terminology.hl7.org/CodeSystem/observation-category","code":"laboratory","display":"Laboratory"}]}],"code":{"coding":[{"system":"http://loinc.org","code":"26464-8"}]},"subject":{"reference":"Patient/fea3ea2d-67df-4980-8c26-7fb09545d7d9"},"effectiveDateTime":"2022-05-10T00:00:00+00:00","valueQuantity":{"value":7.7}}},{"fullUrl":"Observation/45851614-5c4c-4014-bde9-0436a5029c3b","resource":{"resourceType":"Observation","id":"45851614-5c4c-4014-bde9-0436a5029c3b","meta":{"profile":["http://hl7.org/fhir/us/core/StructureDefinition/us-core-observation-lab"]},"status":"final","category":[{"coding":[{"system":"http://terminology.hl7.org/CodeSystem/observation-category","code":"laboratory","display":"Laboratory"}]}],"code":{"coding":[{"system":"http://loinc.org","code":"26464-8"}]},"subject":{"reference":"Patient/fea3ea2d-67df-4980-8c26-7fb09545d7d9"},"effectiveDateTime":"2022-06-09T00:00:00+00:00","valueQuantity":{"value":8.1}}},{"fullUrl":"Observation/ef0c304b-814f-4c36-bb0b-97dcf96960f1","resource":{"resourceType":"Observation","id":"ef0c304b-814f-4c36-bb0b-97dcf96960f1","meta":{"profile":["http://hl7.org/fhir/us/core/StructureDefinition/us-core-bmi"]},"status":"final","category":[{"coding":[{"system":"http://terminology.hl7.org/CodeSystem/observation-category","code":"vital-signs","display":"Vital Signs"}]}],"code":{"coding":[{"system":"http://loinc.org","code":"39156-5"}]},"subject":{"reference":"Patient/fea3ea2d-67df-4980-8c26-7fb09545d7d9"},"effectiveDateTime":"2022-12-03T00:00:00+00:00","valueQuantity":{"value":14.66,"unit":"kg/m2","system":"http://unitsofmeasure.org","code":"kg/m2"}}},{"fullUrl":"Observation/3c8a5edd-3726-4b26-8a52-1e61d2d93dfe","resource":{"resourceType":"Observation","id":"3c8a5edd-3726-4b26-8a52-1e61d2d93dfe","meta":{"profile":["http://hl7.org/fhir/us/core/StructureDefinition/us-core-bmi"]},"status":"final","category":[{"coding":[{"system":"http://terminology.hl7.org/CodeSystem/observation-category","code":"vital-signs","display":"Vital Signs"}]}],"code":{"coding":[{"system":"http://loinc.org","code":"39156-5"}]},"subject":{"reference":"Patient/fea3ea2d-67df-4980-8c26-7fb09545d7d9"},"effectiveDateTime":"2022-11-01T00:00:00+00:00","valueQuantity":{"value":20.03,"unit":"kg/m2","system":"http://unitsofmeasure.org","code":"kg/m2"}}},{"fullUrl":"Observation/cd3b32d9-a070-44d8-be86-42837855aa9d","resource":{"resourceType":"Observation","id":"cd3b32d9-a070-44d8-be86-42837855aa9d","meta":{"profile":["http://hl7.org/fhir/us/core/StructureDefinition/us-core-head-circumference"]},"status":"final","category":[{"coding":[{"system":"http://terminology.hl7.org/CodeSystem/observation-category","code":"vital-signs","display":"Vital Signs"}]}],"code":{"coding":[{"system":"http://loinc.org","code":"9843-4"}]},"subject":{"reference":"Patient/fea3ea2d-67df-4980-8c26-7fb09545d7d9"},"effectiveDateTime":"2022-02-24T00:00:00+00:00","valueQuantity":{"value":8.9,"unit":"Inch","system":"http://unitsofmeasure.org","code":"[in_i]"}}},{"fullUrl":"Observation/e2a87fb8-5750-4e8d-83d2-d37fb8268d85","resource":{"resourceType":"Observation","id":"e2a87fb8-5750-4e8d-83d2-d37fb8268d85","meta":{"profile":["http://hl7.org/fhir/us/core/StructureDefinition/us-core-body-height"]},"status":"final","category":[{"coding":[{"system":"http://terminology.hl7.org/CodeSystem/observation-category","code":"vital-signs","display":"Vital Signs"}]}],"code":{"coding":[{"system":"http://loinc.org","code":"8302-2"}]},"subject":{"reference":"Patient/fea3ea2d-67df-4980-8c26-7fb09545d7d9"},"effectiveDateTime":"2022-05-07T00:00:00+00:00","valueQuantity":{"value":67.4,"unit":"Inch","system":"http://unitsofmeasure.org","code":"[in_i]"}}},{"fullUrl":"Observation/0b7d029f-8967-44f4-8abd-e80547f5a025","resource":{"resourceType":"Observation","id":"0b7d029f-8967-44f4-8abd-e80547f5a025","meta":{"profile":["http://hl7.org/fhir/us/core/StructureDefinition/us-core-body-height"]},"status":"final","category":[{"coding":[{"system":"http://terminology.hl7.org/CodeSystem/observation-category","code":"vital-signs","display":"Vital Signs"}]}],"code":{"coding":[{"system":"http://loinc.org","code":"8302-2"}]},"subject":{"reference":"Patient/fea3ea2d-67df-4980-8c26-7fb09545d7d9"},"effectiveDateTime":"2022-09-09T00:00:00+00:00","valueQuantity":{"value":73.7,"unit":"Inch","system":"http://unitsofmeasure.org","code":"[in_i]"}}},{"fullUrl":"Observation/9d7b475f-e4c6-42e0-937a-b113b0712e71","resource":{"resourceType":"Observation","id":"9d7b475f-e4c6-42e0-937a-b113b0712e71","meta":{"profile":["http://hl7.org/fhir/us/core/StructureDefinition/us-core-body-weight"]},"status":"final","category":[{"coding":[{"system":"http://terminology.hl7.org/CodeSystem/observation-category","code":"vital-signs","display":"Vital Signs"}]}],"code":{"coding":[{"system":"http://loinc.org","code":"29463-7"}]},"subject":{"reference":"Patient/fea3ea2d-67df-4980-8c26-7fb09545d7d9"},"effectiveDateTime":"2022-07-19T00:00:00+00:00","valueQuantity":{"value":135.66,"unit":"kilogram","system":"http://unitsofmeasure.org","code":"kg"}}},{"fullUrl":"Observation/70434aab-55f9-4c78-abf6-5a563d2e6f40","resource":{"resourceType":"Observation","id":"70434aab-55f9-4c78-abf6-5a563d2e6f40","meta":{"profile":["http://hl7.org/fhir/us/core/StructureDefinition/us-core-body-temperature"]},"status":"final","category":[{"coding":[{"system":"http://terminology.hl7.org/CodeSystem/observation-category","code":"vital-signs","display":"Vital Signs"}]}],"code":{"coding":[{"system":"http://loinc.org","code":"8310-5"}]},"subject":{"reference":"Patient/fea3ea2d-67df-4980-8c26-7fb09545d7d9"},"effectiveDateTime":"2022-06-22T00:00:00+00:00","valueQuantity":{"value":75.44,"unit":"Degrees Fahrenheit","system":"http://unitsofmeasure.org","code":"[degF]"}}},{"fullUrl":"Observation/21ab8288-d129-48a8-b03b-35e68e704da7","resource":{"resourceType":"Observation","id":"21ab8288-d129-48a8-b03b-35e68e704da7","meta":{"profile":["http://hl7.org/fhir/us/core/StructureDefinition/us-core-body-temperature"]},"status":"final","category":[{"coding":[{"system":"http://terminology.hl7.org/CodeSystem/observation-category","code":"vital-signs","display":"Vital Signs"}]}],"code":{"coding":[{"system":"http://loinc.org","code":"8310-5"}]},"subject":{"reference":"Patient/fea3ea2d-67df-4980-8c26-7fb09545d7d9"},"effectiveDateTime":"2022-07-12T00:00:00+00:00","valueQuantity":{"value":135.83,"unit":"Degrees Fahrenheit","system":"http://unitsofmeasure.org","code":"[degF]"}}},{"fullUrl":"Observation/dfc2d4c5-ec07-4bda-96f0-e9e099c5e2e2","resource":{"resourceType":"Observation","id":"dfc2d4c5-ec07-4bda-96f0-e9e099c5e2e2","meta":{"profile":["http://hl7.org/fhir/us/core/StructureDefinition/us-core-heart-rate"]},"status":"final","category":[{"coding":[{"system":"http://terminology.hl7.org/CodeSystem/observation-category","code":"vital-signs","display":"Vital Signs"}]}],"code":{"coding":[{"system":"http://loinc.org","code":"8867-4"}]},"subject":{"reference":"Patient/fea3ea2d-67df-4980-8c26-7fb09545d7d9"},"effectiveDateTime":"2022-03-18T00:00:00+00:00","valueQuantity":{"value":97.6,"unit":"Per Minute","system":"http://unitsofmeasure.org","code":"/min"}}},{"fullUrl":"Observation/66c24c2f-8741-4f80-abf0-3fde3d1c608f","resource":{"resourceType":"Observation","id":"66c24c2f-8741-4f80-abf0-3fde3d1c608f","meta":{"profile":["http://hl7.org/fhir/us/core/StructureDefinition/us-core-heart-rate"]},"status":"final","category":[{"coding":[{"system":"http://terminology.hl7.org/CodeSystem/observation-category","code":"vital-signs","display":"Vital Signs"}]}],"code":{"coding":[{"system":"http://loinc.org","code":"8867-4"}]},"subject":{"reference":"Patient/fea3ea2d-67df-4980-8c26-7fb09545d7d9"},"effectiveDateTime":"2022-07-17T00:00:00+00:00","valueQuantity":{"value":100.8,"unit":"Per Minute","system":"http://unitsofmeasure.org","code":"/min"}}},{"fullUrl":"Patient/ff0fffda-bf95-40d8-b472-95d24aae795a","resource":{"resourceType":"Patient","id":"ff0fffda-bf95-40d8-b472-95d24aae795a","meta":{"profile":["http://hl7.org/fhir/us/core/StructureDefinition/us-core-patient"]},"extension":[{"extension":[{"url":"ombCategory","valueCoding":{"system":"urn:oid:2.16.840.1.113883.6.238","code":"2028-9","display":"Asian"}},{"url":"text","valueString":"Asian"}],"url":"http://hl7.org/fhir/us/core/StructureDefinition/us-core-race"},{"extension":[{"url":"ombCategory","valueCoding":{"system":"urn:oid:2.16.840.1.113883.6.238","code":"2135-2","display":"Hispanic or Latino"}},{"url":"text","valueString":"Hispanic or Latino"}],"url":"http://hl7.org/fhir/us/core/StructureDefinition/us-core-ethnicity"}],"identifier":[{"type":{"coding":[{"system":"http://terminology.hl7.org/CodeSystem/v2-0203","code":"MR"}]},"system":"urn:fhirgen:mrn","value":"510-51-8668"}],"name":[{"use":"official","family":"Larson","given":["Brian"]},{"use":"maiden","family":"Rogers"}],"telecom":[{"system":"phone","value":"+1-910-863-4860x32785","use":"work"},{"system":"email","value":"victoria83@yahoo.com","use":"mobile"}],"gender":"male","birthDate":"1996-02-16","address":[{"use":"home","line":["741 Mary Glen Suite 030"],"city":"West Kevinhaven","state":"NH","postalCode":"20208"},{"use":"old","line":["97494 Phillips Field Apt. 879"],"city":"East Joseph","state":"NJ","postalCode":"47867"}]}},{"fullUrl":"Observation/e845f60f-c81b-42b1-9320-029d56c06253","resource":{"resourceType":"Observation","id":"e845f60f-c81b-42b1-9320-029d56c06253","meta":{"profile":["http://hl7.org/fhir/us/core/StructureDefinition/us-core-observation-lab"]},"status":"final","category":[{"coding":[{"system":"http://terminology.hl7.org/CodeSystem/observation-category","code":"laboratory","display":"Laboratory"}]}],"code":{"coding":[{"system":"http://loinc.org","code":"31146-4"}]},"subject":{"reference":"Patient/ff0fffda-bf95-40d8-b472-95d24aae795a"},"effectiveDateTime":"2022-07-18T00:00:00+00:00","valueRatio":{"numerator":{"value":1},"denominator":{"value":4}}}},{"fullUrl":"Observation/acb0d070-a0b0-4633-bcfd-051b1629ac21","resource":{"resourceType":"Observation","id":"acb0d070-a0b0-4633-bcfd-051b1629ac21","meta":{"profile":["http://hl7.org/fhir/us/core/StructureDefinition/us-core-observation-lab"]},"status":"final","category":[{"coding":[{"system":"http://terminology.hl7.org/CodeSystem/observation-category","code":"laboratory","display":"Laboratory"}]}],"code":{"coding":[{"system":"http://loinc.org","code":"50695-6"}]},"subject":{"reference":"Patient/ff0fffda-bf95-40d8-b472-95d24aae795a"},"effectiveDateTime":"2022-09-21T00:00:00+00:00","valueRatio":{"numerator":{"value":1},"denominator":{"value":64}}}},{"fullUrl":"Condition/294340e2-0600-4443-b8ab-dad5f6d9edfa","resource":{"resourceType":"Condition","id":"294340e2-0600-4443-b8ab-dad5f6d9edfa","meta":{"profile":["http://hl7.org/fhir/us/core/StructureDefinition/us-core-condition"]},"clinicalStatus":{"coding":[{"system":"http://terminology.hl7.org/CodeSystem/condition-clinical","code":"active","display":"Active"}]},"category":[{"coding":[{"system":"http://terminology.hl7.org/CodeSystem/condition-category","code":"problem-list-item"}]}],"code":{"coding":[{"system":"http://snomed.info/sct","code":"709977002"}]},"subject":{"reference":"Patient/ff0fffda-bf95-40d8-b472-95d24aae795a"},"onsetDateTime":"2022-12-25T00:00:00+00:00"}},{"fullUrl":"Condition/2f5582fa-437f-4fd5-a757-eea3c499a9bc","resource":{"resourceType":"Condition","id":"2f5582fa-437f-4fd5-a757-eea3c499a9bc","meta":{"profile":["http://hl7.org/fhir/us/core/StructureDefinition/us-core-condition"]},"clinicalStatus":{"coding":[{"system":"http://terminology.hl7.org/CodeSystem/condition-clinical","code":"active","display":"Active"}]},"category":[{"coding":[{"system":"http://terminology.hl7.org/CodeSystem/condition-category","code":"problem-list-item"}]}],"code":{"coding":[{"system":"http://snomed.info/sct","code":"709977002"}]},"subject":{"reference":"Patient/ff0fffda-bf95-40d8-b472-95d24aae795a"},"onsetDateTime":"2022-04-15T00:00:00+00:00"}},{"fullUrl":"Condition/b4ac8240-49ea-43a5-b50c-a9b293e4b0bf","resource":{"resourceType":"Condition","id":"b4ac8240-49ea-43a5-b50c-a9b293e4b0bf","meta":{"profile":["http://hl7.org/fhir/us/core/StructureDefinition/us-core-condition"]},"clinicalStatus":{"coding":[{"system":"http://terminology.hl7.org/CodeSystem/condition-clinical","code":"active","display":"Active"}]},"category":[{"coding":[{"system":"http://terminology.hl7.org/CodeSystem/condition-category","code":"problem-list-item"}]}],"code":{"coding":[{"system":"http://snomed.info/sct","code":"736686006"}]},"subject":{"reference":"Patient/ff0fffda-bf95-40d8-b472-95d24aae795a"},"onsetDateTime":"2022-01-04T00:00:00+00:00"}},{"fullUrl":"Condition/968d728e-cccc-4083-b034-79a82cb70b34","resource":{"resourceType":"Condition","id":"968d728e-cccc-4083-b034-79a82cb70b34","meta":{"profile":["http://hl7.org/fhir/us/core/StructureDefinition/us-core-condition"]},"clinicalStatus":{"coding":[{"system":"http://terminology.hl7.org/CodeSystem/condition-clinical","code":"active","display":"Active"}]},"category":[{"coding":[{"system":"http://terminology.hl7.org/CodeSystem/condition-category","code":"problem-list-item"}]}],"code":{"coding":[{"system":"http://snomed.info/sct","code":"44882003"}]},"subject":{"reference":"Patient/ff0fffda-bf95-40d8-b472-95d24aae795a"},"onsetDateTime":"2022-04-01T00:00:00+00:00"}},{"fullUrl":"Condition/9c3c21cf-a503-4cd7-808a-8d1ab268bb6d","resource":{"resourceType":"Condition","id":"9c3c21cf-a503-4cd7-808a-8d1ab268bb6d","meta":{"profile":["http://hl7.org/fhir/us/core/StructureDefinition/us-core-condition"]},"clinicalStatus":{"coding":[{"system":"http://terminology.hl7.org/CodeSystem/condition-clinical","code":"active","display":"Active"}]},"category":[{"coding":[{"system":"http://terminology.hl7.org/CodeSystem/condition-category","code":"problem-list-item"}]}],"code":{"coding":[{"system":"http://snomed.info/sct","code":"44882003"}]},"subject":{"reference":"Patient/ff0fffda-bf95-40d8-b472-95d24aae795a"},"onsetDateTime":"2022-04-20T00:00:00+00:00"}},{"fullUrl":"Observation/08575e4c-7462-4374-9863-d6d7f090a6b0","resource":{"resourceType":"Observation","id":"08575e4c-7462-4374-9863-d6d7f090a6b0","meta":{"profile":["http://hl7.org/fhir/us/core/StructureDefinition/us-core-observation-lab"]},"status":"final","category":[{"coding":[{"system":"http://terminology.hl7.org/CodeSystem/observation-category","code":"laboratory","display":"Laboratory"}]}],"code":{"coding":[{"system":"http://loinc.org","code":"804-5"}]},"subject":{"reference":"Patient/ff0fffda-bf95-40d8-b472-95d24aae795a"},"effectiveDateTime":"2022-06-24T00:00:00+00:00","valueQuantity":{"value":4}}},{"fullUrl":"Observation/fdce614c-6b6a-44dc-b364-ff26617833fe","resource":{"resourceType":"Observation","id":"fdce614c-6b6a-44dc-b364-ff26617833fe","meta":{"profile":["http://hl7.org/fhir/us/core/StructureDefinition/us-core-observation-lab"]},"status":"final","category":[{"coding":[{"system":"http://terminology.hl7.org/CodeSystem/observation-category","code":"laboratory","display":"Laboratory"}]}],"code":{"coding":[{"system":"http://loinc.org","code":"26464-8"}]},"subject":{"reference":"Patient/ff0fffda-bf95-40d8-b472-95d24aae795a"},"effectiveDateTime":"2022-07-20T00:00:00+00:00","valueQuantity":{"value":6.9}}},{"fullUrl":"Observation/f537181e-30ac-46c2-a130-a0651b00609e","resource":{"resourceType":"Observation","id":"f537181e-30ac-46c2-a130-a0651b00609e","meta":{"profile":["http://hl7.org/fhir/us/core/StructureDefinition/us-core-bmi"]},"status":"final","category":[{"coding":[{"system":"http://terminology.hl7.org/CodeSystem/observation-category","code":"vital-signs","display":"Vital Signs"}]}],"code":{"coding":[{"system":"http://loinc.org","code":"39156-5"}]},"subject":{"reference":"Patient/ff0fffda-bf95-40d8-b472-95d24aae795a"},"effectiveDateTime":"2022-09-13T00:00:00+00:00","valueQuantity":{"value":26.05,"unit":"kg/m2","system":"http://unitsofmeasure.org","code":"kg/m2"}}},{"fullUrl":"Observation/100945dd-e99a-4e0d-8c56-aadda0134e0a","resource":{"resourceType":"Observation","id":"100945dd-e99a-4e0d-8c56-aadda0134e0a","meta":{"profile":["http://hl7.org/fhir/us/core/StructureDefinition/us-core-bmi"]},"status":"final","category":[{"coding":[{"system":"http://terminology.hl7.org/CodeSystem/observation-category","code":"vital-signs","display":"Vital Signs"}]}],"code":{"coding":[{"system":"http://loinc.org","code":"39156-5"}]},"subject":{"reference":"Patient/ff0fffda-bf95-40d8-b472-95d24aae795a"},"effectiveDateTime":"2022-04-19T00:00:00+00:00","valueQuantity":{"value":16.45,"unit":"kg/m2","system":"http://unitsofmeasure.org","code":"kg/m2"}}},{"fullUrl":"Observation/716f1129-60f2-48af-82ec-c028779daa3e","resource":{"resourceType":"Observation","id":"716f1129-60f2-48af-82ec-c028779daa3e","meta":{"profile":["http://hl7.org/fhir/us/core/StructureDefinition/us-core-head-circumference"]},"status":"final","category":[{"coding":[{"system":"http://terminology.hl7.org/CodeSystem/observation-category","code":"vital-signs","display":"Vital Signs"}]}],"code":{"coding":[{"system":"http://loinc.org","code":"9843-4"}]},"subject":{"reference":"Patient/ff0fffda-bf95-40d8-b472-95d24aae795a"},"effectiveDateTime":"2022-12-23T00:00:00+00:00","valueQuantity":{"value":5.6,"unit":"Inch","system":"http://unitsofmeasure.org","code":"[in_i]"}}},{"fullUrl":"Observation/9cbcbe72-5aa6-4d0c-96dd-eff4499f0499","resource":{"resourceType":"Observation","id":"9cbcbe72-5aa6-4d0c-96dd-eff4499f0499","meta":{"profile":["http://hl7.org/fhir/us/core/StructureDefinition/us-core-head-circumference"]},"status":"final","category":[{"coding":[{"system":"http://terminology.hl7.org/CodeSystem/observation-category","code":"vital-signs","display":"Vital Signs"}]}],"code":{"coding":[{"system":"http://loinc.org","code":"9843-4"}]},"subject":{"reference":"Patient/ff0fffda-bf95-40d8-b472-95d24aae795a"},"effectiveDateTime":"2022-12-23T00:00:00+00:00","valueQuantity":{"value":8.6,"unit":"Inch","system":"http://unitsofmeasure.org","code":"[in_i]"}}},{"fullUrl":"Observation/931b6f49-4c47-4822-bdb8-8da013b6f4c1","resource":{"resourceType":"Observation","id":"931b6f49-4c47-4822-bdb8-8da013b6f4c1","meta":{"profile":["http://hl7.org/fhir/us/core/StructureDefinition/us-core-body-height"]},"status":"final","category":[{"coding":[{"system":"http://terminology.hl7.org/CodeSystem/observation-category","code":"vital-signs","display":"Vital Signs"}]}],"code":{"coding":[{"system":"http://loinc.org","code":"8302-2"}]},"subject":{"reference":"Patient/ff0fffda-bf95-40d8-b472-95d24aae795a"},"effectiveDateTime":"2022-03-12T00:00:00+00:00","valueQuantity":{"value":80.3,"unit":"Inch","system":"http://unitsofmeasure.org","code":"[in_i]"}}},{"fullUrl":"Observation/90366378-a5a8-4cc3-ab83-71d3953611c7","resource":{"resourceType":"Observation","id":"90366378-a5a8-4cc3-ab83-71d3953611c7","meta":{"profile":["http://hl7.org/fhir/us/core/StructureDefinition/us-core-body-weight"]},"status":"final","category":[{"coding":[{"system":"http://terminology.hl7.org/CodeSystem/observation-category","code":"vital-signs","display":"Vital Signs"}]}],"code":{"coding":[{"system":"http://loinc.org","code":"29463-7"}]},"subject":{"reference":"Patient/ff0fffda-bf95-40d8-b472-95d24aae795a"},"effectiveDateTime":"2022-09-28T00:00:00+00:00","valueQuantity":{"value":31.86,"unit":"kilogram","system":"http://unitsofmeasure.org","code":"kg"}}},{"fullUrl":"Observation/29bccd8d-9e76-4073-b1a2-5f8d80274cd4","resource":{"resourceType":"Observation","id":"29bccd8d-9e76-4073-b1a2-5f8d80274cd4","meta":{"profile":["http://hl7.org/fhir/us/core/StructureDefinition/us-core-body-temperature"]},"status":"final","category":[{"coding":[{"system":"http://terminology.hl7.org/CodeSystem/observation-category","code":"vital-signs","display":"Vital Signs"}]}],"code":{"coding":[{"system":"http://loinc.org","code":"8310-5"}]},"subject":{"reference":"Patient/ff0fffda-bf95-40d8-b472-95d24aae795a"},"effectiveDateTime":"2022-10-29T00:00:00+00:00","valueQuantity":{"value":111.13,"unit":"Degrees Fahrenheit","system":"http://unitsofmeasure.org","code":"[degF]"}}},{"fullUrl":"Observation/f7424508-903c-4f45-b3cb-580d410baaca","resource":{"resourceType":"Observation","id":"f7424508-903c-4f45-b3cb-580d410baaca","meta":{"profile":["http://hl7.org/fhir/us/core/StructureDefinition/us-core-heart-rate"]},"status":"final","category":[{"coding":[{"system":"http://terminology.hl7.org/CodeSystem/observation-category","code":"vital-signs","display":"Vital Signs"}]}],"code":{"coding":[{"system":"http://loinc.org","code":"8867-4"}]},"subject":{"reference":"Patient/ff0fffda-bf95-40d8-b472-95d24aae795a"},"effectiveDateTime":"2022-01-01T00:00:00+00:00","valueQuantity":{"value":99.6,"unit":"Per Minute","system":"http://unitsofmeasure.org","code":"/min"}}},{"fullUrl":"Patient/f003486f-ad90-45a5-be7a-22256b664ba3","resource":{"resourceType":"Patient","id":"f003486f-ad90-45a5-be7a-22256b664ba3","meta":{"profile":["http://hl7.org/fhir/us/core/StructureDefinition/us-core-patient"]},"extension":[{"extension":[{"url":"ombCategory","valueCoding":{"system":"http://terminology.hl7.org/CodeSystem/v3-NullFlavor","code":"UNK","display":"unknown"}},{"url":"text","valueString":"unknown"}],"url":"http://hl7.org/fhir/us/core/StructureDefinition/us-core-race"},{"extension":[{"url":"ombCategory","valueCoding":{"system":"urn:oid:2.16.840.1.113883.6.238","code":"2186-5","display":"Non Hispanic or Latino"}},{"url":"text","valueString":"Non Hispanic or Latino"}],"url":"http://hl7.org/fhir/us/core/StructureDefinition/us-core-ethnicity"}],"identifier":[{"type":{"coding":[{"system":"http://terminology.hl7.org/CodeSystem/v2-0203","code":"MR"}]},"system":"urn:fhirgen:mrn","value":"432-96-4662"}],"name":[{"use":"official","family":"Edwards","given":["Laurie"]},{"use":"maiden","family":"Parsons"}],"telecom":[{"system":"phone","value":"+1-502-578-4109x21951","use":"work"},{"system":"email","value":"hreyes@gmail.com","use":"home"}],"gender":"female","birthDate":"1964-05-18","address":[{"use":"home","line":["590 Knight Plaza"],"city":"Alecton","state":"PA","postalCode":"38394"},{"use":"old","line":["11967 Eric Loaf Apt. 189"],"city":"Rogersfort","state":"DC","postalCode":"40673"}]}},{"fullUrl":"Observation/d10b0108-2e13-4ca2-ae78-484ace355a63","resource":{"resourceType":"Observation","id":"d10b0108-2e13-4ca2-ae78-484ace355a63","meta":{"profile":["http://hl7.org/fhir/us/core/StructureDefinition/us-core-observation-lab"]},"status":"final","category":[{"coding":[{"system":"http://terminology.hl7.org/CodeSystem/observation-category","code":"laboratory","display":"Laboratory"}]}],"code":{"coding":[{"system":"http://loinc.org","code":"50695-6"}]},"subject":{"reference":"Patient/f003486f-ad90-45a5-be7a-22256b664ba3"},"effectiveDateTime":"2022-07-03T00:00:00+00:00","valueRatio":{"numerator":{"value":1},"denominator":{"value":4}}}},{"fullUrl":"Observation/c0cfdbab-e896-4826-aa0e-e57b3eda5269","resource":{"resourceType":"Observation","id":"c0cfdbab-e896-4826-aa0e-e57b3eda5269","meta":{"profile":["http://hl7.org/fhir/us/core/StructureDefinition/us-core-observation-lab"]},"status":"final","category":[{"coding":[{"system":"http://terminology.hl7.org/CodeSystem/observation-category","code":"laboratory","display":"Laboratory"}]}],"code":{"coding":[{"system":"http://loinc.org","code":"22590-4"}]},"subject":{"reference":"Patient/f003486f-ad90-45a5-be7a-22256b664ba3"},"effectiveDateTime":"2022-04-20T00:00:00+00:00","valueRatio":{"numerator":{"value":1},"denominator":{"value":32}}}},{"fullUrl":"Condition/e576e24f-edee-4f85-bc3d-67c9eddab55f","resource":{"resourceType":"Condition","id":"e576e24f-edee-4f85-bc3d-67c9eddab55f","meta":{"profile":["http://hl7.org/fhir/us/core/StructureDefinition/us-core-condition"]},"clinicalStatus":{"coding":[{"system":"http://terminology.hl7.org/CodeSystem/condition-clinical","code":"active","display":"Active"}]},"category":[{"coding":[{"system":"http://terminology.hl7.org/CodeSystem/condition-category","code":"problem-list-item"}]}],"code":{"coding":[{"system":"http://snomed.info/sct","code":"736686006"}]},"subject":{"reference":"Patient/f003486f-ad90-45a5-be7a-22256b664ba3"},"onsetDateTime":"2022-10-03T00:00:00+00:00"}},{"fullUrl":"Condition/09087f93-20c0-4ff1-9824-06cf1f9d60e7","resource":{"resourceType":"Condition","id":"09087f93-20c0-4ff1-9824-06cf1f9d60e7","meta":{"profile":["http://hl7.org/fhir/us/core/StructureDefinition/us-core-condition"]},"clinicalStatus":{"coding":[{"system":"http://terminology.hl7.org/CodeSystem/condition-clinical","code":"active","display":"Active"}]},"category":[{"coding":[{"system":"http://terminology.hl7.org/CodeSystem/condition-category","code":"problem-list-item"}]}],"code":{"coding":[{"system":"http://snomed.info/sct","code":"44882003"}]},"subject":{"reference":"Patient/f003486f-ad90-45a5-be7a-22256b664ba3"},"onsetDateTime":"2022-11-09T00:00:00+00:00"}},{"fullUrl":"Condition/74e5abcc-f37e-4f72-91fc-dc6ebd8eeb05","resource":{"resourceType":"Condition","id":"74e5abcc-f37e-4f72-91fc-dc6ebd8eeb05","meta":{"profile":["http://hl7.org/fhir/us/core/StructureDefinition/us-core-condition"]},"clinicalStatus":{"coding":[{"system":"http://terminology.hl7.org/CodeSystem/condition-clinical","code":"active","display":"Active"}]},"category":[{"coding":[{"system":"http://terminology.hl7.org/CodeSystem/condition-category","code":"problem-list-item"}]}],"code":{"coding":[{"system":"http://snomed.info/sct","code":"736686006"}]},"subject":{"reference":"Patient/f003486f-ad90-45a5-be7a-22256b664ba3"},"onsetDateTime":"2022-03-11T00:00:00+00:00"}},{"fullUrl":"Observation/35e6beb4-1384-45f8-9c08-ee09476c90c1","resource":{"resourceType":"Observation","id":"35e6beb4-1384-45f8-9c08-ee09476c90c1","meta":{"profile":["http://hl7.org/fhir/us/core/StructureDefinition/us-core-observation-lab"]},"status":"final","category":[{"coding":[{"system":"http://terminology.hl7.org/CodeSystem/observation-category","code":"laboratory","display":"Laboratory"}]}],"code":{"coding":[{"system":"http://loinc.org","code":"26464-8"}]},"subject":{"reference":"Patient/f003486f-ad90-45a5-be7a-22256b664ba3"},"effectiveDateTime":"2022-04-06T00:00:00+00:00","valueQuantity":{"value":8}}},{"fullUrl":"Observation/57a10933-ff25-4190-91ab-162e1e0aa899","resource":{"resourceType":"Observation","id":"57a10933-ff25-4190-91ab-162e1e0aa899","meta":{"profile":["http://hl7.org/fhir/us/core/StructureDefinition/us-core-observation-lab"]},"status":"final","category":[{"coding":[{"system":"http://terminology.hl7.org/CodeSystem/observation-category","code":"laboratory","display":"Laboratory"}]}],"code":{"coding":[{"system":"http://loinc.org","code":"49498-9"}]},"subject":{"reference":"Patient/f003486f-ad90-45a5-be7a-22256b664ba3"},"effectiveDateTime":"2022-11-09T00:00:00+00:00","valueQuantity":{"value":7}}},{"fullUrl":"Observation/c5a50f2e-a395-4816-a462-6b157554d20d","resource":{"resourceType":"Observation","id":"c5a50f2e-a395-4816-a462-6b157554d20d","meta":{"profile":["http://hl7.org/fhir/us/core/StructureDefinition/us-core-bmi"]},"status":"final","category":[{"coding":[{"system":"http://terminology.hl7.org/CodeSystem/observation-category","code":"vital-signs","display":"Vital Signs"}]}],"code":{"coding":[{"system":"http://loinc.org","code":"39156-5"}]},"subject":{"reference":"Patient/f003486f-ad90-45a5-be7a-22256b664ba3"},"effectiveDateTime":"2022-06-22T00:00:00+00:00","valueQuantity":{"value":22.84,"unit":"kg/m2","system":"http://unitsofmeasure.org","code":"kg/m2"}}},{"fullUrl":"Observation/cd752686-e2af-44ce-884e-bedb09bfd6c0","resource":{"resourceType":"Observation","id":"cd752686-e2af-44ce-884e-bedb09bfd6c0","meta":{"profile":["http://hl7.org/fhir/us/core/StructureDefinition/us-core-bmi"]},"status":"final","category":[{"coding":[{"system":"http://terminology.hl7.org/CodeSystem/observation-category","code":"vital-signs","display":"Vital Signs"}]}],"code":{"coding":[{"system":"http://loinc.org","code":"39156-5"}]},"subject":{"reference":"Patient/f003486f-ad90-45a5-be7a-22256b664ba3"},"effectiveDateTime":"2022-05-23T00:00:00+00:00","valueQuantity":{"value":12.08,"unit":"kg/m2","system":"http://unitsofmeasure.org","code":"kg/m2"}}},{"fullUrl":"Observation/960a48a4-35b6-4b38-bd4c-e5f09ab5d89a","resource":{"resourceType":"Observation","id":"960a48a4-35b6-4b38-bd4c-e5f09ab5d89a","meta":{"profile":["http://hl7.org/fhir/us/core/StructureDefinition/us-core-head-circumference"]},"status":"final","category":[{"coding":[{"system":"http://terminology.hl7.org/CodeSystem/observation-category","code":"vital-signs","display":"Vital Signs"}]}],"code":{"coding":[{"system":"http://loinc.org","code":"9843-4"}]},"subject":{"reference":"Patient/f003486f-ad90-45a5-be7a-22256b664ba3"},"effectiveDateTime":"2022-03-26T00:00:00+00:00","valueQuantity":{"value":9,"unit":"Inch","system":"http://unitsofmeasure.org","code":"[in_i]"}}},{"fullUrl":"Observation/78c570c4-fcaf-4ab7-8519-90d757fa2008","resource":{"resourceType":"Observation","id":"78c570c4-fcaf-4ab7-8519-90d757fa2008","meta":{"profile":["http://hl7.org/fhir/us/core/StructureDefinition/us-core-head-circumference"]},"status":"final","category":[{"coding":[{"system":"http://terminology.hl7.org/CodeSystem/observation-category","code":"vital-signs","display":"Vital Signs"}]}],"code":{"coding":[{"system":"http://loinc.org","code":"9843-4"}]},"subject":{"reference":"Patient/f003486f-ad90-45a5-be7a-22256b664ba3"},"effectiveDateTime":"2022-09-03T00:00:00+00:00","valueQuantity":{"value":6.1,"unit":"Inch","system":"http://unitsofmeasure.org","code":"[in_i]"}}},{"fullUrl":"Observation/2ba90980-766e-4a97-afda-7c1e6b1d32a9","resource":{"resourceType":"Observation","id":"2ba90980-766e-4a97-afda-7c1e6b1d32a9","meta":{"profile":["http://hl7.org/fhir/us/core/StructureDefinition/us-core-body-height"]},"status":"final","category":[{"coding":[{"system":"http://terminology.hl7.org/CodeSystem/observation-category","code":"vital-signs","display":"Vital Signs"}]}],"code":{"coding":[{"system":"http://loinc.org","code":"8302-2"}]},"subject":{"reference":"Patient/f003486f-ad90-45a5-be7a-22256b664ba3"},"effectiveDateTime":"2022-01-22T00:00:00+00:00","valueQuantity":{"value":66.3,"unit":"Inch","system":"http://unitsofmeasure.org","code":"[in_i]"}}},{"fullUrl":"Observation/e0ce7700-1a51-4fca-af11-73482fe7ad07","resource":{"resourceType":"Observation","id":"e0ce7700-1a51-4fca-af11-73482fe7ad07","meta":{"profile":["http://hl7.org/fhir/us/core/StructureDefinition/us-core-body-height"]},"status":"final","category":[{"coding":[{"system":"http://terminology.hl7.org/CodeSystem/observation-category","code":"vital-signs","display":"Vital Signs"}]}],"code":{"coding":[{"system":"http://loinc.org","code":"8302-2"}]},"subject":{"reference":"Patient/f003486f-ad90-45a5-be7a-22256b664ba3"},"effectiveDateTime":"2022-01-10T00:00:00+00:00","valueQuantity":{"value":71.9,"unit":"Inch","system":"http://unitsofmeasure.org","code":"[in_i]"}}},{"fullUrl":"Observation/9f9adfee-214f-4b96-97b7-d0f9b2e0b0e4","resource":{"resourceType":"Observation","id":"9f9adfee-214f-4b96-97b7-d0f9b2e0b0e4","meta":{"profile":["http://hl7.org/fhir/us/core/StructureDefinition/us-core-body-weight"]},"status":"final","category":[{"coding":[{"system":"http://terminology.hl7.org/CodeSystem/observation-category","code":"vital-signs","display":"Vital Signs"}]}],"code":{"coding":[{"system":"http://loinc.org","code":"29463-7"}]},"subject":{"reference":"Patient/f003486f-ad90-45a5-be7a-22256b664ba3"},"effectiveDateTime":"2022-07-19T00:00:00+00:00","valueQuantity":{"value":53.18,"unit":"kilogram","system":"http://unitsofmeasure.org","code":"kg"}}},{"fullUrl":"Observation/ead9cab0-43da-4ade-9a4a-e785ff288b06","resource":{"resourceType":"Observation","id":"ead9cab0-43da-4ade-9a4a-e785ff288b06","meta":{"profile":["http://hl7.org/fhir/us/core/StructureDefinition/us-core-body-temperature"]},"status":"final","category":[{"coding":[{"system":"http://terminology.hl7.org/CodeSystem/observation-category","code":"vital-signs","display":"Vital Signs"}]}],"code":{"coding":[{"system":"http://loinc.org","code":"8310-5"}]},"subject":{"reference":"Patient/f003486f-ad90-45a5-be7a-22256b664ba3"},"effectiveDateTime":"2022-09-08T00:00:00+00:00","valueQuantity":{"value":44.86,"unit":"Degrees Fahrenheit","system":"http://unitsofmeasure.org","code":"[degF]"}}},{"fullUrl":"Observation/ff4fcf3f-ad6f-423c-bd3e-801594753f59","resource":{"resourceType":"Observation","id":"ff4fcf3f-ad6f-423c-bd3e-801594753f59","meta":{"profile":["http://hl7.org/fhir/us/core/StructureDefinition/us-core-heart-rate"]},"status":"final","category":[{"coding":[{"system":"http://terminology.hl7.org/CodeSystem/observation-category","code":"vital-signs","display":"Vital Signs"}]}],"code":{"coding":[{"system":"http://loinc.org","code":"8867-4"}]},"subject":{"reference":"Patient/f003486f-ad90-45a5-be7a-22256b664ba3"},"effectiveDateTime":"2022-08-05T00:00:00+00:00","valueQuantity":{"value":100.2,"unit":"Per Minute","system":"http://unitsofmeasure.org","code":"/min"}}},{"fullUrl":"Patient/27ffe442-fb49-4089-a938-d7b04f3b432b","resource":{"resourceType":"Patient","id":"27ffe442-fb49-4089-a938-d7b04f3b432b","meta":{"profile":["http://hl7.org/fhir/us/core/StructureDefinition/us-core-patient"]},"extension":[{"extension":[{"url":"ombCategory","valueCoding":{"system":"urn:oid:2.16.840.1.113883.6.238","code":"2054-5","display":"Black or African American"}},{"url":"text","valueString":"Black or African American"}],"url":"http://hl7.org/fhir/us/core/StructureDefinition/us-core-race"},{"extension":[{"url":"ombCategory","valueCoding":{"system":"urn:oid:2.16.840.1.113883.6.238","code":"2135-2","display":"Hispanic or Latino"}},{"url":"text","valueString":"Hispanic or Latino"}],"url":"http://hl7.org/fhir/us/core/StructureDefinition/us-core-ethnicity"}],"identifier":[{"type":{"coding":[{"system":"http://terminology.hl7.org/CodeSystem/v2-0203","code":"MR"}]},"system":"urn:fhirgen:mrn","value":"887-57-4036"}],"name":[{"use":"official","family":"Suarez","given":["Sonya"]},{"use":"maiden","family":"Melendez"}],"telecom":[{"system":"phone","value":"377.571.8039x5260","use":"mobile"},{"system":"email","value":"aburke@yahoo.com","use":"work"}],"gender":"female","birthDate":"1984-12-05","address":[{"use":"home","line":["32753 Samantha Field"],"city":"West Caseyport","state":"MA","postalCode":"08772"},{"use":"old","line":["31161 Richmond Well Apt. 673"],"city":"Lorettamouth","state":"ME","postalCode":"80577"}]}},{"fullUrl":"Observation/80fe67f4-c292-48f4-abe5-cca0987bb26c","resource":{"resourceType":"Observation","id":"80fe67f4-c292-48f4-abe5-cca0987bb26c","meta":{"profile":["http://hl7.org/fhir/us/core/StructureDefinition/us-core-observation-lab"]},"status":"final","category":[{"coding":[{"system":"http://terminology.hl7.org/CodeSystem/observation-category","code":"laboratory","display":"Laboratory"}]}],"code":{"coding":[{"system":"http://loinc.org","code":"26009-1"}]},"subject":{"reference":"Patient/27ffe442-fb49-4089-a938-d7b04f3b432b"},"effectiveDateTime":"2022-11-28T00:00:00+00:00","valueRatio":{"numerator":{"value":1},"denominator":{"value":4}}}},{"fullUrl":"Observation/048cb431-bbc1-4a0c-b703-017fe0fca220","resource":{"resourceType":"Observation","id":"048cb431-bbc1-4a0c-b703-017fe0fca220","meta":{"profile":["http://hl7.org/fhir/us/core/StructureDefinition/us-core-observation-lab"]},"status":"final","category":[{"coding":[{"system":"http://terminology.hl7.org/CodeSystem/observation-category","code":"laboratory","display":"Laboratory"}]}],"code":{"coding":[{"system":"http://loinc.org","code":"87925-4"}]},"subject":{"reference":"Patient/27ffe442-fb49-4089-a938-d7b04f3b432b"},"effectiveDateTime":"2022-05-03T00:00:00+00:00","valueRatio":{"numerator":{"value":1},"denominator":{"value":4}}}},{"fullUrl":"Condition/447e2082-42fb-41c7-9a05-4e721776b3aa","resource":{"resourceType":"Condition","id":"447e2082-42fb-41c7-9a05-4e721776b3aa","meta":{"profile":["http://hl7.org/fhir/us/core/StructureDefinition/us-core-condition"]},"clinicalStatus":{"coding":[{"system":"http://terminology.hl7.org/CodeSystem/condition-clinical","code":"active","display":"Active"}]},"category":[{"coding":[{"system":"http://terminology.hl7.org/CodeSystem/condition-category","code":"problem-list-item"}]}],"code":{"coding":[{"system":"http://snomed.info/sct","code":"44882003"}]},"subject":{"reference":"Patient/27ffe442-fb49-4089-a938-d7b04f3b432b"},"onsetDateTime":"2022-02-01T00:00:00+00:00"}},{"fullUrl":"Condition/74ee7dcc-8049-4f89-bc09-22e1914f44f3","resource":{"resourceType":"Condition","id":"74ee7dcc-8049-4f89-bc09-22e1914f44f3","meta":{"profile":["http://hl7.org/fhir/us/core/StructureDefinition/us-core-condition"]},"clinicalStatus":{"coding":[{"system":"http://terminology.hl7.org/CodeSystem/condition-clinical","code":"active","display":"Active"}]},"category":[{"coding":[{"system":"http://terminology.hl7.org/CodeSystem/condition-category","code":"problem-list-item"}]}],"code":{"coding":[{"system":"http://snomed.info/sct","code":"44882003"}]},"subject":{"reference":"Patient/27ffe442-fb49-4089-a938-d7b04f3b432b"},"onsetDateTime":"2022-01-12T00:00:00+00:00"}},{"fullUrl":"Condition/400c84ff-ff3b-4e93-a674-7d0baff20c1e","resource":{"resourceType":"Condition","id":"400c84ff-ff3b-4e93-a674-7d0baff20c1e","meta":{"profile":["http://hl7.org/fhir/us/core/StructureDefinition/us-core-condition"]},"clinicalStatus":{"coding":[{"system":"http://terminology.hl7.org/CodeSystem/condition-clinical","code":"active","display":"Active"}]},"category":[{"coding":[{"system":"http://terminology.hl7.org/CodeSystem/condition-category","code":"problem-list-item"}]}],"code":{"coding":[{"system":"http://snomed.info/sct","code":"709977002"}]},"subject":{"reference":"Patient/27ffe442-fb49-4089-a938-d7b04f3b432b"},"onsetDateTime":"2022-06-14T00:00:00+00:00"}},{"fullUrl":"Condition/2b9b22fe-62ea-41a1-82b8-7c06e5dc7dcd","resource":{"resourceType":"Condition","id":"2b9b22fe-62ea-41a1-82b8-7c06e5dc7dcd","meta":{"profile":["http://hl7.org/fhir/us/core/StructureDefinition/us-core-condition"]},"clinicalStatus":{"coding":[{"system":"http://terminology.hl7.org/CodeSystem/condition-clinical","code":"active","display":"Active"}]},"category":[{"coding":[{"system":"http://terminology.hl7.org/CodeSystem/condition-category","code":"problem-list-item"}]}],"code":{"coding":[{"system":"http://snomed.info/sct","code":"736686006"}]},"subject":{"reference":"Patient/27ffe442-fb49-4089-a938-d7b04f3b432b"},"onsetDateTime":"2022-03-25T00:00:00+00:00"}},{"fullUrl":"Condition/0437f48f-3bdf-4346-b66f-b6059b9f2654","resource":{"resourceType":"Condition","id":"0437f48f-3bdf-4346-b66f-b6059b9f2654","meta":{"profile":["http://hl7.org/fhir/us/core/StructureDefinition/us-core-condition"]},"clinicalStatus":{"coding":[{"system":"http://terminology.hl7.org/CodeSystem/condition-clinical","code":"active","display":"Active"}]},"category":[{"coding":[{"system":"http://terminology.hl7.org/CodeSystem/condition-category","code":"problem-list-item"}]}],"code":{"coding":[{"system":"http://snomed.info/sct","code":"44882003"}]},"subject":{"reference":"Patient/27ffe442-fb49-4089-a938-d7b04f3b432b"},"onsetDateTime":"2022-07-30T00:00:00+00:00"}},{"fullUrl":"Condition/cef63bdc-cb8e-444b-bb2f-4c1034104c9c","resource":{"resourceType":"Condition","id":"cef63bdc-cb8e-444b-bb2f-4c1034104c9c","meta":{"profile":["http://hl7.org/fhir/us/core/StructureDefinition/us-core-condition"]},"clinicalStatus":{"coding":[{"system":"http://terminology.hl7.org/CodeSystem/condition-clinical","code":"active","display":"Active"}]},"category":[{"coding":[{"system":"http://terminology.hl7.org/CodeSystem/condition-category","code":"problem-list-item"}]}],"code":{"coding":[{"system":"http://snomed.info/sct","code":"91554004"}]},"subject":{"reference":"Patient/27ffe442-fb49-4089-a938-d7b04f3b432b"},"onsetDateTime":"2022-08-19T00:00:00+00:00"}},{"fullUrl":"Observation/a3b2d772-bd46-46bb-8e0f-b342624553fc","resource":{"resourceType":"Observation","id":"a3b2d772-bd46-46bb-8e0f-b342624553fc","meta":{"profile":["http://hl7.org/fhir/us/core/StructureDefinition/us-core-observation-lab"]},"status":"final","category":[{"coding":[{"system":"http://terminology.hl7.org/CodeSystem/observation-category","code":"laboratory","display":"Laboratory"}]}],"code":{"coding":[{"system":"http://loinc.org","code":"26464-8"}]},"subject":{"reference":"Patient/27ffe442-fb49-4089-a938-d7b04f3b432b"},"effectiveDateTime":"2022-09-29T00:00:00+00:00","valueQuantity":{"value":5}}},{"fullUrl":"Observation/0aa5a2b0-911e-4f09-9018-f8ec7c2c2b64","resource":{"resourceType":"Observation","id":"0aa5a2b0-911e-4f09-9018-f8ec7c2c2b64","meta":{"profile":["http://hl7.org/fhir/us/core/StructureDefinition/us-core-observation-lab"]},"status":"final","category":[{"coding":[{"system":"http://terminology.hl7.org/CodeSystem/observation-category","code":"laboratory","display":"Laboratory"}]}],"code":{"coding":[{"system":"http://loinc.org","code":"26464-8"}]},"subject":{"reference":"Patient/27ffe442-fb49-4089-a938-d7b04f3b432b"},"effectiveDateTime":"2022-06-06T00:00:00+00:00","valueQuantity":{"value":8.6}}},{"fullUrl":"Observation/5ffac899-ff1f-4906-b287-2b0e4b1e3147","resource":{"resourceType":"Observation","id":"5ffac899-ff1f-4906-b287-2b0e4b1e3147","meta":{"profile":["http://hl7.org/fhir/us/core/StructureDefinition/us-core-observation-lab"]},"status":"final","category":[{"coding":[{"system":"http://terminology.hl7.org/CodeSystem/observation-category","code":"laboratory","display":"Laboratory"}]}],"code":{"coding":[{"system":"http://loinc.org","code":"26464-8"}]},"subject":{"reference":"Patient/27ffe442-fb49-4089-a938-d7b04f3b432b"},"effectiveDateTime":"2022-04-13T00:00:00+00:00","valueQuantity":{"value":4.7}}},{"fullUrl":"Observation/f48faeb7-5138-45fd-aae1-c5713a1397a1","resource":{"resourceType":"Observation","id":"f48faeb7-5138-45fd-aae1-c5713a1397a1","meta":{"profile":["http://hl7.org/fhir/us/core/StructureDefinition/us-core-bmi"]},"status":"final","category":[{"coding":[{"system":"http://terminology.hl7.org/CodeSystem/observation-category","code":"vital-signs","display":"Vital Signs"}]}],"code":{"coding":[{"system":"http://loinc.org","code":"39156-5"}]},"subject":{"reference":"Patient/27ffe442-fb49-4089-a938-d7b04f3b432b"},"effectiveDateTime":"2022-07-08T00:00:00+00:00","valueQuantity":{"value":16.42,"unit":"kg/m2","system":"http://unitsofmeasure.org","code":"kg/m2"}}},{"fullUrl":"Observation/d3bdf31e-0a7b-408b-9820-0cf9e935c37d","resource":{"resourceType":"Observation","id":"d3bdf31e-0a7b-408b-9820-0cf9e935c37d","meta":{"profile":["http://hl7.org/fhir/us/core/StructureDefinition/us-core-bmi"]},"status":"final","category":[{"coding":[{"system":"http://terminology.hl7.org/CodeSystem/observation-category","code":"vital-signs","display":"Vital Signs"}]}],"code":{"coding":[{"system":"http://loinc.org","code":"39156-5"}]},"subject":{"reference":"Patient/27ffe442-fb49-4089-a938-d7b04f3b432b"},"effectiveDateTime":"2022-10-25T00:00:00+00:00","valueQuantity":{"value":17.7,"unit":"kg/m2","system":"http://unitsofmeasure.org","code":"kg/m2"}}},{"fullUrl":"Observation/cdf0f07d-2934-4ba7-a176-426c2861f31c","resource":{"resourceType":"Observation","id":"cdf0f07d-2934-4ba7-a176-426c2861f31c","meta":{"profile":["http://hl7.org/fhir/us/core/StructureDefinition/us-core-head-circumference"]},"status":"final","category":[{"coding":[{"system":"http://terminology.hl7.org/CodeSystem/observation-category","code":"vital-signs","display":"Vital Signs"}]}],"code":{"coding":[{"system":"http://loinc.org","code":"9843-4"}]},"subject":{"reference":"Patient/27ffe442-fb49-4089-a938-d7b04f3b432b"},"effectiveDateTime":"2022-04-20T00:00:00+00:00","valueQuantity":{"value":4,"unit":"Inch","system":"http://unitsofmeasure.org","code":"[in_i]"}}},{"fullUrl":"Observation/0e917310-4fbd-4d4f-901a-0fd2217fcf8e","resource":{"resourceType":"Observation","id":"0e917310-4fbd-4d4f-901a-0fd2217fcf8e","meta":{"profile":["http://hl7.org/fhir/us/core/StructureDefinition/us-core-head-circumference"]},"status":"final","category":[{"coding":[{"system":"http://terminology.hl7.org/CodeSystem/observation-category","code":"vital-signs","display":"Vital Signs"}]}],"code":{"coding":[{"system":"http://loinc.org","code":"9843-4"}]},"subject":{"reference":"Patient/27ffe442-fb49-4089-a938-d7b04f3b432b"},"effectiveDateTime":"2022-03-20T00:00:00+00:00","valueQuantity":{"value":2.4,"unit":"Inch","system":"http://unitsofmeasure.org","code":"[in_i]"}}},{"fullUrl":"Observation/1e16cf76-f0c1-42e9-90d2-52565250b3dd","resource":{"resourceType":"Observation","id":"1e16cf76-f0c1-42e9-90d2-52565250b3dd","meta":{"profile":["http://hl7.org/fhir/us/core/StructureDefinition/us-core-body-height"]},"status":"final","category":[{"coding":[{"system":"http://terminology.hl7.org/CodeSystem/observation-category","code":"vital-signs","display":"Vital Signs"}]}],"code":{"coding":[{"system":"http://loinc.org","code":"8302-2"}]},"subject":{"reference":"Patient/27ffe442-fb49-4089-a938-d7b04f3b432b"},"effectiveDateTime":"2022-03-04T00:00:00+00:00","valueQuantity":{"value":64.7,"unit":"Inch","system":"http://unitsofmeasure.org","code":"[in_i]"}}},{"fullUrl":"Observation/22cc443c-4fdf-449c-9914-77b15391dab8","resource":{"resourceType":"Observation","id":"22cc443c-4fdf-449c-9914-77b15391dab8","meta":{"profile":["http://hl7.org/fhir/us/core/StructureDefinition/us-core-body-height"]},"status":"final","category":[{"coding":[{"system":"http://terminology.hl7.org/CodeSystem/observation-category","code":"vital-signs","display":"Vital Signs"}]}],"code":{"coding":[{"system":"http://loinc.org","code":"8302-2"}]},"subject":{"reference":"Patient/27ffe442-fb49-4089-a938-d7b04f3b432b"},"effectiveDateTime":"2022-06-15T00:00:00+00:00","valueQuantity":{"value":79.4,"unit":"Inch","system":"http://unitsofmeasure.org","code":"[in_i]"}}},{"fullUrl":"Observation/52955fb2-fabd-48ac-9cf6-3f47446df924","resource":{"resourceType":"Observation","id":"52955fb2-fabd-48ac-9cf6-3f47446df924","meta":{"profile":["http://hl7.org/fhir/us/core/StructureDefinition/us-core-body-weight"]},"status":"final","category":[{"coding":[{"system":"http://terminology.hl7.org/CodeSystem/observation-category","code":"vital-signs","display":"Vital Signs"}]}],"code":{"coding":[{"system":"http://loinc.org","code":"29463-7"}]},"subject":{"reference":"Patient/27ffe442-fb49-4089-a938-d7b04f3b432b"},"effectiveDateTime":"2022-12-31T00:00:00+00:00","valueQuantity":{"value":99.57,"unit":"kilogram","system":"http://unitsofmeasure.org","code":"kg"}}},{"fullUrl":"Observation/7f1d9422-ce4a-4c84-8289-42c9880616e2","resource":{"resourceType":"Observation","id":"7f1d9422-ce4a-4c84-8289-42c9880616e2","meta":{"profile":["http://hl7.org/fhir/us/core/StructureDefinition/us-core-body-weight"]},"status":"final","category":[{"coding":[{"system":"http://terminology.hl7.org/CodeSystem/observation-category","code":"vital-signs","display":"Vital Signs"}]}],"code":{"coding":[{"system":"http://loinc.org","code":"29463-7"}]},"subject":{"reference":"Patient/27ffe442-fb49-4089-a938-d7b04f3b432b"},"effectiveDateTime":"2022-11-04T00:00:00+00:00","valueQuantity":{"value":30.23,"unit":"kilogram","system":"http://unitsofmeasure.org","code":"kg"}}},{"fullUrl":"Observation/a5596f65-6238-4d70-813c-daaae3cfbd44","resource":{"resourceType":"Observation","id":"a5596f65-6238-4d70-813c-daaae3cfbd44","meta":{"profile":["http://hl7.org/fhir/us/core/StructureDefinition/us-core-body-temperature"]},"status":"final","category":[{"coding":[{"system":"http://terminology.hl7.org/CodeSystem/observation-category","code":"vital-signs","display":"Vital Signs"}]}],"code":{"coding":[{"system":"http://loinc.org","code":"8310-5"}]},"subject":{"reference":"Patient/27ffe442-fb49-4089-a938-d7b04f3b432b"},"effectiveDateTime":"2022-08-02T00:00:00+00:00","valueQuantity":{"value":117.78,"unit":"Degrees Fahrenheit","system":"http://unitsofmeasure.org","code":"[degF]"}}},{"fullUrl":"Observation/33521cd4-97f1-4b09-8a2e-54b38461692c","resource":{"resourceType":"Observation","id":"33521cd4-97f1-4b09-8a2e-54b38461692c","meta":{"profile":["http://hl7.org/fhir/us/core/StructureDefinition/us-core-body-temperature"]},"status":"final","category":[{"coding":[{"system":"http://terminology.hl7.org/CodeSystem/observation-category","code":"vital-signs","display":"Vital Signs"}]}],"code":{"coding":[{"system":"http://loinc.org","code":"8310-5"}]},"subject":{"reference":"Patient/27ffe442-fb49-4089-a938-d7b04f3b432b"},"effectiveDateTime":"2022-09-14T00:00:00+00:00","valueQuantity":{"value":88.58,"unit":"Degrees Fahrenheit","system":"http://unitsofmeasure.org","code":"[degF]"}}},{"fullUrl":"Observation/7fc88a18-7817-4009-a743-8269dacddde3","resource":{"resourceType":"Observation","id":"7fc88a18-7817-4009-a743-8269dacddde3","meta":{"profile":["http://hl7.org/fhir/us/core/StructureDefinition/us-core-heart-rate"]},"status":"final","category":[{"coding":[{"system":"http://terminology.hl7.org/CodeSystem/observation-category","code":"vital-signs","display":"Vital Signs"}]}],"code":{"coding":[{"system":"http://loinc.org","code":"8867-4"}]},"subject":{"reference":"Patient/27ffe442-fb49-4089-a938-d7b04f3b432b"},"effectiveDateTime":"2022-05-06T00:00:00+00:00","valueQuantity":{"value":97.6,"unit":"Per Minute","system":"http://unitsofmeasure.org","code":"/min"}}},{"fullUrl":"Patient/8846bb6f-6848-4c7d-8646-c4d25277abeb","resource":{"resourceType":"Patient","id":"8846bb6f-6848-4c7d-8646-c4d25277abeb","meta":{"profile":["http://hl7.org/fhir/us/core/StructureDefinition/us-core-patient"]},"extension":[{"extension":[{"url":"ombCategory","valueCoding":{"system":"http://terminology.hl7.org/CodeSystem/v3-NullFlavor","code":"UNK","display":"unknown"}},{"url":"text","valueString":"unknown"}],"url":"http://hl7.org/fhir/us/core/StructureDefinition/us-core-race"},{"extension":[{"url":"ombCategory","valueCoding":{"system":"urn:oid:2.16.840.1.113883.6.238","code":"2186-5","display":"Non Hispanic or Latino"}},{"url":"text","valueString":"Non Hispanic or Latino"}],"url":"http://hl7.org/fhir/us/core/StructureDefinition/us-core-ethnicity"}],"identifier":[{"type":{"coding":[{"system":"http://terminology.hl7.org/CodeSystem/v2-0203","code":"MR"}]},"system":"urn:fhirgen:mrn","value":"186-46-4533"}],"name":[{"use":"official","family":"Munoz","given":["Michelle"]},{"use":"maiden","family":"Berry"}],"telecom":[{"system":"phone","value":"5265579247","use":"home"},{"system":"email","value":"katherine69@yahoo.com","use":"mobile"}],"gender":"other","birthDate":"1972-03-09","address":[{"use":"home","line":["6380 Dougherty Lights Apt. 649"],"city":"Lake Isabellahaven","state":"IN","postalCode":"70416"},{"use":"old","line":["91741 Burton Ridges"],"city":"Kellytown","state":"GA","postalCode":"27121"}]}},{"fullUrl":"Observation/601022d3-f568-4054-9c0c-e6b57df6ee45","resource":{"resourceType":"Observation","id":"601022d3-f568-4054-9c0c-e6b57df6ee45","meta":{"profile":["http://hl7.org/fhir/us/core/StructureDefinition/us-core-observation-lab"]},"status":"final","category":[{"coding":[{"system":"http://terminology.hl7.org/CodeSystem/observation-category","code":"laboratory","display":"Laboratory"}]}],"code":{"coding":[{"system":"http://loinc.org","code":"51475-2"}]},"subject":{"reference":"Patient/8846bb6f-6848-4c7d-8646-c4d25277abeb"},"effectiveDateTime":"2022-09-23T00:00:00+00:00","valueRatio":{"numerator":{"value":1},"denominator":{"value":64}}}},{"fullUrl":"Observation/999bc4ea-42ab-4785-8835-e3c202807fd9","resource":{"resourceType":"Observation","id":"999bc4ea-42ab-4785-8835-e3c202807fd9","meta":{"profile":["http://hl7.org/fhir/us/core/StructureDefinition/us-core-observation-lab"]},"status":"final","category":[{"coding":[{"system":"http://terminology.hl7.org/CodeSystem/observation-category","code":"laboratory","display":"Laboratory"}]}],"code":{"coding":[{"system":"http://loinc.org","code":"11084-1"}]},"subject":{"reference":"Patient/8846bb6f-6848-4c7d-8646-c4d25277abeb"},"effectiveDateTime":"2022-05-03T00:00:00+00:00","valueRatio":{"numerator":{"value":1},"denominator":{"value":64}}}},{"fullUrl":"Observation/75f32186-4326-47ef-bd9d-27e48ecf5b57","resource":{"resourceType":"Observation","id":"75f32186-4326-47ef-bd9d-27e48ecf5b57","meta":{"profile":["http://hl7.org/fhir/us/core/StructureDefinition/us-core-observation-lab"]},"status":"final","category":[{"coding":[{"system":"http://terminology.hl7.org/CodeSystem/observation-category","code":"laboratory","display":"Laboratory"}]}],"code":{"coding":[{"system":"http://loinc.org","code":"87925-4"}]},"subject":{"reference":"Patient/8846bb6f-6848-4c7d-8646-c4d25277abeb"},"effectiveDateTime":"2022-04-29T00:00:00+00:00","valueRatio":{"numerator":{"value":1},"denominator":{"value":32}}}},{"fullUrl":"Condition/be04b52a-dc9b-4aee-81d6-2ffeeae19625","resource":{"resourceType":"Condition","id":"be04b52a-dc9b-4aee-81d6-2ffeeae19625","meta":{"profile":["http://hl7.org/fhir/us/core/StructureDefinition/us-core-condition"]},"clinicalStatus":{"coding":[{"system":"http://terminology.hl7.org/CodeSystem/condition-clinical","code":"active","display":"Active"}]},"category":[{"coding":[{"system":"http://terminology.hl7.org/CodeSystem/condition-category","code":"problem-list-item"}]}],"code":{"coding":[{"system":"http://snomed.info/sct","code":"736686006"}]},"subject":{"reference":"Patient/8846bb6f-6848-4c7d-8646-c4d25277abeb"},"onsetDateTime":"2022-05-17T00:00:00+00:00"}},{"fullUrl":"Condition/3ef3bc63-756e-4c41-9ff0-486db052af53","resource":{"resourceType":"Condition","id":"3ef3bc63-756e-4c41-9ff0-486db052af53","meta":{"profile":["http://hl7.org/fhir/us/core/StructureDefinition/us-core-condition"]},"clinicalStatus":{"coding":[{"system":"http://terminology.hl7.org/CodeSystem/condition-clinical","code":"active","display":"Active"}]},"category":[{"coding":[{"system":"http://terminology.hl7.org/CodeSystem/condition-category","code":"problem-list-item"}]}],"code":{"coding":[{"system":"http://snomed.info/sct","code":"91554004"}]},"subject":{"reference":"Patient/8846bb6f-6848-4c7d-8646-c4d25277abeb"},"onsetDateTime":"2022-12-21T00:00:00+00:00"}},{"fullUrl":"Condition/284496b3-93a1-41f4-a598-8ff7ebf14e28","resource":{"resourceType":"Condition","id":"284496b3-93a1-41f4-a598-8ff7ebf14e28","meta":{"profile":["http://hl7.org/fhir/us/core/StructureDefinition/us-core-condition"]},"clinicalStatus":{"coding":[{"system":"http://terminology.hl7.org/CodeSystem/condition-clinical","code":"active","display":"Active"}]},"category":[{"coding":[{"system":"http://terminology.hl7.org/CodeSystem/condition-category","code":"problem-list-item"}]}],"code":{"coding":[{"system":"http://snomed.info/sct","code":"418290006"}]},"subject":{"reference":"Patient/8846bb6f-6848-4c7d-8646-c4d25277abeb"},"onsetDateTime":"2022-04-18T00:00:00+00:00"}},{"fullUrl":"Condition/c3587d9e-e835-44f4-93ec-7df385b11da3","resource":{"resourceType":"Condition","id":"c3587d9e-e835-44f4-93ec-7df385b11da3","meta":{"profile":["http://hl7.org/fhir/us/core/StructureDefinition/us-core-condition"]},"clinicalStatus":{"coding":[{"system":"http://terminology.hl7.org/CodeSystem/condition-clinical","code":"active","display":"Active"}]},"category":[{"coding":[{"system":"http://terminology.hl7.org/CodeSystem/condition-category","code":"problem-list-item"}]}],"code":{"coding":[{"system":"http://snomed.info/sct","code":"736686006"}]},"subject":{"reference":"Patient/8846bb6f-6848-4c7d-8646-c4d25277abeb"},"onsetDateTime":"2022-10-20T00:00:00+00:00"}},{"fullUrl":"Condition/b09154b3-9c77-49b1-b2f2-f6a6294aa060","resource":{"resourceType":"Condition","id":"b09154b3-9c77-49b1-b2f2-f6a6294aa060","meta":{"profile":["http://hl7.org/fhir/us/core/StructureDefinition/us-core-condition"]},"clinicalStatus":{"coding":[{"system":"http://terminology.hl7.org/CodeSystem/condition-clinical","code":"active","display":"Active"}]},"category":[{"coding":[{"system":"http://terminology.hl7.org/CodeSystem/condition-category","code":"problem-list-item"}]}],"code":{"coding":[{"system":"http://snomed.info/sct","code":"418290006"}]},"subject":{"reference":"Patient/8846bb6f-6848-4c7d-8646-c4d25277abeb"},"onsetDateTime":"2022-10-25T00:00:00+00:00"}},{"fullUrl":"Condition/8f3258d3-9f9f-4227-91a8-cfef11001652","resource":{"resourceType":"Condition","id":"8f3258d3-9f9f-4227-91a8-cfef11001652","meta":{"profile":["http://hl7.org/fhir/us/core/StructureDefinition/us-core-condition"]},"clinicalStatus":{"coding":[{"system":"http://terminology.hl7.org/CodeSystem/condition-clinical","code":"active","display":"Active"}]},"category":[{"coding":[{"system":"http://terminology.hl7.org/CodeSystem/condition-category","code":"problem-list-item"}]}],"code":{"coding":[{"system":"http://snomed.info/sct","code":"709977002"}]},"subject":{"reference":"Patient/8846bb6f-6848-4c7d-8646-c4d25277abeb"},"onsetDateTime":"2022-04-03T00:00:00+00:00"}},{"fullUrl":"Condition/031fb6dd-9b54-45ba-a0ab-288d0f8fa3ab","resource":{"resourceType":"Condition","id":"031fb6dd-9b54-45ba-a0ab-288d0f8fa3ab","meta":{"profile":["http://hl7.org/fhir/us/core/StructureDefinition/us-core-condition"]},"clinicalStatus":{"coding":[{"system":"http://terminology.hl7.org/CodeSystem/condition-clinical","code":"active","display":"Active"}]},"category":[{"coding":[{"system":"http://terminology.hl7.org/CodeSystem/condition-category","code":"problem-list-item"}]}],"code":{"coding":[{"system":"http://snomed.info/sct","code":"709977002"}]},"subject":{"reference":"Patient/8846bb6f-6848-4c7d-8646-c4d25277abeb"},"onsetDateTime":"2022-11-03T00:00:00+00:00"}},{"fullUrl":"Observation/60704eb7-f5ae-42f4-90d9-99003aaf11e4","resource":{"resourceType":"Observation","id":"60704eb7-f5ae-42f4-90d9-99003aaf11e4","meta":{"profile":["http://hl7.org/fhir/us/core/StructureDefinition/us-core-observation-lab"]},"status":"final","category":[{"coding":[{"system":"http://terminology.hl7.org/CodeSystem/observation-category","code":"laboratory","display":"Laboratory"}]}],"code":{"coding":[{"system":"http://loinc.org","code":"804-5"}]},"subject":{"reference":"Patient/8846bb6f-6848-4c7d-8646-c4d25277abeb"},"effectiveDateTime":"2022-03-26T00:00:00+00:00","valueQuantity":{"value":10.2}}},{"fullUrl":"Observation/7f453ed7-eb0f-4266-8362-47218f94a1ea","resource":{"resourceType":"Observation","id":"7f453ed7-eb0f-4266-8362-47218f94a1ea","meta":{"profile":["http://hl7.org/fhir/us/core/StructureDefinition/us-core-observation-lab"]},"status":"final","category":[{"coding":[{"system":"http://terminology.hl7.org/CodeSystem/observation-category","code":"laboratory","display":"Laboratory"}]}],"code":{"coding":[{"system":"http://loinc.org","code":"26464-8"}]},"subject":{"reference":"Patient/8846bb6f-6848-4c7d-8646-c4d25277abeb"},"effectiveDateTime":"2022-11-16T00:00:00+00:00","valueQuantity":{"value":9.1}}},{"fullUrl":"Observation/652634be-d274-46e6-98bc-37697357b13a","resource":{"resourceType":"Observation","id":"652634be-d274-46e6-98bc-37697357b13a","meta":{"profile":["http://hl7.org/fhir/us/core/StructureDefinition/us-core-bmi"]},"status":"final","category":[{"coding":[{"system":"http://terminology.hl7.org/CodeSystem/observation-category","code":"vital-signs","display":"Vital Signs"}]}],"code":{"coding":[{"system":"http://loinc.org","code":"39156-5"}]},"subject":{"reference":"Patient/8846bb6f-6848-4c7d-8646-c4d25277abeb"},"effectiveDateTime":"2022-12-13T00:00:00+00:00","valueQuantity":{"value":25.54,"unit":"kg/m2","system":"http://unitsofmeasure.org","code":"kg/m2"}}},{"fullUrl":"Observation/be4166a6-9234-49b0-aa40-4e45d402954f","resource":{"resourceType":"Observation","id":"be4166a6-9234-49b0-aa40-4e45d402954f","meta":{"profile":["http://hl7.org/fhir/us/core/StructureDefinition/us-core-bmi"]},"status":"final","category":[{"coding":[{"system":"http://terminology.hl7.org/CodeSystem/observation-category","code":"vital-signs","display":"Vital Signs"}]}],"code":{"coding":[{"system":"http://loinc.org","code":"39156-5"}]},"subject":{"reference":"Patient/8846bb6f-6848-4c7d-8646-c4d25277abeb"},"effectiveDateTime":"2022-10-07T00:00:00+00:00","valueQuantity":{"value":27.41,"unit":"kg/m2","system":"http://unitsofmeasure.org","code":"kg/m2"}}},{"fullUrl":"Observation/b206d2e2-0c48-484d-8890-e81f3b47797c","resource":{"resourceType":"Observation","id":"b206d2e2-0c48-484d-8890-e81f3b47797c","meta":{"profile":["http://hl7.org/fhir/us/core/StructureDefinition/us-core-head-circumference"]},"status":"final","category":[{"coding":[{"system":"http://terminology.hl7.org/CodeSystem/observation-category","code":"vital-signs","display":"Vital Signs"}]}],"code":{"coding":[{"system":"http://loinc.org","code":"9843-4"}]},"subject":{"reference":"Patient/8846bb6f-6848-4c7d-8646-c4d25277abeb"},"effectiveDateTime":"2022-06-05T00:00:00+00:00","valueQuantity":{"value":2.2,"unit":"Inch","system":"http://unitsofmeasure.org","code":"[in_i]"}}},{"fullUrl":"Observation/f86b4a18-a50a-4488-83b2-b7e75130cde4","resource":{"resourceType":"Observation","id":"f86b4a18-a50a-4488-83b2-b7e75130cde4","meta":{"profile":["http://hl7.org/fhir/us/core/StructureDefinition/us-core-head-circumference"]},"status":"final","category":[{"coding":[{"system":"http://terminology.hl7.org/CodeSystem/observation-category","code":"vital-signs","display":"Vital Signs"}]}],"code":{"coding":[{"system":"http://loinc.org","code":"9843-4"}]},"subject":{"reference":"Patient/8846bb6f-6848-4c7d-8646-c4d25277abeb"},"effectiveDateTime":"2022-11-28T00:00:00+00:00","valueQuantity":{"value":1.5,"unit":"Inch","system":"http://unitsofmeasure.org","code":"[in_i]"}}},{"fullUrl":"Observation/e0060f7b-9b8a-4845-9c31-d6d8881a4dea","resource":{"resourceType":"Observation","id":"e0060f7b-9b8a-4845-9c31-d6d8881a4dea","meta":{"profile":["http://hl7.org/fhir/us/core/StructureDefinition/us-core-body-height"]},"status":"final","category":[{"coding":[{"system":"http://terminology.hl7.org/CodeSystem/observation-category","code":"vital-signs","display":"Vital Signs"}]}],"code":{"coding":[{"system":"http://loinc.org","code":"8302-2"}]},"subject":{"reference":"Patient/8846bb6f-6848-4c7d-8646-c4d25277abeb"},"effectiveDateTime":"2022-06-28T00:00:00+00:00","valueQuantity":{"value":78.7,"unit":"Inch","system":"http://unitsofmeasure.org","code":"[in_i]"}}},{"fullUrl":"Observation/86bbd353-ffe8-4fe3-aef2-b7abde40452e","resource":{"resourceType":"Observation","id":"86bbd353-ffe8-4fe3-aef2-b7abde40452e","meta":{"profile":["http://hl7.org/fhir/us/core/StructureDefinition/us-core-body-weight"]},"status":"final","category":[{"coding":[{"system":"http://terminology.hl7.org/CodeSystem/observation-category","code":"vital-signs","display":"Vital Signs"}]}],"code":{"coding":[{"system":"http://loinc.org","code":"29463-7"}]},"subject":{"reference":"Patient/8846bb6f-6848-4c7d-8646-c4d25277abeb"},"effectiveDateTime":"2022-11-03T00:00:00+00:00","valueQuantity":{"value":20.56,"unit":"kilogram","system":"http://unitsofmeasure.org","code":"kg"}}},{"fullUrl":"Observation/ca2a63a6-f470-4552-88f6-3f445f8b87ce","resource":{"resourceType":"Observation","id":"ca2a63a6-f470-4552-88f6-3f445f8b87ce","meta":{"profile":["http://hl7.org/fhir/us/core/StructureDefinition/us-core-body-temperature"]},"status":"final","category":[{"coding":[{"system":"http://terminology.hl7.org/CodeSystem/observation-category","code":"vital-signs","display":"Vital Signs"}]}],"code":{"coding":[{"system":"http://loinc.org","code":"8310-5"}]},"subject":{"reference":"Patient/8846bb6f-6848-4c7d-8646-c4d25277abeb"},"effectiveDateTime":"2022-09-21T00:00:00+00:00","valueQuantity":{"value":85.14,"unit":"Degrees Fahrenheit","system":"http://unitsofmeasure.org","code":"[degF]"}}},{"fullUrl":"Observation/3ab85ad6-d3e4-4cac-8f9e-99c522978c47","resource":{"resourceType":"Observation","id":"3ab85ad6-d3e4-4cac-8f9e-99c522978c47","meta":{"profile":["http://hl7.org/fhir/us/core/StructureDefinition/us-core-heart-rate"]},"status":"final","category":[{"coding":[{"system":"http://terminology.hl7.org/CodeSystem/observation-category","code":"vital-signs","display":"Vital Signs"}]}],"code":{"coding":[{"system":"http://loinc.org","code":"8867-4"}]},"subject":{"reference":"Patient/8846bb6f-6848-4c7d-8646-c4d25277abeb"},"effectiveDateTime":"2022-06-08T00:00:00+00:00","valueQuantity":{"value":99,"unit":"Per Minute","system":"http://unitsofmeasure.org","code":"/min"}}},{"fullUrl":"Observation/ed585386-2043-4cac-804b-a1dc9d9deaf8","resource":{"resourceType":"Observation","id":"ed585386-2043-4cac-804b-a1dc9d9deaf8","meta":{"profile":["http://hl7.org/fhir/us/core/StructureDefinition/us-core-heart-rate"]},"status":"final","category":[{"coding":[{"system":"http://terminology.hl7.org/CodeSystem/observation-category","code":"vital-signs","display":"Vital Signs"}]}],"code":{"coding":[{"system":"http://loinc.org","code":"8867-4"}]},"subject":{"reference":"Patient/8846bb6f-6848-4c7d-8646-c4d25277abeb"},"effectiveDateTime":"2022-01-18T00:00:00+00:00","valueQuantity":{"value":100.6,"unit":"Per Minute","system":"http://unitsofmeasure.org","code":"/min"}}}]}