{"resourceType":"Bundle","id":"aafebe69-998d-4852-b840-0096761d9b56","type":"transaction","entry":[{"fullUrl":"Patient/c4b11eca-8349-40fe-8939-ec2967d308c7","resource":{"resourceType":"Patient","id":"c4b11eca-8349-40fe-8939-ec2967d308c7","identifier":[{"type":{"coding":[{"system":"http://terminology.hl7.org/CodeSystem/v2-0203","code":"MR"}]},"system":"urn:fhirgen:mrn","value":"116-97-1672"}],"name":[{"use":"official","family":"Wells","given":["Luis"]},{"use":"maiden","family":"Walsh"}],"telecom":[{"system":"phone","value":"427.316.9485x754","use":"home"},{"system":"email","value":"hbarnes@yahoo.com","use":"mobile"}],"gender":"male","birthDate":"1955-05-27","address":[{"use":"home","line":["97509 Thomas Centers Apt. 143"],"city":"Port Aaron","state":"NE","postalCode":"36142"},{"use":"old","line":["52071 Daniel Summit"],"city":"Gonzalezburgh","state":"TX","postalCode":"75656"}]},"request":{"method":"POST","url":"Patient"}},{"fullUrl":"Observation/c612cc81-efb4-4611-8231-69ba9250d93d","resource":{"resourceType":"Observation","id":"c612cc81-efb4-4611-8231-69ba9250d93d","status":"final","code":{"coding":[{"system":"http://loinc.org","code":"47476-7"}]},"subject":{"reference":"Patient/c4b11eca-8349-40fe-8939-ec2967d308c7"},"effectiveDateTime":"2022-10-09T00:00:00+00:00","valueRatio":{"numerator":{"value":1},"denominator":{"value":64}}},"request":{"method":"POST","url":"Observation"}},{"fullUrl":"Observation/b76c1463-7811-48be-ad02-d53fd8b9a952","resource":{"resourceType":"Observation","id":"b76c1463-7811-48be-ad02-d53fd8b9a952","status":"final","code":{"coding":[{"system":"http://loinc.org","code":"87925-4"}]},"subject":{"reference":"Patient/c4b11eca-8349-40fe-8939-ec2967d308c7"},"effectiveDateTime":"2022-09-14T00:00:00+00:00","valueRatio":{"numerator":{"value":1},"denominator":{"value":64}}},"request":{"method":"POST","url":"Observation"}},{"fullUrl":"Observation/01ece814-be4d-426d-a5d2-1853a02b6d4a","resource":{"resourceType":"Observation","id":"01ece814-be4d-426d-a5d2-1853a02b6d4a","status":"final","code":{"coding":[{"system":"http://loinc.org","code":"87925-4"}]},"subject":{"reference":"Patient/c4b11eca-8349-40fe-8939-ec2967d308c7"},"effectiveDateTime":"2022-10-06T00:00:00+00:00","valueRatio":{"numerator":{"value":1},"denominator":{"value":32}}},"request":{"method":"POST","url":"Observation"}},{"fullUrl":"Condition/ab50db91-eacd-411b-9f40-900cd542066b","resource":{"resourceType":"Condition","id":"ab50db91-eacd-411b-9f40-900cd542066b","code":{"coding":[{"system":"http://snomed.info/sct","code":"386661006"}]},"subject":{"reference":"Patient/c4b11eca-8349-40fe-8939-ec2967d308c7"},"onsetDateTime":"2022-11-13T00:00:00+00:00"},"request":{"method":"POST","url":"Condition"}},{"fullUrl":"Condition/0e25f0a9-3e02-4bf6-afd8-e3240d839887","resource":{"resourceType":"Condition","id":"0e25f0a9-3e02-4bf6-afd8-e3240d839887","code":{"coding":[{"system":"http://snomed.info/sct","code":"44882003"}]},"subject":{"reference":"Patient/c4b11eca-8349-40fe-8939-ec2967d308c7"},"onsetDateTime":"2022-11-28T00:00:00+00:00"},"request":{"method":"POST","url":"Condition"}},{"fullUrl":"Condition/37f03c57-6a2f-4124-86bb-625e88ebae09","resource":{"resourceType":"Condition","id":"37f03c57-6a2f-4124-86bb-625e88ebae09","code":{"coding":[{"system":"http://snomed.info/sct","code":"736686006"}]},"subject":{"reference":"Patient/c4b11eca-8349-40fe-8939-ec2967d308c7"},"onsetDateTime":"2022-04-23T00:00:00+00:00"},"request":{"method":"POST","url":"Condition"}},{"fullUrl":"Condition/854dace5-63ba-4ee1-aa34-9cecd58fa123","resource":{"resourceType":"Condition","id":"854dace5-63ba-4ee1-aa34-9cecd58fa123","code":{"coding":[{"system":"http://snomed.info/sct","code":"18165001"}]},"subject":{"reference":"Patient/c4b11eca-8349-40fe-8939-ec2967d308c7"},"onsetDateTime":"2022-11-10T00:00:00+00:00"},"request":{"method":"POST","url":"Condition"}},{"fullUrl":"Condition/73e14aa1-ec9e-4ca1-8ac4-6c828f871aaf","resource":{"resourceType":"Condition","id":"73e14aa1-ec9e-4ca1-8ac4-6c828f871aaf","code":{"coding":[{"system":"http://snomed.info/sct","code":"56317004"}]},"subject":{"reference":"Patient/c4b11eca-8349-40fe-8939-ec2967d308c7"},"onsetDateTime":"2022-06-29T00:00:00+00:00"},"request":{"method":"POST","url":"Condition"}},{"fullUrl":"Observation/10a3dd55-f348-49cf-b262-57d2c50e6dd0","resource":{"resourceType":"Observation","id":"10a3dd55-f348-49cf-b262-57d2c50e6dd0","status":"final","code":{"coding":[{"system":"http://loinc.org","code":"26464-8"}]},"subject":{"reference":"Patient/c4b11eca-8349-40fe-8939-ec2967d308c7"},"effectiveDateTime":"2022-03-06T00:00:00+00:00","valueQuantity":{"value":6.1}},"request":{"method":"POST","url":"Observation"}},{"fullUrl":"Observation/ad9aba15-fb7f-43ec-82d2-19156f371a5f","resource":{"resourceType":"Observation","id":"ad9aba15-fb7f-43ec-82d2-19156f371a5f","status":"final","code":{"coding":[{"system":"http://loinc.org","code":"6690-2"}]},"subject":{"reference":"Patient/c4b11eca-8349-40fe-8939-ec2967d308c7"},"effectiveDateTime":"2022-07-12T00:00:00+00:00","valueQuantity":{"value":10}},"request":{"method":"POST","url":"Observation"}},{"fullUrl":"Observation/27ad8c7d-22c4-49e3-afa8-353f952d7c52","resource":{"resourceType":"Observation","id":"27ad8c7d-22c4-49e3-afa8-353f952d7c52","status":"final","code":{"coding":[{"system":"http://loinc.org","code":"49498-9"}]},"subject":{"reference":"Patient/c4b11eca-8349-40fe-8939-ec2967d308c7"},"effectiveDateTime":"2022-09-04T00:00:00+00:00"},"request":{"method":"POST","url":"Observation"}},{"fullUrl":"Observation/0cad470f-f1cf-4722-9d6e-44eb83bb2292","resource":{"resourceType":"Observation","id":"0cad470f-f1cf-4722-9d6e-44eb83bb2292","status":"final","code":{"coding":[{"system":"http://loinc.org","code":"49498-9"}]},"subject":{"reference":"Patient/c4b11eca-8349-40fe-8939-ec2967d308c7"},"effectiveDateTime":"2022-05-18T00:00:00+00:00"},"request":{"method":"POST","url":"Observation"}},{"fullUrl":"Observation/b6b7bb87-9689-4a79-bcb1-c8ceafff75fe","resource":{"resourceType":"Observation","id":"b6b7bb87-9689-4a79-bcb1-c8ceafff75fe","status":"final","code":{"coding":[{"system":"http://loinc.org","code":"49498-9"}]},"subject":{"reference":"Patient/c4b11eca-8349-40fe-8939-ec2967d308c7"},"effectiveDateTime":"2022-03-01T00:00:00+00:00"},"request":{"method":"POST","url":"Observation"}},{"fullUrl":"Procedure/2fd015ad-8b77-4c0a-ade3-94cf15acd5cc","resource":{"resourceType":"Procedure","id":"2fd015ad-8b77-4c0a-ade3-94cf15acd5cc","status":"completed","code":{"coding":[{"system":"http://snomed.info/sct","code":"146005"}]},"subject":{"reference":"Patient/c4b11eca-8349-40fe-8939-ec2967d308c7"},"performedDateTime":"2022-08-11T00:00:00+00:00"},"request":{"method":"POST","url":"Procedure"}},{"fullUrl":"Procedure/b7c42d37-e2f2-4008-97f4-a5d2d14f75eb","resource":{"resourceType":"Procedure","id":"b7c42d37-e2f2-4008-97f4-a5d2d14f75eb","status":"completed","code":{"coding":[{"system":"http://snomed.info/sct","code":"189009"}]},"subject":{"reference":"Patient/c4b11eca-8349-40fe-8939-ec2967d308c7"},"performedDateTime":"2022-11-15T00:00:00+00:00"},"request":{"method":"POST","url":"Procedure"}},{"fullUrl":"Procedure/80019841-b25e-4a86-8849-5921dc4ed171","resource":{"resourceType":"Procedure","id":"80019841-b25e-4a86-8849-5921dc4ed171","status":"completed","code":{"coding":[{"system":"http://snomed.info/sct","code":"146005"}]},"subject":{"reference":"Patient/c4b11eca-8349-40fe-8939-ec2967d308c7"},"performedDateTime":"2022-11-01T00:00:00+00:00"},"request":{"method":"POST","url":"Procedure"}},{"fullUrl":"MedicationStatement/08278eaf-3686-4f52-acaa-2915e57dcc1c","resource":{"resourceType":"MedicationStatement","id":"08278eaf-3686-4f52-acaa-2915e57dcc1c","status":"completed","medicationCodeableConcept":{"coding":[{"system":"http://www.nlm.nih.gov/research/umls/rxnorm","code":"7980"}]},"subject":{"reference":"Patient/c4b11eca-8349-40fe-8939-ec2967d308c7"},"effectiveDateTime":"2022-06-22T00:00:00+00:00","dosage":[{"doseAndRate":[{"doseQuantity":{"value":1,"unit":"TAB","system":"http://terminology.hl7.org/CodeSystem/v3-orderableDrugForm","code":"TAB"}}]}]},"request":{"method":"POST","url":"MedicationStatement"}},{"fullUrl":"MedicationStatement/edd1d43d-0a25-40a5-a303-2db10701c757","resource":{"resourceType":"MedicationStatement","id":"edd1d43d-0a25-40a5-a303-2db10701c757","status":"completed","medicationCodeableConcept":{"coding":[{"system":"http://www.nlm.nih.gov/research/umls/rxnorm","code":"7984"}]},"subject":{"reference":"Patient/c4b11eca-8349-40fe-8939-ec2967d308c7"},"effectiveDateTime":"2022-12-22T00:00:00+00:00","dosage":[{"doseAndRate":[{"doseQuantity":{"value":2,"unit":"TAB","system":"http://terminology.hl7.org/CodeSystem/v3-orderableDrugForm","code":"TAB"}}]}]},"request":{"method":"POST","url":"MedicationStatement"}},{"fullUrl":"MedicationStatement/092aa5e0-0747-4cbe-99d8-2eb8a1c36a8b","resource":{"resourceType":"MedicationStatement","id":"092aa5e0-0747-4cbe-99d8-2eb8a1c36a8b","status":"completed","medicationCodeableConcept":{"coding":[{"system":"http://www.nlm.nih.gov/research/umls/rxnorm","code":"2193"}]},"subject":{"reference":"Patient/c4b11eca-8349-40fe-8939-ec2967d308c7"},"effectiveDateTime":"2022-04-19T00:00:00+00:00","dosage":[{"doseAndRate":[{"doseQuantity":{"value":1,"unit":"TAB","system":"http://terminology.hl7.org/CodeSystem/v3-orderableDrugForm","code":"TAB"}}]}]},"request":{"method":"POST","url":"MedicationStatement"}},{"fullUrl":"MedicationStatement/dcd3df69-b0b8-476d-a57a-98f64c21db98","resource":{"resourceType":"MedicationStatement","id":"dcd3df69-b0b8-476d-a57a-98f64c21db98","status":"completed","medicationCodeableConcept":{"coding":[{"system":"http://www.nlm.nih.gov/research/umls/rxnorm","code":"18631"}]},"subject":{"reference":"Patient/c4b11eca-8349-40fe-8939-ec2967d308c7"},"effectiveDateTime":"2022-05-13T00:00:00+00:00","dosage":[{"doseAndRate":[{"doseQuantity":{"value":2,"unit":"TAB","system":"http://terminology.hl7.org/CodeSystem/v3-orderableDrugForm","code":"TAB"}}]}]},"request":{"method":"POST","url":"MedicationStatement"}},{"fullUrl":"MedicationStatement/64e1a94b-14b4-48b2-b516-718035ed1ca6","resource":{"resourceType":"MedicationStatement","id":"64e1a94b-14b4-48b2-b516-718035ed1ca6","status":"completed","medicationCodeableConcept":{"coding":[{"system":"http://www.nlm.nih.gov/research/umls/rxnorm","code":"7984"}]},"subject":{"reference":"Patient/c4b11eca-8349-40fe-8939-ec2967d308c7"},"effectiveDateTime":"2022-10-26T00:00:00+00:00","dosage":[{"doseAndRate":[{"doseQuantity":{"value":2,"unit":"TAB","system":"http://terminology.hl7.org/CodeSystem/v3-orderableDrugForm","code":"TAB"}}]}]},"request":{"method":"POST","url":"MedicationStatement"}},{"fullUrl":"MedicationStatement/3c3ab4d6-dded-4dca-a53f-870d6cbad07f","resource":{"resourceType":"MedicationStatement","id":"3c3ab4d6-dded-4dca-a53f-870d6cbad07f","status":"completed","medicationCodeableConcept":{"coding":[{"system":"http://www.nlm.nih.gov/research/umls/rxnorm","code":"3640"}]},"subject":{"reference":"Patient/c4b11eca-8349-40fe-8939-ec2967d308c7"},"effectiveDateTime":"2022-02-28T00:00:00+00:00","dosage":[{"doseAndRate":[{"doseQuantity":{"value":3.4,"unit":"TAB","system":"http://terminology.hl7.org/CodeSystem/v3-orderableDrugForm","code":"TAB"}}]}]},"request":{"method":"POST","url":"MedicationStatement"}},{"fullUrl":"MedicationStatement/8bbee7d8-b087-41a1-a466-0935994bec9c","resource":{"resourceType":"MedicationStatement","id":"8bbee7d8-b087-41a1-a466-0935994bec9c","status":"completed","medicationCodeableConcept":{"coding":[{"system":"http://www.nlm.nih.gov/research/umls/rxnorm","code":"2193"}]},"subject":{"reference":"Patient/c4b11eca-8349-40fe-8939-ec2967d308c7"},"effectiveDateTime":"2022-12-12T00:00:00+00:00","dosage":[{"doseAndRate":[{"doseQuantity":{"value":3.6,"unit":"TAB","system":"http://terminology.hl7.org/CodeSystem/v3-orderableDrugForm","code":"TAB"}}]}]},"request":{"method":"POST","url":"MedicationStatement"}},{"fullUrl":"MedicationStatement/95abd412-0b4a-492a-8c5c-292b0cd93b22","resource":{"resourceType":"MedicationStatement","id":"95abd412-0b4a-492a-8c5c-292b0cd93b22","status":"completed","medicationCodeableConcept":{"coding":[{"system":"http://www.nlm.nih.gov/research/umls/rxnorm","code":"8698"}]},"subject":{"reference":"Patient/c4b11eca-8349-40fe-8939-ec2967d308c7"},"effectiveDateTime":"2022-08-28T00:00:00+00:00","dosage":[{"doseAndRate":[{"doseQuantity":{"value":5.6,"unit":"TAB","system":"http://terminology.hl7.org/CodeSystem/v3-orderableDrugForm","code":"TAB"}}]}]},"request":{"method":"POST","url":"MedicationStatement"}},{"fullUrl":"MedicationStatement/539b9c5f-6392-45f3-8b9b-d514c45b00f0","resource":{"resourceType":"MedicationStatement","id":"539b9c5f-6392-45f3-8b9b-d514c45b00f0","status":"completed","medicationCodeableConcept":{"coding":[{"system":"http://www.nlm.nih.gov/research/umls/rxnorm","code":"7984"}]},"subject":{"reference":"Patient/c4b11eca-8349-40fe-8939-ec2967d308c7"},"effectiveDateTime":"2022-10-19T00:00:00+00:00","dosage":[{"doseAndRate":[{"doseQuantity":{"value":5.2,"unit":"TAB","system":"http://terminology.hl7.org/CodeSystem/v3-orderableDrugForm","code":"TAB"}}]}]},"request":{"method":"POST","url":"MedicationStatement"}},{"fullUrl":"MedicationStatement/381b90cb-9b93-4b26-bc61-622fc78e1383","resource":{"resourceType":"MedicationStatement","id":"381b90cb-9b93-4b26-bc61-622fc78e1383","status":"completed","medicationCodeableConcept":{"coding":[{"system":"http://www.nlm.nih.gov/research/umls/rxnorm","code":"3640"}]},"subject":{"reference":"Patient/c4b11eca-8349-40fe-8939-ec2967d308c7"},"effectiveDateTime":"2022-09-16T00:00:00+00:00","dosage":[{"doseAndRate":[{"doseQuantity":{"value":3.3,"unit":"TAB","system":"http://terminology.hl7.org/CodeSystem/v3-orderableDrugForm","code":"TAB"}}]}]},"request":{"method":"POST","url":"MedicationStatement"}},{"fullUrl":"MedicationStatement/84f4b3c7-fb7b-4a1c-8ae9-2deba25467db","resource":{"resourceType":"MedicationStatement","id":"84f4b3c7-fb7b-4a1c-8ae9-2deba25467db","status":"completed","medicationCodeableConcept":{"coding":[{"system":"http://www.nlm.nih.gov/research/umls/rxnorm","code":"7984"}]},"subject":{"reference":"Patient/c4b11eca-8349-40fe-8939-ec2967d308c7"},"effectiveDateTime":"2022-07-02T00:00:00+00:00","dosage":[{"doseAndRate":[{"doseQuantity":{"value":3.9,"unit":"TAB","system":"http://terminology.hl7.org/CodeSystem/v3-orderableDrugForm","code":"TAB"}}]}]},"request":{"method":"POST","url":"MedicationStatement"}},{"fullUrl":"Encounter/e22caf15-0506-4853-b42a-007607e36b69","resource":{"resourceType":"Encounter","id":"e22caf15-0506-4853-b42a-007607e36b69","status":"finished","class":{"system":"http://terminology.hl7.org/CodeSystem/v3-ActCode","code":"IMP","display":"inpatient encounter"},"type":[{"coding":[{"system":"http://terminology.hl7.org/CodeSystem/encounter-type","code":"CCS60"}]}],"subject":{"reference":"Patient/c4b11eca-8349-40fe-8939-ec2967d308c7"},"period":{"start":"2022-08-11T00:00:00+00:00","end":"2022-08-17T00:00:00+00:00"}},"request":{"method":"POST","url":"Encounter"}},{"fullUrl":"Encounter/ef994e26-eb67-4fac-98e5-de6586118f18","resource":{"resourceType":"Encounter","id":"ef994e26-eb67-4fac-98e5-de6586118f18","status":"finished","class":{"system":"http://terminology.hl7.org/CodeSystem/v3-ActCode","code":"IMP","display":"inpatient encounter"},"type":[{"coding":[{"system":"http://terminology.hl7.org/CodeSystem/encounter-type","code":"OKI"}]}],"subject":{"reference":"Patient/c4b11eca-8349-40fe-8939-ec2967d308c7"},"period":{"start":"2022-04-07T00:00:00+00:00","end":"2022-04-08T00:00:00+00:00"}},"request":{"method":"POST","url":"Encounter"}},{"fullUrl":"Encounter/397c9ce8-38e7-4cf6-bbe7-c169b5477b20","resource":{"resourceType":"Encounter","id":"397c9ce8-38e7-4cf6-bbe7-c169b5477b20","status":"finished","class":{"system":"http://terminology.hl7.org/CodeSystem/v3-ActCode","code":"IMP","display":"inpatient encounter"},"type":[{"coding":[{"system":"http://terminology.hl7.org/CodeSystem/encounter-type","code":"ADMS"}]}],"subject":{"reference":"Patient/c4b11eca-8349-40fe-8939-ec2967d308c7"},"period":{"start":"2022-07-06T00:00:00+00:00","end":"2022-07-06T00:00:00+00:00"}},"request":{"method":"POST","url":"Encounter"}},{"fullUrl":"Encounter/4669c928-85f2-44f6-b34e-7474457e6505","resource":{"resourceType":"Encounter","id":"4669c928-85f2-44f6-b34e-7474457e6505","status":"finished","class":{"system":"http://terminology.hl7.org/CodeSystem/v3-ActCode","code":"VR","display":"virtual"},"type":[{"coding":[{"system":"http://terminology.hl7.org/CodeSystem/encounter-type","code":"OKI"}]}],"subject":{"reference":"Patient/c4b11eca-8349-40fe-8939-ec2967d308c7"},"period":{"start":"2022-01-14T00:00:00+00:00","end":"2022-01-22T00:00:00+00:00"}},"request":{"method":"POST","url":"Encounter"}},{"fullUrl":"Encounter/a720ee53-9f1f-4781-a99f-916034203ff7","resource":{"resourceType":"Encounter","id":"a720ee53-9f1f-4781-a99f-916034203ff7","status":"finished","class":{"system":"http://terminology.hl7.org/CodeSystem/v3-ActCode","code":"NONAC","display":"inpatient non-acute"},"type":[{"coding":[{"system":"http://terminology.hl7.org/CodeSystem/encounter-type","code":"CCS60"}]}],"subject":{"reference":"Patient/c4b11eca-8349-40fe-8939-ec2967d308c7"},"period":{"start":"2022-07-13T00:00:00+00:00","end":"2022-07-21T00:00:00+00:00"}},"request":{"method":"POST","url":"Encounter"}},{"fullUrl":"Encounter/a93c04cb-56ac-49a0-b446-2b2be6ca462b","resource":{"resourceType":"Encounter","id":"a93c04cb-56ac-49a0-b446-2b2be6ca462b","status":"finished","class":{"system":"http://terminology.hl7.org/CodeSystem/v3-ActCode","code":"VR","display":"virtual"},"type":[{"coding":[{"system":"http://terminology.hl7.org/CodeSystem/encounter-type","code":"ADMS"}]}],"subject":{"reference":"Patient/c4b11eca-8349-40fe-8939-ec2967d308c7"},"period":{"start":"2022-11-20T00:00:00+00:00","end":"2022-11-25T00:00:00+00:00"}},"request":{"method":"POST","url":"Encounter"}},{"fullUrl":"Patient/d7946109-e80b-4b5e-8731-3f678bf1289a","resource":{"resourceType":"Patient","id":"d7946109-e80b-4b5e-8731-3f678bf1289a","identifier":[{"type":{"coding":[{"system":"http://terminology.hl7.org/CodeSystem/v2-0203","code":"MR"}]},"system":"urn:fhirgen:mrn","value":"819-59-6923"}],"name":[{"use":"official","family":"Duran","given":["James"]},{"use":"maiden","family":"Smith"}],"telecom":[{"system":"phone","value":"+1-874-492-2584","use":"work"},{"system":"email","value":"jenkinssandra@gmail.com","use":"home"}],"gender":"male","birthDate":"1966-05-07","address":[{"use":"home","line":["063 Petty Pike Suite 019"],"city":"Alexanderside","state":"AL","postalCode":"16491"},{"use":"old","line":["397 Hogan Crossing"],"city":"Caseburgh","state":"NJ","postalCode":"46147"}]},"request":{"method":"POST","url":"Patient"}},{"fullUrl":"Observation/bab12053-b25b-42f8-a90a-8f6df0565adc","resource":{"resourceType":"Observation","id":"bab12053-b25b-42f8-a90a-8f6df0565adc","status":"final","code":{"coding":[{"system":"http://loinc.org","code":"34382-2"}]},"subject":{"reference":"Patient/d7946109-e80b-4b5e-8731-3f678bf1289a"},"effectiveDateTime":"2022-11-06T00:00:00+00:00","valueRatio":{"numerator":{"value":1},"denominator":{"value":32}}},"request":{"method":"POST","url":"Observation"}},{"fullUrl":"Observation/3773cc91-6633-4ed3-adc1-4fab9268b0c1","resource":{"resourceType":"Observation","id":"3773cc91-6633-4ed3-adc1-4fab9268b0c1","status":"final","code":{"coding":[{"system":"http://loinc.org","code":"11084-1"}]},"subject":{"reference":"Patient/d7946109-e80b-4b5e-8731-3f678bf1289a"},"effectiveDateTime":"2022-02-15T00:00:00+00:00","valueRatio":{"numerator":{"value":1},"denominator":{"value":64}}},"request":{"method":"POST","url":"Observation"}},{"fullUrl":"Observation/889cf2c9-1610-4191-b965-8a25175a5687","resource":{"resourceType":"Observation","id":"889cf2c9-1610-4191-b965-8a25175a5687","status":"final","code":{"coding":[{"system":"http://loinc.org","code":"47476-7"}]},"subject":{"reference":"Patient/d7946109-e80b-4b5e-8731-3f678bf1289a"},"effectiveDateTime":"2022-11-19T00:00:00+00:00","valueRatio":{"numerator":{"value":1},"denominator":{"value":4}}},"request":{"method":"POST","url":"Observation"}},{"fullUrl":"Condition/6f90d99d-baa4-4706-a494-5f432906a082","resource":{"resourceType":"Condition","id":"6f90d99d-baa4-4706-a494-5f432906a082","code":{"coding":[{"system":"http://snomed.info/sct","code":"71315007"}]},"subject":{"reference":"Patient/d7946109-e80b-4b5e-8731-3f678bf1289a"},"onsetDateTime":"2022-02-25T00:00:00+00:00"},"request":{"method":"POST","url":"Condition"}},{"fullUrl":"Condition/3ff13ed4-20d1-4605-b823-ddedf07dad71","resource":{"resourceType":"Condition","id":"3ff13ed4-20d1-4605-b823-ddedf07dad71","code":{"coding":[{"system":"http://snomed.info/sct","code":"386661006"}]},"subject":{"reference":"Patient/d7946109-e80b-4b5e-8731-3f678bf1289a"},"onsetDateTime":"2022-09-06T00:00:00+00:00"},"request":{"method":"POST","url":"Condition"}},{"fullUrl":"Condition/842595a9-c82e-4fc6-8145-abe79812b266","resource":{"resourceType":"Condition","id":"842595a9-c82e-4fc6-8145-abe79812b266","code":{"coding":[{"system":"http://snomed.info/sct","code":"418290006"}]},"subject":{"reference":"Patient/d7946109-e80b-4b5e-8731-3f678bf1289a"},"onsetDateTime":"2022-11-29T00:00:00+00:00"},"request":{"method":"POST","url":"Condition"}},{"fullUrl":"Condition/793fc074-63ac-4135-a416-0bf9d8001093","resource":{"resourceType":"Condition","id":"793fc074-63ac-4135-a416-0bf9d8001093","code":{"coding":[{"system":"http://snomed.info/sct","code":"736686006"}]},"subject":{"reference":"Patient/d7946109-e80b-4b5e-8731-3f678bf1289a"},"onsetDateTime":"2022-05-14T00:00:00+00:00"},"request":{"method":"POST","url":"Condition"}},{"fullUrl":"Condition/db730651-7538-40ea-85fd-deca0edaf318","resource":{"resourceType":"Condition","id":"db730651-7538-40ea-85fd-deca0edaf318","code":{"coding":[{"system":"http://snomed.info/sct","code":"405737000"}]},"subject":{"reference":"Patient/d7946109-e80b-4b5e-8731-3f678bf1289a"},"onsetDateTime":"2022-07-09T00:00:00+00:00"},"request":{"method":"POST","url":"Condition"}},{"fullUrl":"Condition/85b186de-564c-4ad4-b3d8-ce2ad5ebd8c4","resource":{"resourceType":"Condition","id":"85b186de-564c-4ad4-b3d8-ce2ad5ebd8c4","code":{"coding":[{"system":"http://snomed.info/sct","code":"248980004"}]},"subject":{"reference":"Patient/d7946109-e80b-4b5e-8731-3f678bf1289a"},"onsetDateTime":"2022-12-06T00:00:00+00:00"},"request":{"method":"POST","url":"Condition"}},{"fullUrl":"Condition/e5cf4a70-a825-47c6-b236-0facb9599148","resource":{"resourceType":"Condition","id":"e5cf4a70-a825-47c6-b236-0facb9599148","code":{"coding":[{"system":"http://snomed.info/sct","code":"91554004"}]},"subject":{"reference":"Patient/d7946109-e80b-4b5e-8731-3f678bf1289a"},"onsetDateTime":"2022-06-08T00:00:00+00:00"},"request":{"method":"POST","url":"Condition"}},{"fullUrl":"Observation/36da857e-e701-48dc-929e-32ded0723985","resource":{"resourceType":"Observation","id":"36da857e-e701-48dc-929e-32ded0723985","status":"final","code":{"coding":[{"system":"http://loinc.org","code":"49498-9"}]},"subject":{"reference":"Patient/d7946109-e80b-4b5e-8731-3f678bf1289a"},"effectiveDateTime":"2022-07-08T00:00:00+00:00","valueQuantity":{"value":9.1}},"request":{"method":"POST","url":"Observation"}},{"fullUrl":"Observation/b5efdf2b-0e59-41fe-952a-8b480d79cdc2","resource":{"resourceType":"Observation","id":"b5efdf2b-0e59-41fe-952a-8b480d79cdc2","status":"final","code":{"coding":[{"system":"http://loinc.org","code":"49498-9"}]},"subject":{"reference":"Patient/d7946109-e80b-4b5e-8731-3f678bf1289a"},"effectiveDateTime":"2022-12-15T00:00:00+00:00","valueQuantity":{"value":4.1}},"request":{"method":"POST","url":"Observation"}},{"fullUrl":"Observation/23436320-ac0e-44b2-b96e-41d3e6c6235b","resource":{"resourceType":"Observation","id":"23436320-ac0e-44b2-b96e-41d3e6c6235b","status":"final","code":{"coding":[{"system":"http://www.ama-assn.org/go/cpt","code":"85048"}]},"subject":{"reference":"Patient/d7946109-e80b-4b5e-8731-3f678bf1289a"},"effectiveDateTime":"2022-12-01T00:00:00+00:00","valueQuantity":{"value":10}},"request":{"method":"POST","url":"Observation"}},{"fullUrl":"Observation/2ef35ea5-35e5-43dc-a2eb-d390a3f11e20","resource":{"resourceType":"Observation","id":"2ef35ea5-35e5-43dc-a2eb-d390a3f11e20","status":"final","code":{"coding":[{"system":"http://loinc.org","code":"49498-9"}]},"subject":{"reference":"Patient/d7946109-e80b-4b5e-8731-3f678bf1289a"},"effectiveDateTime":"2022-03-29T00:00:00+00:00"},"request":{"method":"POST","url":"Observation"}},{"fullUrl":"Observation/ad11fbf2-6997-446b-9e90-9640bdb90626","resource":{"resourceType":"Observation","id":"ad11fbf2-6997-446b-9e90-9640bdb90626","status":"final","code":{"coding":[{"system":"http://loinc.org","code":"49498-9"}]},"subject":{"reference":"Patient/d7946109-e80b-4b5e-8731-3f678bf1289a"},"effectiveDateTime":"2022-11-02T00:00:00+00:00"},"request":{"method":"POST","url":"Observation"}},{"fullUrl":"Procedure/e01953a7-0417-4456-b737-1e3968c70f3e","resource":{"resourceType":"Procedure","id":"e01953a7-0417-4456-b737-1e3968c70f3e","status":"completed","code":{"coding":[{"system":"http://snomed.info/sct","code":"115006"}]},"subject":{"reference":"Patient/d7946109-e80b-4b5e-8731-3f678bf1289a"},"performedDateTime":"2022-09-15T00:00:00+00:00"},"request":{"method":"POST","url":"Procedure"}},{"fullUrl":"Procedure/b207fa77-e717-43f3-90b6-a6f7642beead","resource":{"resourceType":"Procedure","id":"b207fa77-e717-43f3-90b6-a6f7642beead","status":"completed","code":{"coding":[{"system":"http://snomed.info/sct","code":"104001"}]},"subject":{"reference":"Patient/d7946109-e80b-4b5e-8731-3f678bf1289a"},"performedDateTime":"2022-03-18T00:00:00+00:00"},"request":{"method":"POST","url":"Procedure"}},{"fullUrl":"Procedure/24e222d2-655e-41f6-aa23-184e13bf83c8","resource":{"resourceType":"Procedure","id":"24e222d2-655e-41f6-aa23-184e13bf83c8","status":"completed","code":{"coding":[{"system":"http://snomed.info/sct","code":"647000"}]},"subject":{"reference":"Patient/d7946109-e80b-4b5e-8731-3f678bf1289a"},"performedDateTime":"2022-10-25T00:00:00+00:00"},"request":{"method":"POST","url":"Procedure"}},{"fullUrl":"MedicationStatement/13701155-fc3e-4876-8cc4-bd30e7195827","resource":{"resourceType":"MedicationStatement","id":"13701155-fc3e-4876-8cc4-bd30e7195827","status":"completed","medicationCodeableConcept":{"coding":[{"system":"http://www.nlm.nih.gov/research/umls/rxnorm","code":"3640"}]},"subject":{"reference":"Patient/d7946109-e80b-4b5e-8731-3f678bf1289a"},"effectiveDateTime":"2022-12-14T00:00:00+00:00","dosage":[{"doseAndRate":[{"doseQuantity":{"value":1,"unit":"TAB","system":"http://terminology.hl7.org/CodeSystem/v3-orderableDrugForm","code":"TAB"}}]}]},"request":{"method":"POST","url":"MedicationStatement"}},{"fullUrl":"MedicationStatement/bd6bb3a5-949b-4479-86e5-57dbb6dd361b","resource":{"resourceType":"MedicationStatement","id":"bd6bb3a5-949b-4479-86e5-57dbb6dd361b","status":"completed","medicationCodeableConcept":{"coding":[{"system":"http://www.nlm.nih.gov/research/umls/rxnorm","code":"10395"}]},"subject":{"reference":"Patient/d7946109-e80b-4b5e-8731-3f678bf1289a"},"effectiveDateTime":"2022-05-06T00:00:00+00:00","dosage":[{"doseAndRate":[{"doseQuantity":{"value":4.3,"unit":"TAB","system":"http://terminology.hl7.org/CodeSystem/v3-orderableDrugForm","code":"TAB"}}]}]},"request":{"method":"POST","url":"MedicationStatement"}},{"fullUrl":"MedicationStatement/841c34c5-48bc-4ca7-8712-86888f34bc88","resource":{"resourceType":"MedicationStatement","id":"841c34c5-48bc-4ca7-8712-86888f34bc88","status":"completed","medicationCodeableConcept":{"coding":[{"system":"http://www.nlm.nih.gov/research/umls/rxnorm","code":"3640"}]},"subject":{"reference":"Patient/d7946109-e80b-4b5e-8731-3f678bf1289a"},"effectiveDateTime":"2022-06-09T00:00:00+00:00","dosage":[{"doseAndRate":[{"doseQuantity":{"value":5.8,"unit":"TAB","system":"http://terminology.hl7.org/CodeSystem/v3-orderableDrugForm","code":"TAB"}}]}]},"request":{"method":"POST","url":"MedicationStatement"}},{"fullUrl":"Encounter/2afb172c-5c1e-4267-9e09-e49d265190d0","resource":{"resourceType":"Encounter","id":"2afb172c-5c1e-4267-9e09-e49d265190d0","status":"finished","class":{"system":"http://terminology.hl7.org/CodeSystem/v3-ActCode","code":"IMP","display":"inpatient encounter"},"type":[{"coding":[{"system":"http://terminology.hl7.org/CodeSystem/encounter-type","code":"OKI"}]}],"subject":{"reference":"Patient/d7946109-e80b-4b5e-8731-3f678bf1289a"},"period":{"start":"2022-07-12T00:00:00+00:00","end":"2022-07-18T00:00:00+00:00"}},"request":{"method":"POST","url":"Encounter"}},{"fullUrl":"Encounter/ff547d3a-ce36-43f8-b9dc-e1f3f6518dab","resource":{"resourceType":"Encounter","id":"ff547d3a-ce36-43f8-b9dc-e1f3f6518dab","status":"finished","class":{"system":"http://terminology.hl7.org/CodeSystem/v3-ActCode","code":"IMP","display":"inpatient encounter"},"type":[{"coding":[{"system":"http://terminology.hl7.org/CodeSystem/encounter-type","code":"CCS60"}]}],"subject":{"reference":"Patient/d7946109-e80b-4b5e-8731-3f678bf1289a"},"period":{"start":"2022-01-10T00:00:00+00:00","end":"2022-01-18T00:00:00+00:00"}},"request":{"method":"POST","url":"Encounter"}},{"fullUrl":"Encounter/5ef66e7a-1b47-4471-8a7b-2bd9d1d921a4","resource":{"resourceType":"Encounter","id":"5ef66e7a-1b47-4471-8a7b-2bd9d1d921a4","status":"finished","class":{"system":"http://terminology.hl7.org/CodeSystem/v3-ActCode","code":"IMP","display":"inpatient encounter"},"type":[{"coding":[{"system":"http://terminology.hl7.org/CodeSystem/encounter-type","code":"CCS60"}]}],"subject":{"reference":"Patient/d7946109-e80b-4b5e-8731-3f678bf1289a"},"period":{"start":"2022-11-30T00:00:00+00:00","end":"2022-12-01T00:00:00+00:00"}},"request":{"method":"POST","url":"Encounter"}},{"fullUrl":"Encounter/d5e8b235-1124-424b-b5d3-0dbf7594064f","resource":{"resourceType":"Encounter","id":"d5e8b235-1124-424b-b5d3-0dbf7594064f","status":"finished","class":{"system":"http://terminology.hl7.org/CodeSystem/v3-ActCode","code":"NONAC","display":"inpatient non-acute"},"type":[{"coding":[{"system":"http://terminology.hl7.org/CodeSystem/encounter-type","code":"BD/BM-clin"}]}],"subject":{"reference":"Patient/d7946109-e80b-4b5e-8731-3f678bf1289a"},"period":{"start":"2022-10-25T00:00:00+00:00","end":"2022-10-29T00:00:00+00:00"}},"request":{"method":"POST","url":"Encounter"}},{"fullUrl":"Encounter/b1ffe0f1-5e9a-42d9-b32f-56b94e0e342e","resource":{"resourceType":"Encounter","id":"b1ffe0f1-5e9a-42d9-b32f-56b94e0e342e","status":"finished","class":{"system":"http://terminology.hl7.org/CodeSystem/v3-ActCode","code":"SS","display":"short-stay"},"type":[{"coding":[{"system":"http://terminology.hl7.org/CodeSystem/encounter-type","code":"ADMS"}]}],"subject":{"reference":"Patient/d7946109-e80b-4b5e-8731-3f678bf1289a"},"period":{"start":"2022-01-25T00:00:00+00:00","end":"2022-02-01T00:00:00+00:00"}},"request":{"method":"POST","url":"Encounter"}},{"fullUrl":"Encounter/1b26590e-332d-4c8e-ae0a-c790a022c64b","resource":{"resourceType":"Encounter","id":"1b26590e-332d-4c8e-ae0a-c790a022c64b","status":"finished","class":{"system":"http://terminology.hl7.org/CodeSystem/v3-ActCode","code":"EMER","display":"emergency"},"type":[{"coding":[{"system":"http://terminology.hl7.org/CodeSystem/encounter-type","code":"OKI"}]}],"subject":{"reference":"Patient/d7946109-e80b-4b5e-8731-3f678bf1289a"},"period":{"start":"2022-11-14T00:00:00+00:00","end":"2022-11-16T00:00:00+00:00"}},"request":{"method":"POST","url":"Encounter"}},{"fullUrl":"Patient/29147bd2-8daf-4290-9535-6e4492d29938","resource":{"resourceType":"Patient","id":"29147bd2-8daf-4290-9535-6e4492d29938","identifier":[{"type":{"coding":[{"system":"http://terminology.hl7.org/CodeSystem/v2-0203","code":"MR"}]},"system":"urn:fhirgen:mrn","value":"488-53-3512"}],"name":[{"use":"official","family":"Lester","given":["Melanie"]},{"use":"maiden","family":"Haynes"}],"telecom":[{"system":"phone","value":"1635862706","use":"work"},{"system":"email","value":"jacqueline70@yahoo.com","use":"work"}],"gender":"female","birthDate":"1992-01-15","address":[{"use":"home","line":["01521 Candice Lock"],"city":"Port Gregory","state":"MA","postalCode":"35966"},{"use":"old","line":["29997 Chelsea Highway Suite 715"],"city":"West Jacob","state":"MN","postalCode":"94105"}]},"request":{"method":"POST","url":"Patient"}},{"fullUrl":"Observation/5e8aa9aa-849c-4cbd-8561-7db7013383ad","resource":{"resourceType":"Observation","id":"5e8aa9aa-849c-4cbd-8561-7db7013383ad","status":"final","code":{"coding":[{"system":"http://loinc.org","code":"47235-7"}]},"subject":{"reference":"Patient/29147bd2-8daf-4290-9535-6e4492d29938"},"effectiveDateTime":"2022-11-22T00:00:00+00:00","valueRatio":{"numerator":{"value":1},"denominator":{"value":4}}},"request":{"method":"POST","url":"Observation"}},{"fullUrl":"Observation/bb55b59e-348b-4432-a5bb-c4e463e31fe0","resource":{"resourceType":"Observation","id":"bb55b59e-348b-4432-a5bb-c4e463e31fe0","status":"final","code":{"coding":[{"system":"http://loinc.org","code":"50695-6"}]},"subject":{"reference":"Patient/29147bd2-8daf-4290-9535-6e4492d29938"},"effectiveDateTime":"2022-03-28T00:00:00+00:00","valueRatio":{"numerator":{"value":1},"denominator":{"value":4}}},"request":{"method":"POST","url":"Observation"}},{"fullUrl":"Observation/5c1de5c0-9008-4b3d-8bbb-fce2de88c9d1","resource":{"resourceType":"Observation","id":"5c1de5c0-9008-4b3d-8bbb-fce2de88c9d1","status":"final","code":{"coding":[{"system":"http://loinc.org","code":"50690-7"}]},"subject":{"reference":"Patient/29147bd2-8daf-4290-9535-6e4492d29938"},"effectiveDateTime":"2022-04-15T00:00:00+00:00","valueRatio":{"numerator":{"value":1},"denominator":{"value":32}}},"request":{"method":"POST","url":"Observation"}},{"fullUrl":"Condition/ff5b7152-74f6-4054-93df-ebfd530ad661","resource":{"resourceType":"Condition","id":"ff5b7152-74f6-4054-93df-ebfd530ad661","code":{"coding":[{"system":"http://snomed.info/sct","code":"18165001"}]},"subject":{"reference":"Patient/29147bd2-8daf-4290-9535-6e4492d29938"},"onsetDateTime":"2022-06-18T00:00:00+00:00"},"request":{"method":"POST","url":"Condition"}},{"fullUrl":"Condition/0c97f543-2e0d-4f68-8e6c-1a878a6ae0c2","resource":{"resourceType":"Condition","id":"0c97f543-2e0d-4f68-8e6c-1a878a6ae0c2","code":{"coding":[{"system":"http://snomed.info/sct","code":"71315007"}]},"subject":{"reference":"Patient/29147bd2-8daf-4290-9535-6e4492d29938"},"onsetDateTime":"2022-01-12T00:00:00+00:00"},"request":{"method":"POST","url":"Condition"}},{"fullUrl":"Condition/109d7ff2-b553-4b60-a88a-a7baea6c8e85","resource":{"resourceType":"Condition","id":"109d7ff2-b553-4b60-a88a-a7baea6c8e85","code":{"coding":[{"system":"http://snomed.info/sct","code":"248980004"}]},"subject":{"reference":"Patient/29147bd2-8daf-4290-9535-6e4492d29938"},"onsetDateTime":"2022-12-13T00:00:00+00:00"},"request":{"method":"POST","url":"Condition"}},{"fullUrl":"Condition/1a23c1a2-f6bf-4dc5-b320-6577c0859fe3","resource":{"resourceType":"Condition","id":"1a23c1a2-f6bf-4dc5-b320-6577c0859fe3","code":{"coding":[{"system":"http://snomed.info/sct","code":"56317004"}]},"subject":{"reference":"Patient/29147bd2-8daf-4290-9535-6e4492d29938"},"onsetDateTime":"2022-07-14T00:00:00+00:00"},"request":{"method":"POST","url":"Condition"}},{"fullUrl":"Observation/dfc4d6da-264e-48e8-8a9f-3f6ec8df36a8","resource":{"resourceType":"Observation","id":"dfc4d6da-264e-48e8-8a9f-3f6ec8df36a8","status":"final","code":{"coding":[{"system":"http://loinc.org","code":"804-5"}]},"subject":{"reference":"Patient/29147bd2-8daf-4290-9535-6e4492d29938"},"effectiveDateTime":"2022-01-12T00:00:00+00:00","valueQuantity":{"value":7.7}},"request":{"method":"POST","url":"Observation"}},{"fullUrl":"Observation/d5ab82b0-8e58-426a-a4d4-03e6bc4265da","resource":{"resourceType":"Observation","id":"d5ab82b0-8e58-426a-a4d4-03e6bc4265da","status":"final","code":{"coding":[{"system":"http://loinc.org","code":"26464-8"}]},"subject":{"reference":"Patient/29147bd2-8daf-4290-9535-6e4492d29938"},"effectiveDateTime":"2022-12-08T00:00:00+00:00","valueQuantity":{"value":8.6}},"request":{"method":"POST","url":"Observation"}},{"fullUrl":"Observation/57faa119-9692-4b0c-8916-e25a63dc2622","resource":{"resourceType":"Observation","id":"57faa119-9692-4b0c-8916-e25a63dc2622","status":"final","code":{"coding":[{"system":"http://loinc.org","code":"804-5"}]},"subject":{"reference":"Patient/29147bd2-8daf-4290-9535-6e4492d29938"},"effectiveDateTime":"2022-07-18T00:00:00+00:00","valueQuantity":{"value":5.5}},"request":{"method":"POST","url":"Observation"}},{"fullUrl":"Observation/fa15a8bf-09cd-4063-af54-d3d68a6d406a","resource":{"resourceType":"Observation","id":"fa15a8bf-09cd-4063-af54-d3d68a6d406a","status":"final","code":{"coding":[{"system":"http://loinc.org","code":"49498-9"}]},"subject":{"reference":"Patient/29147bd2-8daf-4290-9535-6e4492d29938"},"effectiveDateTime":"2022-01-07T00:00:00+00:00"},"request":{"method":"POST","url":"Observation"}},{"fullUrl":"Observation/997e4950-032c-4533-87b5-5074a387ad9a","resource":{"resourceType":"Observation","id":"997e4950-032c-4533-87b5-5074a387ad9a","status":"final","code":{"coding":[{"system":"http://loinc.org","code":"49498-9"}]},"subject":{"reference":"Patient/29147bd2-8daf-4290-9535-6e4492d29938"},"effectiveDateTime":"2022-05-27T00:00:00+00:00"},"request":{"method":"POST","url":"Observation"}},{"fullUrl":"Procedure/736b1cd8-f6b4-419b-a961-1531e4764a06","resource":{"resourceType":"Procedure","id":"736b1cd8-f6b4-419b-a961-1531e4764a06","status":"completed","code":{"coding":[{"system":"http://snomed.info/sct","code":"647000"}]},"subject":{"reference":"Patient/29147bd2-8daf-4290-9535-6e4492d29938"},"performedDateTime":"2022-11-28T00:00:00+00:00"},"request":{"method":"POST","url":"Procedure"}},{"fullUrl":"Procedure/04a6ea22-bb26-4b6f-b0e2-f887502e925b","resource":{"resourceType":"Procedure","id":"04a6ea22-bb26-4b6f-b0e2-f887502e925b","status":"completed","code":{"coding":[{"system":"http://snomed.info/sct","code":"115006"}]},"subject":{"reference":"Patient/29147bd2-8daf-4290-9535-6e4492d29938"},"performedDateTime":"2022-05-17T00:00:00+00:00"},"request":{"method":"POST","url":"Procedure"}},{"fullUrl":"Procedure/80a24839-15c7-47cb-a59e-3a16ac692933","resource":{"resourceType":"Procedure","id":"80a24839-15c7-47cb-a59e-3a16ac692933","status":"completed","code":{"coding":[{"system":"http://snomed.info/sct","code":"146005"}]},"subject":{"reference":"Patient/29147bd2-8daf-4290-9535-6e4492d29938"},"performedDateTime":"2022-03-24T00:00:00+00:00"},"request":{"method":"POST","url":"Procedure"}},{"fullUrl":"MedicationStatement/ff3d84b6-0d50-4940-a0fc-6d7564cfaabf","resource":{"resourceType":"MedicationStatement","id":"ff3d84b6-0d50-4940-a0fc-6d7564cfaabf","status":"completed","medicationCodeableConcept":{"coding":[{"system":"http://www.nlm.nih.gov/research/umls/rxnorm","code":"2193"}]},"subject":{"reference":"Patient/29147bd2-8daf-4290-9535-6e4492d29938"},"effectiveDateTime":"2022-09-15T00:00:00+00:00","dosage":[{"doseAndRate":[{"doseQuantity":{"value":2,"unit":"TAB","system":"http://terminology.hl7.org/CodeSystem/v3-orderableDrugForm","code":"TAB"}}]}]},"request":{"method":"POST","url":"MedicationStatement"}},{"fullUrl":"MedicationStatement/52e38fbd-a8c5-47ab-96d6-3594d3938e62","resource":{"resourceType":"MedicationStatement","id":"52e38fbd-a8c5-47ab-96d6-3594d3938e62","status":"completed","medicationCodeableConcept":{"coding":[{"system":"http://www.nlm.nih.gov/research/umls/rxnorm","code":"18631"}]},"subject":{"reference":"Patient/29147bd2-8daf-4290-9535-6e4492d29938"},"effectiveDateTime":"2022-11-24T00:00:00+00:00","dosage":[{"doseAndRate":[{"doseQuantity":{"value":4.2,"unit":"TAB","system":"http://terminology.hl7.org/CodeSystem/v3-orderableDrugForm","code":"TAB"}}]}]},"request":{"method":"POST","url":"MedicationStatement"}},{"fullUrl":"MedicationStatement/a6ea2ff6-5396-48b1-8afd-a8ebc14484fc","resource":{"resourceType":"MedicationStatement","id":"a6ea2ff6-5396-48b1-8afd-a8ebc14484fc","status":"completed","medicationCodeableConcept":{"coding":[{"system":"http://www.nlm.nih.gov/research/umls/rxnorm","code":"10395"}]},"subject":{"reference":"Patient/29147bd2-8daf-4290-9535-6e4492d29938"},"effectiveDateTime":"2022-09-28T00:00:00+00:00","dosage":[{"doseAndRate":[{"doseQuantity":{"value":6.9,"unit":"TAB","system":"http://terminology.hl7.org/CodeSystem/v3-orderableDrugForm","code":"TAB"}}]}]},"request":{"method":"POST","url":"MedicationStatement"}},{"fullUrl":"MedicationStatement/72613e7b-dbd5-4f7c-8307-caf15938dd71","resource":{"resourceType":"MedicationStatement","id":"72613e7b-dbd5-4f7c-8307-caf15938dd71","status":"completed","medicationCodeableConcept":{"coding":[{"system":"http://www.nlm.nih.gov/research/umls/rxnorm","code":"3640"}]},"subject":{"reference":"Patient/29147bd2-8daf-4290-9535-6e4492d29938"},"effectiveDateTime":"2022-02-27T00:00:00+00:00","dosage":[{"doseAndRate":[{"doseQuantity":{"value":6.8,"unit":"TAB","system":"http://terminology.hl7.org/CodeSystem/v3-orderableDrugForm","code":"TAB"}}]}]},"request":{"method":"POST","url":"MedicationStatement"}},{"fullUrl":"MedicationStatement/373393f7-440a-4d4c-a105-74a6fa0e1ed5","resource":{"resourceType":"MedicationStatement","id":"373393f7-440a-4d4c-a105-74a6fa0e1ed5","status":"completed","medicationCodeableConcept":{"coding":[{"system":"http://www.nlm.nih.gov/research/umls/rxnorm","code":"18631"}]},"subject":{"reference":"Patient/29147bd2-8daf-4290-9535-6e4492d29938"},"effectiveDateTime":"2022-06-22T00:00:00+00:00","dosage":[{"doseAndRate":[{"doseQuantity":{"value":5.3,"unit":"TAB","system":"http://terminology.hl7.org/CodeSystem/v3-orderableDrugForm","code":"TAB"}}]}]},"request":{"method":"POST","url":"MedicationStatement"}},{"fullUrl":"MedicationStatement/a9ee8bc7-e9dd-40ea-a195-82486a770640","resource":{"resourceType":"MedicationStatement","id":"a9ee8bc7-e9dd-40ea-a195-82486a770640","status":"completed","medicationCodeableConcept":{"coding":[{"system":"http://www.nlm.nih.gov/research/umls/rxnorm","code":"2193"}]},"subject":{"reference":"Patient/29147bd2-8daf-4290-9535-6e4492d29938"},"effectiveDateTime":"2022-06-05T00:00:00+00:00","dosage":[{"doseAndRate":[{"doseQuantity":{"value":3.9,"unit":"TAB","system":"http://terminology.hl7.org/CodeSystem/v3-orderableDrugForm","code":"TAB"}}]}]},"request":{"method":"POST","url":"MedicationStatement"}},{"fullUrl":"MedicationStatement/112d24c7-9651-4d16-8264-374619d0b085","resource":{"resourceType":"MedicationStatement","id":"112d24c7-9651-4d16-8264-374619d0b085","status":"completed","medicationCodeableConcept":{"coding":[{"system":"http://www.nlm.nih.gov/research/umls/rxnorm","code":"7984"}]},"subject":{"reference":"Patient/29147bd2-8daf-4290-9535-6e4492d29938"},"effectiveDateTime":"2022-07-15T00:00:00+00:00","dosage":[{"doseAndRate":[{"doseQuantity":{"value":6.2,"unit":"TAB","system":"http://terminology.hl7.org/CodeSystem/v3-orderableDrugForm","code":"TAB"}}]}]},"request":{"method":"POST","url":"MedicationStatement"}},{"fullUrl":"MedicationStatement/9576af06-1694-4e9a-aede-b6f91d344858","resource":{"resourceType":"MedicationStatement","id":"9576af06-1694-4e9a-aede-b6f91d344858","status":"completed","medicationCodeableConcept":{"coding":[{"system":"http://www.nlm.nih.gov/research/umls/rxnorm","code":"18631"}]},"subject":{"reference":"Patient/29147bd2-8daf-4290-9535-6e4492d29938"},"effectiveDateTime":"2022-05-30T00:00:00+00:00","dosage":[{"doseAndRate":[{"doseQuantity":{"value":5.3,"unit":"TAB","system":"http://terminology.hl7.org/CodeSystem/v3-orderableDrugForm","code":"TAB"}}]}]},"request":{"method":"POST","url":"MedicationStatement"}},{"fullUrl":"Encounter/dee0136c-ab53-440d-8a9f-9c93e7347d71","resource":{"resourceType":"Encounter","id":"dee0136c-ab53-440d-8a9f-9c93e7347d71","status":"finished","class":{"system":"http://terminology.hl7.org/CodeSystem/v3-ActCode","code":"IMP","display":"inpatient encounter"},"type":[{"coding":[{"system":"http://terminology.hl7.org/CodeSystem/encounter-type","code":"ADMS"}]}],"subject":{"reference":"Patient/29147bd2-8daf-4290-9535-6e4492d29938"},"period":{"start":"2022-11-03T00:00:00+00:00","end":"2022-11-07T00:00:00+00:00"}},"request":{"method":"POST","url":"Encounter"}},{"fullUrl":"Encounter/7ad7bcea-9c5e-43ba-abaf-e212cbb7ce56","resource":{"resourceType":"Encounter","id":"7ad7bcea-9c5e-43ba-abaf-e212cbb7ce56","status":"finished","class":{"system":"http://terminology.hl7.org/CodeSystem/v3-ActCode","code":"IMP","display":"inpatient encounter"},"type":[{"coding":[{"system":"http://terminology.hl7.org/CodeSystem/encounter-type","code":"CCS60"}]}],"subject":{"reference":"Patient/29147bd2-8daf-4290-9535-6e4492d29938"},"period":{"start":"2022-10-19T00:00:00+00:00","end":"2022-10-20T00:00:00+00:00"}},"request":{"method":"POST","url":"Encounter"}},{"fullUrl":"Encounter/e214b2e1-06bc-401d-a228-685bd5ddf4ba","resource":{"resourceType":"Encounter","id":"e214b2e1-06bc-401d-a228-685bd5ddf4ba","status":"finished","class":{"system":"http://terminology.hl7.org/CodeSystem/v3-ActCode","code":"FLD","display":"field"},"type":[{"coding":[{"system":"http://terminology.hl7.org/CodeSystem/encounter-type","code":"BD/BM-clin"}]}],"subject":{"reference":"Patient/29147bd2-8daf-4290-9535-6e4492d29938"},"period":{"start":"2022-04-08T00:00:00+00:00","end":"2022-04-09T00:00:00+00:00"}},"request":{"method":"POST","url":"Encounter"}},{"fullUrl":"Encounter/e909fd3c-457a-4b58-9130-0de95fe17900","resource":{"resourceType":"Encounter","id":"e909fd3c-457a-4b58-9130-0de95fe17900","status":"finished","class":{"system":"http://terminology.hl7.org/CodeSystem/v3-ActCode","code":"AMB","display":"ambulatory"},"type":[{"coding":[{"system":"http://terminology.hl7.org/CodeSystem/encounter-type","code":"CCS60"}]}],"subject":{"reference":"Patient/29147bd2-8daf-4290-9535-6e4492d29938"},"period":{"start":"2022-06-30T00:00:00+00:00","end":"2022-06-30T00:00:00+00:00"}},"request":{"method":"POST","url":"Encounter"}},{"fullUrl":"Encounter/9cb6d642-d6c3-4042-adc9-42982d9edffd","resource":{"resourceType":"Encounter","id":"9cb6d642-d6c3-4042-adc9-42982d9edffd","status":"finished","class":{"system":"http://terminology.hl7.org/CodeSystem/v3-ActCode","code":"FLD","display":"field"},"type":[{"coding":[{"system":"http://terminology.hl7.org/CodeSystem/encounter-type","code":"BD/BM-clin"}]}],"subject":{"reference":"Patient/29147bd2-8daf-4290-9535-6e4492d29938"},"period":{"start":"2022-12-19T00:00:00+00:00","end":"2022-12-28T00:00:00+00:00"}},"request":{"method":"POST","url":"Encounter"}},{"fullUrl":"Patient/a63ec703-d8de-4a82-ad32-88cf796464f0","resource":{"resourceType":"Patient","id":"a63ec703-d8de-4a82-ad32-88cf796464f0","identifier":[{"type":{"coding":[{"system":"http://terminology.hl7.org/CodeSystem/v2-0203","code":"MR"}]},"system":"urn:fhirgen:mrn","value":"588-94-7501"}],"name":[{"use":"official","family":"Graham","given":["Shelby"]},{"use":"maiden","family":"Hernandez"}],"telecom":[{"system":"phone","value":"001-492-095-5138x4400","use":"home"},{"system":"email","value":"jessica23@hotmail.com","use":"work"}],"gender":"female","birthDate":"1965-05-23","address":[{"use":"home","line":["780 Anderson Mountains"],"city":"Beasleyton","state":"OK","postalCode":"23667"},{"use":"old","line":["87014 Omar Prairie"],"city":"New Lisamouth","state":"MI","postalCode":"98110"}]},"request":{"method":"POST","url":"Patient"}},{"fullUrl":"Observation/03561a04-073f-4de9-b454-a053bdac19ac","resource":{"resourceType":"Observation","id":"03561a04-073f-4de9-b454-a053bdac19ac","status":"final","code":{"coding":[{"system":"http://loinc.org","code":"71793-4"}]},"subject":{"reference":"Patient/a63ec703-d8de-4a82-ad32-88cf796464f0"},"effectiveDateTime":"2022-10-05T00:00:00+00:00","valueRatio":{"numerator":{"value":1},"denominator":{"value":64}}},"request":{"method":"POST","url":"Observation"}},{"fullUrl":"Observation/8a95ce42-c2b0-4129-b7b9-3f138681fa54","resource":{"resourceType":"Observation","id":"8a95ce42-c2b0-4129-b7b9-3f138681fa54","status":"final","code":{"coding":[{"system":"http://loinc.org","code":"11084-1"}]},"subject":{"reference":"Patient/a63ec703-d8de-4a82-ad32-88cf796464f0"},"effectiveDateTime":"2022-02-07T00:00:00+00:00","valueRatio":{"numerator":{"value":1},"denominator":{"value":64}}},"request":{"method":"POST","url":"Observation"}},{"fullUrl":"Observation/36c7d385-8217-469c-b342-cb5294e9546a","resource":{"resourceType":"Observation","id":"36c7d385-8217-469c-b342-cb5294e9546a","status":"final","code":{"coding":[{"system":"http://loinc.org","code":"11084-1"}]},"subject":{"reference":"Patient/a63ec703-d8de-4a82-ad32-88cf796464f0"},"effectiveDateTime":"2022-07-16T00:00:00+00:00","valueRatio":{"numerator":{"value":1},"denominator":{"value":64}}},"request":{"method":"POST","url":"Observation"}},{"fullUrl":"Condition/e9ad33eb-dcc8-404a-af8c-2bc72f30c37d","resource":{"resourceType":"Condition","id":"e9ad33eb-dcc8-404a-af8c-2bc72f30c37d","code":{"coding":[{"system":"http://snomed.info/sct","code":"18165001"}]},"subject":{"reference":"Patient/a63ec703-d8de-4a82-ad32-88cf796464f0"},"onsetDateTime":"2022-02-15T00:00:00+00:00"},"request":{"method":"POST","url":"Condition"}},{"fullUrl":"Condition/38ad8e03-4bba-4085-ad85-2842b760ff5e","resource":{"resourceType":"Condition","id":"38ad8e03-4bba-4085-ad85-2842b760ff5e","code":{"coding":[{"system":"http://snomed.info/sct","code":"44882003"}]},"subject":{"reference":"Patient/a63ec703-d8de-4a82-ad32-88cf796464f0"},"onsetDateTime":"2022-06-30T00:00:00+00:00"},"request":{"method":"POST","url":"Condition"}},{"fullUrl":"Condition/21c18415-ca12-48ea-abd0-8b6359dde665","resource":{"resourceType":"Condition","id":"21c18415-ca12-48ea-abd0-8b6359dde665","code":{"coding":[{"system":"http://snomed.info/sct","code":"44882003"}]},"subject":{"reference":"Patient/a63ec703-d8de-4a82-ad32-88cf796464f0"},"onsetDateTime":"2022-07-21T00:00:00+00:00"},"request":{"method":"POST","url":"Condition"}},{"fullUrl":"Condition/5df814c8-9ccd-4be9-b5bf-0621ee42a545","resource":{"resourceType":"Condition","id":"5df814c8-9ccd-4be9-b5bf-0621ee42a545","code":{"coding":[{"system":"http://snomed.info/sct","code":"3951002"}]},"subject":{"reference":"Patient/a63ec703-d8de-4a82-ad32-88cf796464f0"},"onsetDateTime":"2022-12-20T00:00:00+00:00"},"request":{"method":"POST","url":"Condition"}},{"fullUrl":"Condition/60dbd7db-67a2-4917-ba61-a2adbd2787c5","resource":{"resourceType":"Condition","id":"60dbd7db-67a2-4917-ba61-a2adbd2787c5","code":{"coding":[{"system":"http://snomed.info/sct","code":"386661006"}]},"subject":{"reference":"Patient/a63ec703-d8de-4a82-ad32-88cf796464f0"},"onsetDateTime":"2022-03-17T00:00:00+00:00"},"request":{"method":"POST","url":"Condition"}},{"fullUrl":"Observation/7b5778b4-4368-4d86-bfb6-a30b4b6b8264","resource":{"resourceType":"Observation","id":"7b5778b4-4368-4d86-bfb6-a30b4b6b8264","status":"final","code":{"coding":[{"system":"http://loinc.org","code":"6690-2"}]},"subject":{"reference":"Patient/a63ec703-d8de-4a82-ad32-88cf796464f0"},"effectiveDateTime":"2022-10-22T00:00:00+00:00","valueQuantity":{"value":4.3}},"request":{"method":"POST","url":"Observation"}},{"fullUrl":"Observation/a5875f5d-f838-4389-9bca-80682788af58","resource":{"resourceType":"Observation","id":"a5875f5d-f838-4389-9bca-80682788af58","status":"final","code":{"coding":[{"system":"http://loinc.org","code":"49498-9"}]},"subject":{"reference":"Patient/a63ec703-d8de-4a82-ad32-88cf796464f0"},"effectiveDateTime":"2022-02-24T00:00:00+00:00","valueQuantity":{"value":8.6}},"request":{"method":"POST","url":"Observation"}},{"fullUrl":"Observation/18df7a66-73fe-4d61-a728-413d0e458244","resource":{"resourceType":"Observation","id":"18df7a66-73fe-4d61-a728-413d0e458244","status":"final","code":{"coding":[{"system":"http://loinc.org","code":"49498-9"}]},"subject":{"reference":"Patient/a63ec703-d8de-4a82-ad32-88cf796464f0"},"effectiveDateTime":"2022-06-29T00:00:00+00:00"},"request":{"method":"POST","url":"Observation"}},{"fullUrl":"Observation/e9a7c32c-aa85-4765-960e-027528b14f54","resource":{"resourceType":"Observation","id":"e9a7c32c-aa85-4765-960e-027528b14f54","status":"final","code":{"coding":[{"system":"http://loinc.org","code":"49498-9"}]},"subject":{"reference":"Patient/a63ec703-d8de-4a82-ad32-88cf796464f0"},"effectiveDateTime":"2022-10-17T00:00:00+00:00"},"request":{"method":"POST","url":"Observation"}},{"fullUrl":"Procedure/5a56b108-3d86-48a5-82aa-2dd71ea4e805","resource":{"resourceType":"Procedure","id":"5a56b108-3d86-48a5-82aa-2dd71ea4e805","status":"completed","code":{"coding":[{"system":"http://snomed.info/sct","code":"104001"}]},"subject":{"reference":"Patient/a63ec703-d8de-4a82-ad32-88cf796464f0"},"performedDateTime":"2022-11-04T00:00:00+00:00"},"request":{"method":"POST","url":"Procedure"}},{"fullUrl":"Procedure/b23662fa-6728-43d7-b5bc-2c034ea504a8","resource":{"resourceType":"Procedure","id":"b23662fa-6728-43d7-b5bc-2c034ea504a8","status":"completed","code":{"coding":[{"system":"http://snomed.info/sct","code":"146005"}]},"subject":{"reference":"Patient/a63ec703-d8de-4a82-ad32-88cf796464f0"},"performedDateTime":"2022-09-18T00:00:00+00:00"},"request":{"method":"POST","url":"Procedure"}},{"fullUrl":"Procedure/5c95b1cd-b700-4f46-8017-790f0206705b","resource":{"resourceType":"Procedure","id":"5c95b1cd-b700-4f46-8017-790f0206705b","status":"completed","code":{"coding":[{"system":"http://snomed.info/sct","code":"146005"}]},"subject":{"reference":"Patient/a63ec703-d8de-4a82-ad32-88cf796464f0"},"performedDateTime":"2022-01-02T00:00:00+00:00"},"request":{"method":"POST","url":"Procedure"}},{"fullUrl":"MedicationStatement/73258482-8a62-461d-9ecb-c17a09acc3b0","resource":{"resourceType":"MedicationStatement","id":"73258482-8a62-461d-9ecb-c17a09acc3b0","status":"completed","medicationCodeableConcept":{"coding":[{"system":"http://www.nlm.nih.gov/research/umls/rxnorm","code":"7984"}]},"subject":{"reference":"Patient/a63ec703-d8de-4a82-ad32-88cf796464f0"},"effectiveDateTime":"2022-03-02T00:00:00+00:00","dosage":[{"doseAndRate":[{"doseQuantity":{"value":1,"unit":"TAB","system":"http://terminology.hl7.org/CodeSystem/v3-orderableDrugForm","code":"TAB"}}]}]},"request":{"method":"POST","url":"MedicationStatement"}},{"fullUrl":"MedicationStatement/578db546-bd5d-45f7-9158-1a808b2a0d58","resource":{"resourceType":"MedicationStatement","id":"578db546-bd5d-45f7-9158-1a808b2a0d58","status":"completed","medicationCodeableConcept":{"coding":[{"system":"http://www.nlm.nih.gov/research/umls/rxnorm","code":"7984"}]},"subject":{"reference":"Patient/a63ec703-d8de-4a82-ad32-88cf796464f0"},"effectiveDateTime":"2022-05-15T00:00:00+00:00","dosage":[{"doseAndRate":[{"doseQuantity":{"value":2,"unit":"TAB","system":"http://terminology.hl7.org/CodeSystem/v3-orderableDrugForm","code":"TAB"}}]}]},"request":{"method":"POST","url":"MedicationStatement"}},{"fullUrl":"MedicationStatement/3c35d94e-aea6-4857-905d-1237f77d02a9","resource":{"resourceType":"MedicationStatement","id":"3c35d94e-aea6-4857-905d-1237f77d02a9","status":"completed","medicationCodeableConcept":{"coding":[{"system":"http://www.nlm.nih.gov/research/umls/rxnorm","code":"7984"}]},"subject":{"reference":"Patient/a63ec703-d8de-4a82-ad32-88cf796464f0"},"effectiveDateTime":"2022-01-10T00:00:00+00:00","dosage":[{"doseAndRate":[{"doseQuantity":{"value":1,"unit":"TAB","system":"http://terminology.hl7.org/CodeSystem/v3-orderableDrugForm","code":"TAB"}}]}]},"request":{"method":"POST","url":"MedicationStatement"}},{"fullUrl":"MedicationStatement/c5ce8764-8b8c-4491-b230-51ea67787467","resource":{"resourceType":"MedicationStatement","id":"c5ce8764-8b8c-4491-b230-51ea67787467","status":"completed","medicationCodeableConcept":{"coding":[{"system":"http://www.nlm.nih.gov/research/umls/rxnorm","code":"3640"}]},"subject":{"reference":"Patient/a63ec703-d8de-4a82-ad32-88cf796464f0"},"effectiveDateTime":"2022-12-29T00:00:00+00:00","dosage":[{"doseAndRate":[{"doseQuantity":{"value":2,"unit":"TAB","system":"http://terminology.hl7.org/CodeSystem/v3-orderableDrugForm","code":"TAB"}}]}]},"request":{"method":"POST","url":"MedicationStatement"}},{"fullUrl":"MedicationStatement/c4729181-87cb-43a4-8061-39aaef84bf20","resource":{"resourceType":"MedicationStatement","id":"c4729181-87cb-43a4-8061-39aaef84bf20","status":"completed","medicationCodeableConcept":{"coding":[{"system":"http://www.nlm.nih.gov/research/umls/rxnorm","code":"3640"}]},"subject":{"reference":"Patient/a63ec703-d8de-4a82-ad32-88cf796464f0"},"effectiveDateTime":"2022-07-27T00:00:00+00:00","dosage":[{"doseAndRate":[{"doseQuantity":{"value":4.2,"unit":"TAB","system":"http://terminology.hl7.org/CodeSystem/v3-orderableDrugForm","code":"TAB"}}]}]},"request":{"method":"POST","url":"MedicationStatement"}},{"fullUrl":"Encounter/5cddf0cf-c2c3-453b-87d3-d4946faab0cb","resource":{"resourceType":"Encounter","id":"5cddf0cf-c2c3-453b-87d3-d4946faab0cb","status":"finished","class":{"system":"http://terminology.hl7.org/CodeSystem/v3-ActCode","code":"IMP","display":"inpatient encounter"},"type":[{"coding":[{"system":"http://terminology.hl7.org/CodeSystem/encounter-type","code":"CCS60"}]}],"subject":{"reference":"Patient/a63ec703-d8de-4a82-ad32-88cf796464f0"},"period":{"start":"2022-11-05T00:00:00+00:00","end":"2022-11-08T00:00:00+00:00"}},"request":{"method":"POST","url":"Encounter"}},{"fullUrl":"Encounter/6a81616f-6cc1-46a6-ad65-d0e1df16ab10","resource":{"resourceType":"Encounter","id":"6a81616f-6cc1-46a6-ad65-d0e1df16ab10","status":"finished","class":{"system":"http://terminology.hl7.org/CodeSystem/v3-ActCode","code":"IMP","display":"inpatient encounter"},"type":[{"coding":[{"system":"http://terminology.hl7.org/CodeSystem/encounter-type","code":"OKI"}]}],"subject":{"reference":"Patient/a63ec703-d8de-4a82-ad32-88cf796464f0"},"period":{"start":"2022-05-11T00:00:00+00:00","end":"2022-05-19T00:00:00+00:00"}},"request":{"method":"POST","url":"Encounter"}},{"fullUrl":"Encounter/a0001db0-b87c-4891-8618-70bb67d8c5ee","resource":{"resourceType":"Encounter","id":"a0001db0-b87c-4891-8618-70bb67d8c5ee","status":"finished","class":{"system":"http://terminology.hl7.org/CodeSystem/v3-ActCode","code":"HH","display":"home health"},"type":[{"coding":[{"system":"http://terminology.hl7.org/CodeSystem/encounter-type","code":"ADMS"}]}],"subject":{"reference":"Patient/a63ec703-d8de-4a82-ad32-88cf796464f0"},"period":{"start":"2022-05-29T00:00:00+00:00","end":"2022-05-30T00:00:00+00:00"}},"request":{"method":"POST","url":"Encounter"}},{"fullUrl":"Encounter/11356daf-6703-41ba-82e8-3e8a3af00148","resource":{"resourceType":"Encounter","id":"11356daf-6703-41ba-82e8-3e8a3af00148","status":"finished","class":{"system":"http://terminology.hl7.org/CodeSystem/v3-ActCode","code":"OBSENC","display":"observation encounter"},"type":[{"coding":[{"system":"http://terminology.hl7.org/CodeSystem/encounter-type","code":"ADMS"}]}],"subject":{"reference":"Patient/a63ec703-d8de-4a82-ad32-88cf796464f0"},"period":{"start":"2022-12-11T00:00:00+00:00","end":"2022-12-12T00:00:00+00:00"}},"request":{"method":"POST","url":"Encounter"}},{"fullUrl":"Patient/6d372842-6d82-4f43-898a-317acb4a229b","resource":{"resourceType":"Patient","id":"6d372842-6d82-4f43-898a-317acb4a229b","identifier":[{"type":{"coding":[{"system":"http://terminology.hl7.org/CodeSystem/v2-0203","code":"MR"}]},"system":"urn:fhirgen:mrn","value":"762-11-4738"}],"name":[{"use":"official","family":"Rice","given":["Kyle"]},{"use":"maiden","family":"Diaz"}],"telecom":[{"system":"phone","value":"+1-229-248-0218x131","use":"work"},{"system":"email","value":"sharon03@hotmail.com","use":"mobile"}],"gender":"other","birthDate":"1966-05-10","address":[{"use":"home","line":["565 Reed Flat"],"city":"Javierfurt","state":"FL","postalCode":"02183"},{"use":"old","line":["7144 Alexis Village"],"city":"Sarahfurt","state":"KS","postalCode":"25191"}]},"request":{"method":"POST","url":"Patient"}},{"fullUrl":"Observation/447a6e48-45f8-4c04-9e21-200d6ec2bcce","resource":{"resourceType":"Observation","id":"447a6e48-45f8-4c04-9e21-200d6ec2bcce","status":"final","code":{"coding":[{"system":"http://loinc.org","code":"47476-7"}]},"subject":{"reference":"Patient/6d372842-6d82-4f43-898a-317acb4a229b"},"effectiveDateTime":"2022-09-15T00:00:00+00:00","valueRatio":{"numerator":{"value":1},"denominator":{"value":32}}},"request":{"method":"POST","url":"Observation"}},{"fullUrl":"Observation/b3f98205-6cf2-40ff-87d6-535fa431facb","resource":{"resourceType":"Observation","id":"b3f98205-6cf2-40ff-87d6-535fa431facb","status":"final","code":{"coding":[{"system":"http://loinc.org","code":"51475-2"}]},"subject":{"reference":"Patient/6d372842-6d82-4f43-898a-317acb4a229b"},"effectiveDateTime":"2022-06-12T00:00:00+00:00","valueRatio":{"numerator":{"value":1},"denominator":{"value":32}}},"request":{"method":"POST","url":"Observation"}},{"fullUrl":"Observation/861f3592-c3dd-4e95-beb3-74c9c3e1d626","resource":{"resourceType":"Observation","id":"861f3592-c3dd-4e95-beb3-74c9c3e1d626","status":"final","code":{"coding":[{"system":"http://loinc.org","code":"46203-6"}]},"subject":{"reference":"Patient/6d372842-6d82-4f43-898a-317acb4a229b"},"effectiveDateTime":"2022-03-29T00:00:00+00:00","valueRatio":{"numerator":{"value":1},"denominator":{"value":64}}},"request":{"method":"POST","url":"Observation"}},{"fullUrl":"Condition/f1c5e1f4-a388-4ab3-a16b-12a62f8a0696","resource":{"resourceType":"Condition","id":"f1c5e1f4-a388-4ab3-a16b-12a62f8a0696","code":{"coding":[{"system":"http://snomed.info/sct","code":"405737000"}]},"subject":{"reference":"Patient/6d372842-6d82-4f43-898a-317acb4a229b"},"onsetDateTime":"2022-08-03T00:00:00+00:00"},"request":{"method":"POST","url":"Condition"}},{"fullUrl":"Condition/7b108499-6f1d-4a89-b80d-ba3458fe34f9","resource":{"resourceType":"Condition","id":"7b108499-6f1d-4a89-b80d-ba3458fe34f9","code":{"coding":[{"system":"http://snomed.info/sct","code":"44882003"}]},"subject":{"reference":"Patient/6d372842-6d82-4f43-898a-317acb4a229b"},"onsetDateTime":"2022-08-25T00:00:00+00:00"},"request":{"method":"POST","url":"Condition"}},{"fullUrl":"Condition/34a50943-f40b-41c2-bbce-ab16d8647252","resource":{"resourceType":"Condition","id":"34a50943-f40b-41c2-bbce-ab16d8647252","code":{"coding":[{"system":"http://snomed.info/sct","code":"44882003"}]},"subject":{"reference":"Patient/6d372842-6d82-4f43-898a-317acb4a229b"},"onsetDateTime":"2022-11-28T00:00:00+00:00"},"request":{"method":"POST","url":"Condition"}},{"fullUrl":"Observation/f39c1cab-f391-4ee5-b33a-639a89baf479","resource":{"resourceType":"Observation","id":"f39c1cab-f391-4ee5-b33a-639a89baf479","status":"final","code":{"coding":[{"system":"http://www.ama-assn.org/go/cpt","code":"85048"}]},"subject":{"reference":"Patient/6d372842-6d82-4f43-898a-317acb4a229b"},"effectiveDateTime":"2022-01-28T00:00:00+00:00","valueQuantity":{"value":10.9}},"request":{"method":"POST","url":"Observation"}},{"fullUrl":"Observation/4bd0e7b5-0896-497c-bbe6-b959732ed306","resource":{"resourceType":"Observation","id":"4bd0e7b5-0896-497c-bbe6-b959732ed306","status":"final","code":{"coding":[{"system":"http://loinc.org","code":"26464-8"}]},"subject":{"reference":"Patient/6d372842-6d82-4f43-898a-317acb4a229b"},"effectiveDateTime":"2022-10-26T00:00:00+00:00","valueQuantity":{"value":10.8}},"request":{"method":"POST","url":"Observation"}},{"fullUrl":"Observation/ff2a7f18-d20e-4c2f-b2ce-0cfb838db549","resource":{"resourceType":"Observation","id":"ff2a7f18-d20e-4c2f-b2ce-0cfb838db549","status":"final","code":{"coding":[{"system":"http://loinc.org","code":"6690-2"}]},"subject":{"reference":"Patient/6d372842-6d82-4f43-898a-317acb4a229b"},"effectiveDateTime":"2022-01-17T00:00:00+00:00","valueQuantity":{"value":8.4}},"request":{"method":"POST","url":"Observation"}},{"fullUrl":"Observation/ba826946-a1b2-4b6a-a6c2-9e551d2f5164","resource":{"resourceType":"Observation","id":"ba826946-a1b2-4b6a-a6c2-9e551d2f5164","status":"final","code":{"coding":[{"system":"http://loinc.org","code":"49498-9"}]},"subject":{"reference":"Patient/6d372842-6d82-4f43-898a-317acb4a229b"},"effectiveDateTime":"2022-12-26T00:00:00+00:00"},"request":{"method":"POST","url":"Observation"}},{"fullUrl":"Observation/2a55cc51-fcdf-4f9a-af0c-690ecee91cc2","resource":{"resourceType":"Observation","id":"2a55cc51-fcdf-4f9a-af0c-690ecee91cc2","status":"final","code":{"coding":[{"system":"http://loinc.org","code":"49498-9"}]},"subject":{"reference":"Patient/6d372842-6d82-4f43-898a-317acb4a229b"},"effectiveDateTime":"2022-05-04T00:00:00+00:00"},"request":{"method":"POST","url":"Observation"}},{"fullUrl":"Observation/929eb9bd-5579-4ab6-be01-edd1b47fed6c","resource":{"resourceType":"Observation","id":"929eb9bd-5579-4ab6-be01-edd1b47fed6c","status":"final","code":{"coding":[{"system":"http://loinc.org","code":"49498-9"}]},"subject":{"reference":"Patient/6d372842-6d82-4f43-898a-317acb4a229b"},"effectiveDateTime":"2022-03-11T00:00:00+00:00"},"request":{"method":"POST","url":"Observation"}},{"fullUrl":"Procedure/63f93da7-0a11-4c2f-a971-1b9d0a89082e","resource":{"resourceType":"Procedure","id":"63f93da7-0a11-4c2f-a971-1b9d0a89082e","status":"completed","code":{"coding":[{"system":"http://snomed.info/sct","code":"115006"}]},"subject":{"reference":"Patient/6d372842-6d82-4f43-898a-317acb4a229b"},"performedDateTime":"2022-09-20T00:00:00+00:00"},"request":{"method":"POST","url":"Procedure"}},{"fullUrl":"Procedure/e7daad55-9772-4460-add4-dfe00b43ec8e","resource":{"resourceType":"Procedure","id":"e7daad55-9772-4460-add4-dfe00b43ec8e","status":"completed","code":{"coding":[{"system":"http://snomed.info/sct","code":"647000"}]},"subject":{"reference":"Patient/6d372842-6d82-4f43-898a-317acb4a229b"},"performedDateTime":"2022-01-05T00:00:00+00:00"},"request":{"method":"POST","url":"Procedure"}},{"fullUrl":"Procedure/04a2833a-0d5e-4359-ab6e-78a92ca11b1e","resource":{"resourceType":"Procedure","id":"04a2833a-0d5e-4359-ab6e-78a92ca11b1e","status":"completed","code":{"coding":[{"system":"http://snomed.info/sct","code":"146005"}]},"subject":{"reference":"Patient/6d372842-6d82-4f43-898a-317acb4a229b"},"performedDateTime":"2022-07-24T00:00:00+00:00"},"request":{"method":"POST","url":"Procedure"}},{"fullUrl":"MedicationStatement/dd741511-4865-44fb-8413-7a9a2f00977b","resource":{"resourceType":"MedicationStatement","id":"dd741511-4865-44fb-8413-7a9a2f00977b","status":"completed","medicationCodeableConcept":{"coding":[{"system":"http://www.nlm.nih.gov/research/umls/rxnorm","code":"18631"}]},"subject":{"reference":"Patient/6d372842-6d82-4f43-898a-317acb4a229b"},"effectiveDateTime":"2022-06-15T00:00:00+00:00","dosage":[{"doseAndRate":[{"doseQuantity":{"value":1,"unit":"TAB","system":"http://terminology.hl7.org/CodeSystem/v3-orderableDrugForm","code":"TAB"}}]}]},"request":{"method":"POST","url":"MedicationStatement"}},{"fullUrl":"MedicationStatement/0980cef4-6db5-4bd8-938f-c8ee08089026","resource":{"resourceType":"MedicationStatement","id":"0980cef4-6db5-4bd8-938f-c8ee08089026","status":"completed","medicationCodeableConcept":{"coding":[{"system":"http://www.nlm.nih.gov/research/umls/rxnorm","code":"10395"}]},"subject":{"reference":"Patient/6d372842-6d82-4f43-898a-317acb4a229b"},"effectiveDateTime":"2022-12-16T00:00:00+00:00","dosage":[{"doseAndRate":[{"doseQuantity":{"value":3.1,"unit":"TAB","system":"http://terminology.hl7.org/CodeSystem/v3-orderableDrugForm","code":"TAB"}}]}]},"request":{"method":"POST","url":"MedicationStatement"}},{"fullUrl":"MedicationStatement/b27f8f02-7ca3-4043-8378-b51050c693a2","resource":{"resourceType":"MedicationStatement","id":"b27f8f02-7ca3-4043-8378-b51050c693a2","status":"completed","medicationCodeableConcept":{"coding":[{"system":"http://www.nlm.nih.gov/research/umls/rxnorm","code":"8698"}]},"subject":{"reference":"Patient/6d372842-6d82-4f43-898a-317acb4a229b"},"effectiveDateTime":"2022-08-10T00:00:00+00:00","dosage":[{"doseAndRate":[{"doseQuantity":{"value":3.7,"unit":"TAB","system":"http://terminology.hl7.org/CodeSystem/v3-orderableDrugForm","code":"TAB"}}]}]},"request":{"method":"POST","url":"MedicationStatement"}},{"fullUrl":"MedicationStatement/c1fd04dc-da1c-457a-9e05-df2acf46cd63","resource":{"resourceType":"MedicationStatement","id":"c1fd04dc-da1c-457a-9e05-df2acf46cd63","status":"completed","medicationCodeableConcept":{"coding":[{"system":"http://www.nlm.nih.gov/research/umls/rxnorm","code":"18631"}]},"subject":{"reference":"Patient/6d372842-6d82-4f43-898a-317acb4a229b"},"effectiveDateTime":"2022-11-19T00:00:00+00:00","dosage":[{"doseAndRate":[{"doseQuantity":{"value":4.5,"unit":"TAB","system":"http://terminology.hl7.org/CodeSystem/v3-orderableDrugForm","code":"TAB"}}]}]},"request":{"method":"POST","url":"MedicationStatement"}},{"fullUrl":"MedicationStatement/c384d5a5-af34-4d7c-92ce-a993683eaefa","resource":{"resourceType":"MedicationStatement","id":"c384d5a5-af34-4d7c-92ce-a993683eaefa","status":"completed","medicationCodeableConcept":{"coding":[{"system":"http://www.nlm.nih.gov/research/umls/rxnorm","code":"7984"}]},"subject":{"reference":"Patient/6d372842-6d82-4f43-898a-317acb4a229b"},"effectiveDateTime":"2022-12-09T00:00:00+00:00","dosage":[{"doseAndRate":[{"doseQuantity":{"value":3.7,"unit":"TAB","system":"http://terminology.hl7.org/CodeSystem/v3-orderableDrugForm","code":"TAB"}}]}]},"request":{"method":"POST","url":"MedicationStatement"}},{"fullUrl":"MedicationStatement/527b7aa4-d71c-4ba9-88fe-1d81a1d2dbd3","resource":{"resourceType":"MedicationStatement","id":"527b7aa4-d71c-4ba9-88fe-1d81a1d2dbd3","status":"completed","medicationCodeableConcept":{"coding":[{"system":"http://www.nlm.nih.gov/research/umls/rxnorm","code":"2193"}]},"subject":{"reference":"Patient/6d372842-6d82-4f43-898a-317acb4a229b"},"effectiveDateTime":"2022-08-09T00:00:00+00:00","dosage":[{"doseAndRate":[{"doseQuantity":{"value":6.9,"unit":"TAB","system":"http://terminology.hl7.org/CodeSystem/v3-orderableDrugForm","code":"TAB"}}]}]},"request":{"method":"POST","url":"MedicationStatement"}},{"fullUrl":"Encounter/2ac7dfe2-55f2-4c62-8861-8341d9bd454e","resource":{"resourceType":"Encounter","id":"2ac7dfe2-55f2-4c62-8861-8341d9bd454e","status":"finished","class":{"system":"http://terminology.hl7.org/CodeSystem/v3-ActCode","code":"IMP","display":"inpatient encounter"},"type":[{"coding":[{"system":"http://terminology.hl7.org/CodeSystem/encounter-type","code":"ADMS"}]}],"subject":{"reference":"Patient/6d372842-6d82-4f43-898a-317acb4a229b"},"period":{"start":"2022-04-02T00:00:00+00:00","end":"2022-04-09T00:00:00+00:00"}},"request":{"method":"POST","url":"Encounter"}},{"fullUrl":"Encounter/6a8ea2f7-e512-4de3-a605-cce064c7f924","resource":{"resourceType":"Encounter","id":"6a8ea2f7-e512-4de3-a605-cce064c7f924","status":"finished","class":{"system":"http://terminology.hl7.org/CodeSystem/v3-ActCode","code":"IMP","display":"inpatient encounter"},"type":[{"coding":[{"system":"http://terminology.hl7.org/CodeSystem/encounter-type","code":"BD/BM-clin"}]}],"subject":{"reference":"Patient/6d372842-6d82-4f43-898a-317acb4a229b"},"period":{"start":"2022-08-06T00:00:00+00:00","end":"2022-08-10T00:00:00+00:00"}},"request":{"method":"POST","url":"Encounter"}},{"fullUrl":"Encounter/ec8d21a9-68cf-4561-915e-7199cb5f3aed","resource":{"resourceType":"Encounter","id":"ec8d21a9-68cf-4561-915e-7199cb5f3aed","status":"finished","class":{"system":"http://terminology.hl7.org/CodeSystem/v3-ActCode","code":"ACUTE","display":"inpatient acute"},"type":[{"coding":[{"system":"http://terminology.hl7.org/CodeSystem/encounter-type","code":"BD/BM-clin"}]}],"subject":{"reference":"Patient/6d372842-6d82-4f43-898a-317acb4a229b"},"period":{"start":"2022-06-11T00:00:00+00:00","end":"2022-06-13T00:00:00+00:00"}},"request":{"method":"POST","url":"Encounter"}},{"fullUrl":"Encounter/5748fd08-0f1f-44ee-b0a4-eb5566daa1a0","resource":{"resourceType":"Encounter","id":"5748fd08-0f1f-44ee-b0a4-eb5566daa1a0","status":"finished","class":{"system":"http://terminology.hl7.org/CodeSystem/v3-ActCode","code":"EMER","display":"emergency"},"type":[{"coding":[{"system":"http://terminology.hl7.org/CodeSystem/encounter-type","code":"ADMS"}]}],"subject":{"reference":"Patient/6d372842-6d82-4f43-898a-317acb4a229b"},"period":{"start":"2022-10-10T00:00:00+00:00","end":"2022-10-19T00:00:00+00:00"}},"request":{"method":"POST","url":"Encounter"}}]}